{"condition": 0, "counterbalance": 905, "assignmentId": "3P1L2B7AD2W2GH2H0CNYKG8B1NWOLG", "workerId": "MTK0359", "hitId": "39AYGO6AFFR0SR14MRCHROUP7WR6N3", "currenttrial": 41, "bonus": 0, "data": [{"uniqueid": "MTK0359:3P1L2B7AD2W2GH2H0CNYKG8B1NWOLG", "current_trial": 0, "dateTime": 1510774221159, "trialdata": {"rt": 7581, "key_press": 76, "type": "INSTRUCTIONS", "trial_type": "text", "trial_index": 0, "time_elapsed": 7592, "internal_node_id": "0.0-0.0"}}, {"uniqueid": "MTK0359:3P1L2B7AD2W2GH2H0CNYKG8B1NWOLG", "current_trial": 1, "dateTime": 1510774568104, "trialdata": {"rt": 346945, "key_press": 75, "type": "INSTRUCTIONS", "trial_type": "text", "trial_index": 1, "time_elapsed": 354540, "internal_node_id": "0.0-1.0"}}, {"uniqueid": "MTK0359:3P1L2B7AD2W2GH2H0CNYKG8B1NWOLG", "current_trial": 2, "dateTime": 1510774627567, "trialdata": {"rt": [59398], "responses": ["ocean"], "type": "AUDIO_TEST", "trial_type": "audio-test", "trial_index": 2, "time_elapsed": 414002, "internal_node_id": "0.0-2.0"}}, {"uniqueid": "MTK0359:3P1L2B7AD2W2GH2H0CNYKG8B1NWOLG", "current_trial": 3, "dateTime": 1510774666706, "trialdata": {"rt": [39125], "responses": ["crystal"], "type": "AUDIO_TEST", "trial_type": "audio-test", "trial_index": 3, "time_elapsed": 453142, "internal_node_id": "0.0-3.0"}}, {"uniqueid": "MTK0359:3P1L2B7AD2W2GH2H0CNYKG8B1NWOLG", "current_trial": 4, "dateTime": 1510774685656, "trialdata": {"rt": [18934], "responses": ["spice"], "type": "AUDIO_TEST", "trial_type": "audio-test", "trial_index": 4, "time_elapsed": 472092, "internal_node_id": "0.0-4.0"}}, {"uniqueid": "MTK0359:3P1L2B7AD2W2GH2H0CNYKG8B1NWOLG", "current_trial": 5, "dateTime": 1510774714541, "trialdata": {"rt": 28114, "responses": "{\"Q0\":\"10 pm\",\"Q1\":\"6 am\",\"Q2\":\"4\"}", "type": "SLEEP_SURVEY", "trial_type": "survey-text", "trial_index": 5, "time_elapsed": 500977, "internal_node_id": "0.0-5.0"}}, {"uniqueid": "MTK0359:3P1L2B7AD2W2GH2H0CNYKG8B1NWOLG", "current_trial": 6, "dateTime": 1510774720141, "trialdata": {"rt": 4593, "key_press": 32, "type": "INSTRUCTIONS", "trial_type": "text", "trial_index": 6, "time_elapsed": 506577, "internal_node_id": "0.0-6.0"}}, {"uniqueid": "MTK0359:3P1L2B7AD2W2GH2H0CNYKG8B1NWOLG", "current_trial": 7, "dateTime": 1510774725266, "trialdata": {"rt": 4621, "key_press": 32, "type": "INSTRUCTIONS", "trial_type": "text", "trial_index": 7, "time_elapsed": 511702, "internal_node_id": "0.0-7.0"}}, {"uniqueid": "MTK0359:3P1L2B7AD2W2GH2H0CNYKG8B1NWOLG", "current_trial": 8, "dateTime": 1510774726817, "trialdata": {"rt": 1041, "key_press": 32, "type": "INSTRUCTIONS", "trial_type": "text", "trial_index": 8, "time_elapsed": 513253, "internal_node_id": "0.0-8.0"}}, {"uniqueid": "MTK0359:3P1L2B7AD2W2GH2H0CNYKG8B1NWOLG", "current_trial": 9, "dateTime": 1510774745850, "trialdata": {"rt": [5426, 9585, 13762], "responses": ["21", "10", "13"], "num1": [8, 6, 5, 7], "num2": [8, 3, 1, 5], "num3": [5, 1, 7, 4], "type": "DISTRACTOR", "conditions": [18, 1200, "v", 18000], "trial": 0, "trial_type": "math-distractor", "trial_index": 9, "time_elapsed": 532286, "internal_node_id": "0.0-9.0"}}, {"uniqueid": "MTK0359:3P1L2B7AD2W2GH2H0CNYKG8B1NWOLG", "current_trial": 10, "dateTime": 1510774748861, "trialdata": {"rt": -1, "stimulus": "<p id=\"stim\">10</p>", "key_press": -1, "trial_type": "single-stim", "trial_index": 10, "time_elapsed": 535297, "internal_node_id": "0.0-10.0-0.0"}}, {"uniqueid": "MTK0359:3P1L2B7AD2W2GH2H0CNYKG8B1NWOLG", "current_trial": 11, "dateTime": 1510774749868, "trialdata": {"rt": -1, "stimulus": "<p id=\"stim\">9</p>", "key_press": -1, "trial_type": "single-stim", "trial_index": 11, "time_elapsed": 536304, "internal_node_id": "0.0-10.0-1.0"}}, {"uniqueid": "MTK0359:3P1L2B7AD2W2GH2H0CNYKG8B1NWOLG", "current_trial": 12, "dateTime": 1510774750879, "trialdata": {"rt": -1, "stimulus": "<p id=\"stim\">8</p>", "key_press": -1, "trial_type": "single-stim", "trial_index": 12, "time_elapsed": 537315, "internal_node_id": "0.0-10.0-2.0"}}, {"uniqueid": "MTK0359:3P1L2B7AD2W2GH2H0CNYKG8B1NWOLG", "current_trial": 13, "dateTime": 1510774751886, "trialdata": {"rt": -1, "stimulus": "<p id=\"stim\">7</p>", "key_press": -1, "trial_type": "single-stim", "trial_index": 13, "time_elapsed": 538322, "internal_node_id": "0.0-10.0-3.0"}}, {"uniqueid": "MTK0359:3P1L2B7AD2W2GH2H0CNYKG8B1NWOLG", "current_trial": 14, "dateTime": 1510774752896, "trialdata": {"rt": -1, "stimulus": "<p id=\"stim\">6</p>", "key_press": -1, "trial_type": "single-stim", "trial_index": 14, "time_elapsed": 539332, "internal_node_id": "0.0-10.0-4.0"}}, {"uniqueid": "MTK0359:3P1L2B7AD2W2GH2H0CNYKG8B1NWOLG", "current_trial": 15, "dateTime": 1510774753902, "trialdata": {"rt": -1, "stimulus": "<p id=\"stim\">5</p>", "key_press": -1, "trial_type": "single-stim", "trial_index": 15, "time_elapsed": 540338, "internal_node_id": "0.0-10.0-5.0"}}, {"uniqueid": "MTK0359:3P1L2B7AD2W2GH2H0CNYKG8B1NWOLG", "current_trial": 16, "dateTime": 1510774754914, "trialdata": {"rt": -1, "stimulus": "<p id=\"stim\">4</p>", "key_press": -1, "trial_type": "single-stim", "trial_index": 16, "time_elapsed": 541346, "internal_node_id": "0.0-10.0-6.0"}}, {"uniqueid": "MTK0359:3P1L2B7AD2W2GH2H0CNYKG8B1NWOLG", "current_trial": 17, "dateTime": 1510774755920, "trialdata": {"rt": -1, "stimulus": "<p id=\"stim\">3</p>", "key_press": -1, "trial_type": "single-stim", "trial_index": 17, "time_elapsed": 542356, "internal_node_id": "0.0-10.0-7.0"}}, {"uniqueid": "MTK0359:3P1L2B7AD2W2GH2H0CNYKG8B1NWOLG", "current_trial": 18, "dateTime": 1510774756928, "trialdata": {"rt": -1, "stimulus": "<p id=\"stim\">2</p>", "key_press": -1, "trial_type": "single-stim", "trial_index": 18, "time_elapsed": 543360, "internal_node_id": "0.0-10.0-8.0"}}, {"uniqueid": "MTK0359:3P1L2B7AD2W2GH2H0CNYKG8B1NWOLG", "current_trial": 19, "dateTime": 1510774757936, "trialdata": {"rt": -1, "stimulus": "<p id=\"stim\">1</p>", "key_press": -1, "trial_type": "single-stim", "trial_index": 19, "time_elapsed": 544372, "internal_node_id": "0.0-10.0-9.0"}}, {"uniqueid": "MTK0359:3P1L2B7AD2W2GH2H0CNYKG8B1NWOLG", "current_trial": 20, "dateTime": 1510774759446, "trialdata": {"rt": -1, "stimulus": "<p id=\"stim\">+</p>", "key_press": -1, "type": "FIXATION", "trial_type": "single-stim", "trial_index": 20, "time_elapsed": 545878, "internal_node_id": "0.0-11.0-0.0"}}, {"uniqueid": "MTK0359:3P1L2B7AD2W2GH2H0CNYKG8B1NWOLG", "current_trial": 21, "dateTime": 1510774760654, "trialdata": {"rt": -1, "stimulus": "<p id=\"stim\">LILY</p>", "key_press": -1, "type": "PRES_VIS", "word": "lily", "wordID": 820, "conditions": [18, 1200, "v", 18000], "trial": 0, "serialpos": 0, "trial_type": "single-stim", "trial_index": 21, "time_elapsed": 547086, "internal_node_id": "0.0-12.0"}}, {"uniqueid": "MTK0359:3P1L2B7AD2W2GH2H0CNYKG8B1NWOLG", "current_trial": 22, "dateTime": 1510774762960, "trialdata": {"rt": -1, "stimulus": "<p id=\"stim\">LEADER</p>", "key_press": -1, "type": "PRES_VIS", "word": "leader", "wordID": 806, "conditions": [18, 1200, "v", 18000], "trial": 0, "serialpos": 1, "trial_type": "single-stim", "trial_index": 22, "time_elapsed": 549396, "internal_node_id": "0.0-13.0"}}, {"uniqueid": "MTK0359:3P1L2B7AD2W2GH2H0CNYKG8B1NWOLG", "current_trial": 23, "dateTime": 1510774765271, "trialdata": {"rt": -1, "stimulus": "<p id=\"stim\">MOP</p>", "key_press": -1, "type": "PRES_VIS", "word": "mop", "wordID": 915, "conditions": [18, 1200, "v", 18000], "trial": 0, "serialpos": 2, "trial_type": "single-stim", "trial_index": 23, "time_elapsed": 551707, "internal_node_id": "0.0-14.0"}}, {"uniqueid": "MTK0359:3P1L2B7AD2W2GH2H0CNYKG8B1NWOLG", "current_trial": 24, "dateTime": 1510774767366, "trialdata": {"rt": -1, "stimulus": "<p id=\"stim\">ROBOT</p>", "key_press": -1, "type": "PRES_VIS", "word": "robot", "wordID": 1199, "conditions": [18, 1200, "v", 18000], "trial": 0, "serialpos": 3, "trial_type": "single-stim", "trial_index": 24, "time_elapsed": 553802, "internal_node_id": "0.0-15.0"}}, {"uniqueid": "MTK0359:3P1L2B7AD2W2GH2H0CNYKG8B1NWOLG", "current_trial": 25, "dateTime": 1510774769484, "trialdata": {"rt": -1, "stimulus": "<p id=\"stim\">CARROT</p>", "key_press": -1, "type": "PRES_VIS", "word": "carrot", "wordID": 248, "conditions": [18, 1200, "v", 18000], "trial": 0, "serialpos": 4, "trial_type": "single-stim", "trial_index": 25, "time_elapsed": 555917, "internal_node_id": "0.0-16.0"}}, {"uniqueid": "MTK0359:3P1L2B7AD2W2GH2H0CNYKG8B1NWOLG", "current_trial": 26, "dateTime": 1510774771604, "trialdata": {"rt": -1, "stimulus": "<p id=\"stim\">HUSBAND</p>", "key_press": -1, "type": "PRES_VIS", "word": "husband", "wordID": 727, "conditions": [18, 1200, "v", 18000], "trial": 0, "serialpos": 5, "trial_type": "single-stim", "trial_index": 26, "time_elapsed": 558040, "internal_node_id": "0.0-17.0"}}, {"uniqueid": "MTK0359:3P1L2B7AD2W2GH2H0CNYKG8B1NWOLG", "current_trial": 27, "dateTime": 1510774773945, "trialdata": {"rt": -1, "stimulus": "<p id=\"stim\">HATCHET</p>", "key_press": -1, "type": "PRES_VIS", "word": "hatchet", "wordID": 690, "conditions": [18, 1200, "v", 18000], "trial": 0, "serialpos": 6, "trial_type": "single-stim", "trial_index": 27, "time_elapsed": 560381, "internal_node_id": "0.0-18.0"}}, {"uniqueid": "MTK0359:3P1L2B7AD2W2GH2H0CNYKG8B1NWOLG", "current_trial": 28, "dateTime": 1510774776348, "trialdata": {"rt": -1, "stimulus": "<p id=\"stim\">SHERIFF</p>", "key_press": -1, "type": "PRES_VIS", "word": "sheriff", "wordID": 1283, "conditions": [18, 1200, "v", 18000], "trial": 0, "serialpos": 7, "trial_type": "single-stim", "trial_index": 28, "time_elapsed": 562784, "internal_node_id": "0.0-19.0"}}, {"uniqueid": "MTK0359:3P1L2B7AD2W2GH2H0CNYKG8B1NWOLG", "current_trial": 29, "dateTime": 1510774778593, "trialdata": {"rt": -1, "stimulus": "<p id=\"stim\">CURTAIN</p>", "key_press": -1, "type": "PRES_VIS", "word": "curtain", "wordID": 426, "conditions": [18, 1200, "v", 18000], "trial": 0, "serialpos": 8, "trial_type": "single-stim", "trial_index": 29, "time_elapsed": 565029, "internal_node_id": "0.0-20.0"}}, {"uniqueid": "MTK0359:3P1L2B7AD2W2GH2H0CNYKG8B1NWOLG", "current_trial": 30, "dateTime": 1510774780758, "trialdata": {"rt": -1, "stimulus": "<p id=\"stim\">DRUG</p>", "key_press": -1, "type": "PRES_VIS", "word": "drug", "wordID": 500, "conditions": [18, 1200, "v", 18000], "trial": 0, "serialpos": 9, "trial_type": "single-stim", "trial_index": 30, "time_elapsed": 567194, "internal_node_id": "0.0-21.0"}}, {"uniqueid": "MTK0359:3P1L2B7AD2W2GH2H0CNYKG8B1NWOLG", "current_trial": 31, "dateTime": 1510774782856, "trialdata": {"rt": -1, "stimulus": "<p id=\"stim\">OUTDOORS</p>", "key_press": -1, "type": "PRES_VIS", "word": "outdoors", "wordID": 986, "conditions": [18, 1200, "v", 18000], "trial": 0, "serialpos": 10, "trial_type": "single-stim", "trial_index": 31, "time_elapsed": 569292, "internal_node_id": "0.0-22.0"}}, {"uniqueid": "MTK0359:3P1L2B7AD2W2GH2H0CNYKG8B1NWOLG", "current_trial": 32, "dateTime": 1510774784972, "trialdata": {"rt": -1, "stimulus": "<p id=\"stim\">HIGHWAY</p>", "key_press": -1, "type": "PRES_VIS", "word": "highway", "wordID": 706, "conditions": [18, 1200, "v", 18000], "trial": 0, "serialpos": 11, "trial_type": "single-stim", "trial_index": 32, "time_elapsed": 571408, "internal_node_id": "0.0-23.0"}}, {"uniqueid": "MTK0359:3P1L2B7AD2W2GH2H0CNYKG8B1NWOLG", "current_trial": 33, "dateTime": 1510774787093, "trialdata": {"rt": -1, "stimulus": "<p id=\"stim\">DUST</p>", "key_press": -1, "type": "PRES_VIS", "word": "dust", "wordID": 507, "conditions": [18, 1200, "v", 18000], "trial": 0, "serialpos": 12, "trial_type": "single-stim", "trial_index": 33, "time_elapsed": 573529, "internal_node_id": "0.0-24.0"}}, {"uniqueid": "MTK0359:3P1L2B7AD2W2GH2H0CNYKG8B1NWOLG", "current_trial": 34, "dateTime": 1510774789190, "trialdata": {"rt": -1, "stimulus": "<p id=\"stim\">PIZZA</p>", "key_press": -1, "type": "PRES_VIS", "word": "pizza", "wordID": 1078, "conditions": [18, 1200, "v", 18000], "trial": 0, "serialpos": 13, "trial_type": "single-stim", "trial_index": 34, "time_elapsed": 575626, "internal_node_id": "0.0-25.0"}}, {"uniqueid": "MTK0359:3P1L2B7AD2W2GH2H0CNYKG8B1NWOLG", "current_trial": 35, "dateTime": 1510774791518, "trialdata": {"rt": -1, "stimulus": "<p id=\"stim\">SNACK</p>", "key_press": -1, "type": "PRES_VIS", "word": "snack", "wordID": 1330, "conditions": [18, 1200, "v", 18000], "trial": 0, "serialpos": 14, "trial_type": "single-stim", "trial_index": 35, "time_elapsed": 577954, "internal_node_id": "0.0-26.0"}}, {"uniqueid": "MTK0359:3P1L2B7AD2W2GH2H0CNYKG8B1NWOLG", "current_trial": 36, "dateTime": 1510774793638, "trialdata": {"rt": -1, "stimulus": "<p id=\"stim\">COCOON</p>", "key_press": -1, "type": "PRES_VIS", "word": "cocoon", "wordID": 338, "conditions": [18, 1200, "v", 18000], "trial": 0, "serialpos": 15, "trial_type": "single-stim", "trial_index": 36, "time_elapsed": 580074, "internal_node_id": "0.0-27.0"}}, {"uniqueid": "MTK0359:3P1L2B7AD2W2GH2H0CNYKG8B1NWOLG", "current_trial": 37, "dateTime": 1510774795896, "trialdata": {"rt": -1, "stimulus": "<p id=\"stim\">OYSTER</p>", "key_press": -1, "type": "PRES_VIS", "word": "oyster", "wordID": 994, "conditions": [18, 1200, "v", 18000], "trial": 0, "serialpos": 16, "trial_type": "single-stim", "trial_index": 37, "time_elapsed": 582332, "internal_node_id": "0.0-28.0"}}, {"uniqueid": "MTK0359:3P1L2B7AD2W2GH2H0CNYKG8B1NWOLG", "current_trial": 38, "dateTime": 1510774798210, "trialdata": {"rt": -1, "stimulus": "<p id=\"stim\">PLAZA</p>", "key_press": -1, "type": "PRES_VIS", "word": "plaza", "wordID": 1087, "conditions": [18, 1200, "v", 18000], "trial": 0, "serialpos": 17, "trial_type": "single-stim", "trial_index": 38, "time_elapsed": 584646, "internal_node_id": "0.0-29.0"}}, {"uniqueid": "MTK0359:3P1L2B7AD2W2GH2H0CNYKG8B1NWOLG", "current_trial": 39, "dateTime": 1510774800576, "trialdata": {"rt": -1, "stimulus": "", "key_press": -1, "type": "PRE_RECALL_DELAY", "trial_type": "single-stim", "trial_index": 39, "time_elapsed": 587012, "internal_node_id": "0.0-30.0-0.0"}}, {"uniqueid": "MTK0359:3P1L2B7AD2W2GH2H0CNYKG8B1NWOLG", "current_trial": 40, "dateTime": 1510774801113, "trialdata": {"rt": -1000, "stimulus": "/static/audio/400Hz.wav", "key_press": -1, "type": "PRE_RECALL_ALERT", "trial_type": "single-audio", "trial_index": 40, "time_elapsed": 587548, "internal_node_id": "0.0-31.0"}}], "questiondata": {}, "eventdata": [{"eventtype": "initialized", "value": null, "timestamp": 1510774206903, "interval": 0}, {"eventtype": "window_resize", "value": [1366, 721], "timestamp": 1510774206903, "interval": 0}, {"eventtype": "focus", "value": "off", "timestamp": 1510774227123, "interval": 20220}, {"eventtype": "focus", "value": "on", "timestamp": 1510774238912, "interval": 11789}, {"eventtype": "focus", "value": "off", "timestamp": 1510774278606, "interval": 39694}, {"eventtype": "focus", "value": "on", "timestamp": 1510774333365, "interval": 54759}, {"eventtype": "focus", "value": "off", "timestamp": 1510774388130, "interval": 54765}, {"eventtype": "focus", "value": "on", "timestamp": 1510774538620, "interval": 150490}, {"eventtype": "focus", "value": "off", "timestamp": 1510774589452, "interval": 50832}, {"eventtype": "focus", "value": "on", "timestamp": 1510774591819, "interval": 2367}, {"eventtype": "focus", "value": "off", "timestamp": 1510774637474, "interval": 45655}, {"eventtype": "focus", "value": "on", "timestamp": 1510774655989, "interval": 18515}], "useragent": "Mozilla/5.0 (Windows NT 10.0; Win64; x64) AppleWebKit/537.36 (KHTML, like Gecko) Chrome/62.0.3202.94 Safari/537.36", "mode": "live"}