{"condition": 0, "counterbalance": 2235, "assignmentId": "3LKC68YZ3BAIRBEG4QU0TRPR1XBOWS", "workerId": "MTK0772", "hitId": "3R15W654VD03E9H3PNA0K17R2LKLQW", "currenttrial": 76, "bonus": 0, "data": [{"uniqueid": "MTK0772:3LKC68YZ3BAIRBEG4QU0TRPR1XBOWS", "current_trial": 0, "dateTime": 1512751195295, "trialdata": {"rt": 2870, "key_press": 13, "type": "INSTRUCTIONS", "trial_type": "text", "trial_index": 0, "time_elapsed": 2871, "internal_node_id": "0.0-0.0"}}, {"uniqueid": "MTK0772:3LKC68YZ3BAIRBEG4QU0TRPR1XBOWS", "current_trial": 1, "dateTime": 1512751204212, "trialdata": {"rt": 8915, "key_press": 13, "type": "INSTRUCTIONS", "trial_type": "text", "trial_index": 1, "time_elapsed": 11788, "internal_node_id": "0.0-1.0"}}, {"uniqueid": "MTK0772:3LKC68YZ3BAIRBEG4QU0TRPR1XBOWS", "current_trial": 2, "dateTime": 1512751218317, "trialdata": {"rt": [14083], "responses": ["ocean"], "type": "AUDIO_TEST", "trial_type": "audio-test", "trial_index": 2, "time_elapsed": 25893, "internal_node_id": "0.0-2.0"}}, {"uniqueid": "MTK0772:3LKC68YZ3BAIRBEG4QU0TRPR1XBOWS", "current_trial": 3, "dateTime": 1512751222580, "trialdata": {"rt": [4262], "responses": ["crystal"], "type": "AUDIO_TEST", "trial_type": "audio-test", "trial_index": 3, "time_elapsed": 30156, "internal_node_id": "0.0-3.0"}}, {"uniqueid": "MTK0772:3LKC68YZ3BAIRBEG4QU0TRPR1XBOWS", "current_trial": 4, "dateTime": 1512751228740, "trialdata": {"rt": [6157], "responses": ["spice"], "type": "AUDIO_TEST", "trial_type": "audio-test", "trial_index": 4, "time_elapsed": 36316, "internal_node_id": "0.0-4.0"}}, {"uniqueid": "MTK0772:3LKC68YZ3BAIRBEG4QU0TRPR1XBOWS", "current_trial": 5, "dateTime": 1512751246756, "trialdata": {"rt": 17264, "responses": "{\"Q0\":\"1\",\"Q1\":\"8:30\",\"Q2\":\"5\"}", "type": "SLEEP_SURVEY", "trial_type": "survey-text", "trial_index": 5, "time_elapsed": 54332, "internal_node_id": "0.0-5.0"}}, {"uniqueid": "MTK0772:3LKC68YZ3BAIRBEG4QU0TRPR1XBOWS", "current_trial": 6, "dateTime": 1512751652733, "trialdata": {"rt": 404974, "key_press": 46, "type": "INSTRUCTIONS", "trial_type": "text", "trial_index": 6, "time_elapsed": 460309, "internal_node_id": "0.0-6.0"}}, {"uniqueid": "MTK0772:3LKC68YZ3BAIRBEG4QU0TRPR1XBOWS", "current_trial": 7, "dateTime": 1512751662331, "trialdata": {"rt": 9096, "key_press": 13, "type": "INSTRUCTIONS", "trial_type": "text", "trial_index": 7, "time_elapsed": 469907, "internal_node_id": "0.0-7.0"}}, {"uniqueid": "MTK0772:3LKC68YZ3BAIRBEG4QU0TRPR1XBOWS", "current_trial": 8, "dateTime": 1512751666955, "trialdata": {"rt": 4123, "key_press": 13, "type": "INSTRUCTIONS", "trial_type": "text", "trial_index": 8, "time_elapsed": 474531, "internal_node_id": "0.0-8.0"}}, {"uniqueid": "MTK0772:3LKC68YZ3BAIRBEG4QU0TRPR1XBOWS", "current_trial": 9, "dateTime": 1512751685962, "trialdata": {"rt": [2723, 5227, 7379, 9490, 11931, 13906, 15586, 17690], "responses": ["9", "14", "18", "12", "18", "12", "16", "16"], "num1": [1, 4, 5, 1, 5, 6, 8, 3, 5], "num2": [5, 3, 6, 8, 6, 3, 4, 7, 4], "num3": [3, 7, 7, 3, 7, 3, 4, 6, 2], "type": "DISTRACTOR", "conditions": [18, 1200, "a", 18000], "trial": 0, "trial_type": "math-distractor", "trial_index": 9, "time_elapsed": 493538, "internal_node_id": "0.0-9.0"}}, {"uniqueid": "MTK0772:3LKC68YZ3BAIRBEG4QU0TRPR1XBOWS", "current_trial": 10, "dateTime": 1512751688966, "trialdata": {"rt": -1, "stimulus": "<p id=\"stim\">10</p>", "key_press": -1, "trial_type": "single-stim", "trial_index": 10, "time_elapsed": 496542, "internal_node_id": "0.0-10.0-0.0"}}, {"uniqueid": "MTK0772:3LKC68YZ3BAIRBEG4QU0TRPR1XBOWS", "current_trial": 11, "dateTime": 1512751689970, "trialdata": {"rt": -1, "stimulus": "<p id=\"stim\">9</p>", "key_press": -1, "trial_type": "single-stim", "trial_index": 11, "time_elapsed": 497545, "internal_node_id": "0.0-10.0-1.0"}}, {"uniqueid": "MTK0772:3LKC68YZ3BAIRBEG4QU0TRPR1XBOWS", "current_trial": 12, "dateTime": 1512751690972, "trialdata": {"rt": -1, "stimulus": "<p id=\"stim\">8</p>", "key_press": -1, "trial_type": "single-stim", "trial_index": 12, "time_elapsed": 498548, "internal_node_id": "0.0-10.0-2.0"}}, {"uniqueid": "MTK0772:3LKC68YZ3BAIRBEG4QU0TRPR1XBOWS", "current_trial": 13, "dateTime": 1512751691974, "trialdata": {"rt": -1, "stimulus": "<p id=\"stim\">7</p>", "key_press": -1, "trial_type": "single-stim", "trial_index": 13, "time_elapsed": 499550, "internal_node_id": "0.0-10.0-3.0"}}, {"uniqueid": "MTK0772:3LKC68YZ3BAIRBEG4QU0TRPR1XBOWS", "current_trial": 14, "dateTime": 1512751692976, "trialdata": {"rt": -1, "stimulus": "<p id=\"stim\">6</p>", "key_press": -1, "trial_type": "single-stim", "trial_index": 14, "time_elapsed": 500552, "internal_node_id": "0.0-10.0-4.0"}}, {"uniqueid": "MTK0772:3LKC68YZ3BAIRBEG4QU0TRPR1XBOWS", "current_trial": 15, "dateTime": 1512751693979, "trialdata": {"rt": -1, "stimulus": "<p id=\"stim\">5</p>", "key_press": -1, "trial_type": "single-stim", "trial_index": 15, "time_elapsed": 501554, "internal_node_id": "0.0-10.0-5.0"}}, {"uniqueid": "MTK0772:3LKC68YZ3BAIRBEG4QU0TRPR1XBOWS", "current_trial": 16, "dateTime": 1512751694980, "trialdata": {"rt": -1, "stimulus": "<p id=\"stim\">4</p>", "key_press": -1, "trial_type": "single-stim", "trial_index": 16, "time_elapsed": 502556, "internal_node_id": "0.0-10.0-6.0"}}, {"uniqueid": "MTK0772:3LKC68YZ3BAIRBEG4QU0TRPR1XBOWS", "current_trial": 17, "dateTime": 1512751695982, "trialdata": {"rt": -1, "stimulus": "<p id=\"stim\">3</p>", "key_press": -1, "trial_type": "single-stim", "trial_index": 17, "time_elapsed": 503558, "internal_node_id": "0.0-10.0-7.0"}}, {"uniqueid": "MTK0772:3LKC68YZ3BAIRBEG4QU0TRPR1XBOWS", "current_trial": 18, "dateTime": 1512751696983, "trialdata": {"rt": -1, "stimulus": "<p id=\"stim\">2</p>", "key_press": -1, "trial_type": "single-stim", "trial_index": 18, "time_elapsed": 504559, "internal_node_id": "0.0-10.0-8.0"}}, {"uniqueid": "MTK0772:3LKC68YZ3BAIRBEG4QU0TRPR1XBOWS", "current_trial": 19, "dateTime": 1512751697986, "trialdata": {"rt": -1, "stimulus": "<p id=\"stim\">1</p>", "key_press": -1, "trial_type": "single-stim", "trial_index": 19, "time_elapsed": 505562, "internal_node_id": "0.0-10.0-9.0"}}, {"uniqueid": "MTK0772:3LKC68YZ3BAIRBEG4QU0TRPR1XBOWS", "current_trial": 20, "dateTime": 1512751699488, "trialdata": {"rt": -1, "stimulus": "<p id=\"stim\">+</p>", "key_press": -1, "type": "FIXATION", "trial_type": "single-stim", "trial_index": 20, "time_elapsed": 507064, "internal_node_id": "0.0-11.0-0.0"}}, {"uniqueid": "MTK0772:3LKC68YZ3BAIRBEG4QU0TRPR1XBOWS", "current_trial": 21, "dateTime": 1512751701735, "trialdata": {"rt": -1000, "stimulus": "/static/audio/wordpool/COTTAGE.wav", "key_press": -1, "type": "PRES_AUD", "word": "cottage", "wordID": 383, "conditions": [18, 1200, "a", 18000], "trial": 0, "serialpos": 0, "trial_type": "single-audio", "trial_index": 21, "time_elapsed": 509311, "internal_node_id": "0.0-12.0"}}, {"uniqueid": "MTK0772:3LKC68YZ3BAIRBEG4QU0TRPR1XBOWS", "current_trial": 22, "dateTime": 1512751703834, "trialdata": {"rt": -1000, "stimulus": "/static/audio/wordpool/HOOK.wav", "key_press": -1, "type": "PRES_AUD", "word": "hook", "wordID": 714, "conditions": [18, 1200, "a", 18000], "trial": 0, "serialpos": 1, "trial_type": "single-audio", "trial_index": 22, "time_elapsed": 511410, "internal_node_id": "0.0-13.0"}}, {"uniqueid": "MTK0772:3LKC68YZ3BAIRBEG4QU0TRPR1XBOWS", "current_trial": 23, "dateTime": 1512751706196, "trialdata": {"rt": -1000, "stimulus": "/static/audio/wordpool/PATIENT.wav", "key_press": -1, "type": "PRES_AUD", "word": "patient", "wordID": 1023, "conditions": [18, 1200, "a", 18000], "trial": 0, "serialpos": 2, "trial_type": "single-audio", "trial_index": 23, "time_elapsed": 513772, "internal_node_id": "0.0-14.0"}}, {"uniqueid": "MTK0772:3LKC68YZ3BAIRBEG4QU0TRPR1XBOWS", "current_trial": 24, "dateTime": 1512751708207, "trialdata": {"rt": -1000, "stimulus": "/static/audio/wordpool/GRAVE.wav", "key_press": -1, "type": "PRES_AUD", "word": "grave", "wordID": 657, "conditions": [18, 1200, "a", 18000], "trial": 0, "serialpos": 3, "trial_type": "single-audio", "trial_index": 24, "time_elapsed": 515783, "internal_node_id": "0.0-15.0"}}, {"uniqueid": "MTK0772:3LKC68YZ3BAIRBEG4QU0TRPR1XBOWS", "current_trial": 25, "dateTime": 1512751710536, "trialdata": {"rt": -1000, "stimulus": "/static/audio/wordpool/CRATER.wav", "key_press": -1, "type": "PRES_AUD", "word": "crater", "wordID": 399, "conditions": [18, 1200, "a", 18000], "trial": 0, "serialpos": 4, "trial_type": "single-audio", "trial_index": 25, "time_elapsed": 518112, "internal_node_id": "0.0-16.0"}}, {"uniqueid": "MTK0772:3LKC68YZ3BAIRBEG4QU0TRPR1XBOWS", "current_trial": 26, "dateTime": 1512751712769, "trialdata": {"rt": -1000, "stimulus": "/static/audio/wordpool/GIRL.wav", "key_press": -1, "type": "PRES_AUD", "word": "girl", "wordID": 636, "conditions": [18, 1200, "a", 18000], "trial": 0, "serialpos": 5, "trial_type": "single-audio", "trial_index": 26, "time_elapsed": 520345, "internal_node_id": "0.0-17.0"}}, {"uniqueid": "MTK0772:3LKC68YZ3BAIRBEG4QU0TRPR1XBOWS", "current_trial": 27, "dateTime": 1512751714803, "trialdata": {"rt": -1000, "stimulus": "/static/audio/wordpool/GAVEL.wav", "key_press": -1, "type": "PRES_AUD", "word": "gavel", "wordID": 626, "conditions": [18, 1200, "a", 18000], "trial": 0, "serialpos": 6, "trial_type": "single-audio", "trial_index": 27, "time_elapsed": 522379, "internal_node_id": "0.0-18.0"}}, {"uniqueid": "MTK0772:3LKC68YZ3BAIRBEG4QU0TRPR1XBOWS", "current_trial": 28, "dateTime": 1512751716834, "trialdata": {"rt": -1000, "stimulus": "/static/audio/wordpool/PASTA.wav", "key_press": -1, "type": "PRES_AUD", "word": "pasta", "wordID": 1020, "conditions": [18, 1200, "a", 18000], "trial": 0, "serialpos": 7, "trial_type": "single-audio", "trial_index": 28, "time_elapsed": 524410, "internal_node_id": "0.0-19.0"}}, {"uniqueid": "MTK0772:3LKC68YZ3BAIRBEG4QU0TRPR1XBOWS", "current_trial": 29, "dateTime": 1512751719007, "trialdata": {"rt": -1000, "stimulus": "/static/audio/wordpool/SHERIFF.wav", "key_press": -1, "type": "PRES_AUD", "word": "sheriff", "wordID": 1283, "conditions": [18, 1200, "a", 18000], "trial": 0, "serialpos": 8, "trial_type": "single-audio", "trial_index": 29, "time_elapsed": 526583, "internal_node_id": "0.0-20.0"}}, {"uniqueid": "MTK0772:3LKC68YZ3BAIRBEG4QU0TRPR1XBOWS", "current_trial": 30, "dateTime": 1512751721093, "trialdata": {"rt": -1000, "stimulus": "/static/audio/wordpool/AIRPORT.wav", "key_press": -1, "type": "PRES_AUD", "word": "airport", "wordID": 12, "conditions": [18, 1200, "a", 18000], "trial": 0, "serialpos": 9, "trial_type": "single-audio", "trial_index": 30, "time_elapsed": 528669, "internal_node_id": "0.0-21.0"}}, {"uniqueid": "MTK0772:3LKC68YZ3BAIRBEG4QU0TRPR1XBOWS", "current_trial": 31, "dateTime": 1512751723101, "trialdata": {"rt": -1000, "stimulus": "/static/audio/wordpool/COD.wav", "key_press": -1, "type": "PRES_AUD", "word": "cod", "wordID": 339, "conditions": [18, 1200, "a", 18000], "trial": 0, "serialpos": 10, "trial_type": "single-audio", "trial_index": 31, "time_elapsed": 530677, "internal_node_id": "0.0-22.0"}}, {"uniqueid": "MTK0772:3LKC68YZ3BAIRBEG4QU0TRPR1XBOWS", "current_trial": 32, "dateTime": 1512751725115, "trialdata": {"rt": -1000, "stimulus": "/static/audio/wordpool/CRAB.wav", "key_press": -1, "type": "PRES_AUD", "word": "crab", "wordID": 396, "conditions": [18, 1200, "a", 18000], "trial": 0, "serialpos": 11, "trial_type": "single-audio", "trial_index": 32, "time_elapsed": 532691, "internal_node_id": "0.0-23.0"}}, {"uniqueid": "MTK0772:3LKC68YZ3BAIRBEG4QU0TRPR1XBOWS", "current_trial": 33, "dateTime": 1512751727265, "trialdata": {"rt": -1000, "stimulus": "/static/audio/wordpool/BRANDY.wav", "key_press": -1, "type": "PRES_AUD", "word": "brandy", "wordID": 168, "conditions": [18, 1200, "a", 18000], "trial": 0, "serialpos": 12, "trial_type": "single-audio", "trial_index": 33, "time_elapsed": 534841, "internal_node_id": "0.0-24.0"}}, {"uniqueid": "MTK0772:3LKC68YZ3BAIRBEG4QU0TRPR1XBOWS", "current_trial": 34, "dateTime": 1512751729618, "trialdata": {"rt": -1000, "stimulus": "/static/audio/wordpool/JELLO.wav", "key_press": -1, "type": "PRES_AUD", "word": "jello", "wordID": 753, "conditions": [18, 1200, "a", 18000], "trial": 0, "serialpos": 13, "trial_type": "single-audio", "trial_index": 34, "time_elapsed": 537194, "internal_node_id": "0.0-25.0"}}, {"uniqueid": "MTK0772:3LKC68YZ3BAIRBEG4QU0TRPR1XBOWS", "current_trial": 35, "dateTime": 1512751731729, "trialdata": {"rt": -1000, "stimulus": "/static/audio/wordpool/ATOM.wav", "key_press": -1, "type": "PRES_AUD", "word": "atom", "wordID": 54, "conditions": [18, 1200, "a", 18000], "trial": 0, "serialpos": 14, "trial_type": "single-audio", "trial_index": 35, "time_elapsed": 539305, "internal_node_id": "0.0-26.0"}}, {"uniqueid": "MTK0772:3LKC68YZ3BAIRBEG4QU0TRPR1XBOWS", "current_trial": 36, "dateTime": 1512751733918, "trialdata": {"rt": -1000, "stimulus": "/static/audio/wordpool/COCOON.wav", "key_press": -1, "type": "PRES_AUD", "word": "cocoon", "wordID": 338, "conditions": [18, 1200, "a", 18000], "trial": 0, "serialpos": 15, "trial_type": "single-audio", "trial_index": 36, "time_elapsed": 541494, "internal_node_id": "0.0-27.0"}}, {"uniqueid": "MTK0772:3LKC68YZ3BAIRBEG4QU0TRPR1XBOWS", "current_trial": 37, "dateTime": 1512751736007, "trialdata": {"rt": -1000, "stimulus": "/static/audio/wordpool/KLEENEX.wav", "key_press": -1, "type": "PRES_AUD", "word": "kleenex", "wordID": 781, "conditions": [18, 1200, "a", 18000], "trial": 0, "serialpos": 16, "trial_type": "single-audio", "trial_index": 37, "time_elapsed": 543583, "internal_node_id": "0.0-28.0"}}, {"uniqueid": "MTK0772:3LKC68YZ3BAIRBEG4QU0TRPR1XBOWS", "current_trial": 38, "dateTime": 1512751738378, "trialdata": {"rt": -1000, "stimulus": "/static/audio/wordpool/KEEPER.wav", "key_press": -1, "type": "PRES_AUD", "word": "keeper", "wordID": 768, "conditions": [18, 1200, "a", 18000], "trial": 0, "serialpos": 17, "trial_type": "single-audio", "trial_index": 38, "time_elapsed": 545954, "internal_node_id": "0.0-29.0"}}, {"uniqueid": "MTK0772:3LKC68YZ3BAIRBEG4QU0TRPR1XBOWS", "current_trial": 39, "dateTime": 1512751739778, "trialdata": {"rt": -1, "stimulus": "", "key_press": -1, "type": "PRE_RECALL_DELAY", "trial_type": "single-stim", "trial_index": 39, "time_elapsed": 547354, "internal_node_id": "0.0-30.0-0.0"}}, {"uniqueid": "MTK0772:3LKC68YZ3BAIRBEG4QU0TRPR1XBOWS", "current_trial": 40, "dateTime": 1512751740280, "trialdata": {"rt": -1000, "stimulus": "/static/audio/400Hz.wav", "key_press": -1, "type": "PRE_RECALL_ALERT", "trial_type": "single-audio", "trial_index": 40, "time_elapsed": 547856, "internal_node_id": "0.0-31.0"}}, {"uniqueid": "MTK0772:3LKC68YZ3BAIRBEG4QU0TRPR1XBOWS", "current_trial": 41, "dateTime": 1512751800292, "trialdata": {"rt": [3927, 4759, 6687, 9471, 10527, 14199, 14895, 18519, 28455], "recwords": ["patient", "hook", "gavel", "cottage", "keeper", "cocoon", "atom", "kleenex", "jello"], "type": "FREE_RECALL", "conditions": [18, 1200, "a", 18000], "trial": 0, "trial_type": "free-recall", "trial_index": 41, "time_elapsed": 607863, "internal_node_id": "0.0-32.0-0.0"}}, {"uniqueid": "MTK0772:3LKC68YZ3BAIRBEG4QU0TRPR1XBOWS", "current_trial": 42, "dateTime": 1512751871338, "trialdata": {"rt": 69044, "key_press": 13, "type": "INSTRUCTIONS", "trial_type": "text", "trial_index": 42, "time_elapsed": 678914, "internal_node_id": "0.0-33.0"}}, {"uniqueid": "MTK0772:3LKC68YZ3BAIRBEG4QU0TRPR1XBOWS", "current_trial": 43, "dateTime": 1512751891344, "trialdata": {"rt": [1796, 3668, 4884, 6828, 8380, 9948, 12076, 14660, 16260], "responses": ["21", "14", "5", "12", "10", "7", "14", "9", "9"], "num1": [7, 9, 2, 1, 2, 5, 4, 2, 3, 6], "num2": [7, 1, 2, 3, 3, 1, 5, 3, 5, 5], "num3": [7, 4, 1, 8, 5, 1, 5, 4, 1, 5], "type": "DISTRACTOR", "conditions": [18, 1200, "v", 18000], "trial": 1, "trial_type": "math-distractor", "trial_index": 43, "time_elapsed": 698920, "internal_node_id": "0.0-34.0"}}, {"uniqueid": "MTK0772:3LKC68YZ3BAIRBEG4QU0TRPR1XBOWS", "current_trial": 44, "dateTime": 1512751894348, "trialdata": {"rt": -1, "stimulus": "<p id=\"stim\">10</p>", "key_press": -1, "trial_type": "single-stim", "trial_index": 44, "time_elapsed": 701924, "internal_node_id": "0.0-35.0-0.0"}}, {"uniqueid": "MTK0772:3LKC68YZ3BAIRBEG4QU0TRPR1XBOWS", "current_trial": 45, "dateTime": 1512751895350, "trialdata": {"rt": -1, "stimulus": "<p id=\"stim\">9</p>", "key_press": -1, "trial_type": "single-stim", "trial_index": 45, "time_elapsed": 702926, "internal_node_id": "0.0-35.0-1.0"}}, {"uniqueid": "MTK0772:3LKC68YZ3BAIRBEG4QU0TRPR1XBOWS", "current_trial": 46, "dateTime": 1512751896352, "trialdata": {"rt": -1, "stimulus": "<p id=\"stim\">8</p>", "key_press": -1, "trial_type": "single-stim", "trial_index": 46, "time_elapsed": 703927, "internal_node_id": "0.0-35.0-2.0"}}, {"uniqueid": "MTK0772:3LKC68YZ3BAIRBEG4QU0TRPR1XBOWS", "current_trial": 47, "dateTime": 1512751897354, "trialdata": {"rt": -1, "stimulus": "<p id=\"stim\">7</p>", "key_press": -1, "trial_type": "single-stim", "trial_index": 47, "time_elapsed": 704930, "internal_node_id": "0.0-35.0-3.0"}}, {"uniqueid": "MTK0772:3LKC68YZ3BAIRBEG4QU0TRPR1XBOWS", "current_trial": 48, "dateTime": 1512751898355, "trialdata": {"rt": -1, "stimulus": "<p id=\"stim\">6</p>", "key_press": -1, "trial_type": "single-stim", "trial_index": 48, "time_elapsed": 705931, "internal_node_id": "0.0-35.0-4.0"}}, {"uniqueid": "MTK0772:3LKC68YZ3BAIRBEG4QU0TRPR1XBOWS", "current_trial": 49, "dateTime": 1512751899358, "trialdata": {"rt": -1, "stimulus": "<p id=\"stim\">5</p>", "key_press": -1, "trial_type": "single-stim", "trial_index": 49, "time_elapsed": 706934, "internal_node_id": "0.0-35.0-5.0"}}, {"uniqueid": "MTK0772:3LKC68YZ3BAIRBEG4QU0TRPR1XBOWS", "current_trial": 50, "dateTime": 1512751900360, "trialdata": {"rt": -1, "stimulus": "<p id=\"stim\">4</p>", "key_press": -1, "trial_type": "single-stim", "trial_index": 50, "time_elapsed": 707935, "internal_node_id": "0.0-35.0-6.0"}}, {"uniqueid": "MTK0772:3LKC68YZ3BAIRBEG4QU0TRPR1XBOWS", "current_trial": 51, "dateTime": 1512751901362, "trialdata": {"rt": -1, "stimulus": "<p id=\"stim\">3</p>", "key_press": -1, "trial_type": "single-stim", "trial_index": 51, "time_elapsed": 708938, "internal_node_id": "0.0-35.0-7.0"}}, {"uniqueid": "MTK0772:3LKC68YZ3BAIRBEG4QU0TRPR1XBOWS", "current_trial": 52, "dateTime": 1512751902365, "trialdata": {"rt": -1, "stimulus": "<p id=\"stim\">2</p>", "key_press": -1, "trial_type": "single-stim", "trial_index": 52, "time_elapsed": 709940, "internal_node_id": "0.0-35.0-8.0"}}, {"uniqueid": "MTK0772:3LKC68YZ3BAIRBEG4QU0TRPR1XBOWS", "current_trial": 53, "dateTime": 1512751903367, "trialdata": {"rt": -1, "stimulus": "<p id=\"stim\">1</p>", "key_press": -1, "trial_type": "single-stim", "trial_index": 53, "time_elapsed": 710942, "internal_node_id": "0.0-35.0-9.0"}}, {"uniqueid": "MTK0772:3LKC68YZ3BAIRBEG4QU0TRPR1XBOWS", "current_trial": 54, "dateTime": 1512751904869, "trialdata": {"rt": -1, "stimulus": "<p id=\"stim\">+</p>", "key_press": -1, "type": "FIXATION", "trial_type": "single-stim", "trial_index": 54, "time_elapsed": 712445, "internal_node_id": "0.0-36.0-0.0"}}, {"uniqueid": "MTK0772:3LKC68YZ3BAIRBEG4QU0TRPR1XBOWS", "current_trial": 55, "dateTime": 1512751906071, "trialdata": {"rt": -1, "stimulus": "<p id=\"stim\">BUTCHER</p>", "key_press": -1, "type": "PRES_VIS", "word": "butcher", "wordID": 202, "conditions": [18, 1200, "v", 18000], "trial": 1, "serialpos": 0, "trial_type": "single-stim", "trial_index": 55, "time_elapsed": 713647, "internal_node_id": "0.0-37.0"}}, {"uniqueid": "MTK0772:3LKC68YZ3BAIRBEG4QU0TRPR1XBOWS", "current_trial": 56, "dateTime": 1512751908184, "trialdata": {"rt": -1, "stimulus": "<p id=\"stim\">CYCLONE</p>", "key_press": -1, "type": "PRES_VIS", "word": "cyclone", "wordID": 430, "conditions": [18, 1200, "v", 18000], "trial": 1, "serialpos": 1, "trial_type": "single-stim", "trial_index": 56, "time_elapsed": 715760, "internal_node_id": "0.0-38.0"}}, {"uniqueid": "MTK0772:3LKC68YZ3BAIRBEG4QU0TRPR1XBOWS", "current_trial": 57, "dateTime": 1512751910316, "trialdata": {"rt": -1, "stimulus": "<p id=\"stim\">CREVICE</p>", "key_press": -1, "type": "PRES_VIS", "word": "crevice", "wordID": 404, "conditions": [18, 1200, "v", 18000], "trial": 1, "serialpos": 2, "trial_type": "single-stim", "trial_index": 57, "time_elapsed": 717892, "internal_node_id": "0.0-39.0"}}, {"uniqueid": "MTK0772:3LKC68YZ3BAIRBEG4QU0TRPR1XBOWS", "current_trial": 58, "dateTime": 1512751912515, "trialdata": {"rt": -1, "stimulus": "<p id=\"stim\">WINDOW</p>", "key_press": -1, "type": "PRES_VIS", "word": "window", "wordID": 1610, "conditions": [18, 1200, "v", 18000], "trial": 1, "serialpos": 3, "trial_type": "single-stim", "trial_index": 58, "time_elapsed": 720091, "internal_node_id": "0.0-40.0"}}, {"uniqueid": "MTK0772:3LKC68YZ3BAIRBEG4QU0TRPR1XBOWS", "current_trial": 59, "dateTime": 1512751914872, "trialdata": {"rt": -1, "stimulus": "<p id=\"stim\">PUDDING</p>", "key_press": -1, "type": "PRES_VIS", "word": "pudding", "wordID": 1138, "conditions": [18, 1200, "v", 18000], "trial": 1, "serialpos": 4, "trial_type": "single-stim", "trial_index": 59, "time_elapsed": 722447, "internal_node_id": "0.0-41.0"}}, {"uniqueid": "MTK0772:3LKC68YZ3BAIRBEG4QU0TRPR1XBOWS", "current_trial": 60, "dateTime": 1512751917021, "trialdata": {"rt": -1, "stimulus": "<p id=\"stim\">GYMNAST</p>", "key_press": -1, "type": "PRES_VIS", "word": "gymnast", "wordID": 674, "conditions": [18, 1200, "v", 18000], "trial": 1, "serialpos": 5, "trial_type": "single-stim", "trial_index": 60, "time_elapsed": 724596, "internal_node_id": "0.0-42.0"}}, {"uniqueid": "MTK0772:3LKC68YZ3BAIRBEG4QU0TRPR1XBOWS", "current_trial": 61, "dateTime": 1512751919127, "trialdata": {"rt": -1, "stimulus": "<p id=\"stim\">APRON</p>", "key_press": -1, "type": "PRES_VIS", "word": "apron", "wordID": 34, "conditions": [18, 1200, "v", 18000], "trial": 1, "serialpos": 6, "trial_type": "single-stim", "trial_index": 61, "time_elapsed": 726703, "internal_node_id": "0.0-43.0"}}, {"uniqueid": "MTK0772:3LKC68YZ3BAIRBEG4QU0TRPR1XBOWS", "current_trial": 62, "dateTime": 1512751921361, "trialdata": {"rt": -1, "stimulus": "<p id=\"stim\">BOYFRIEND</p>", "key_press": -1, "type": "PRES_VIS", "word": "boyfriend", "wordID": 161, "conditions": [18, 1200, "v", 18000], "trial": 1, "serialpos": 7, "trial_type": "single-stim", "trial_index": 62, "time_elapsed": 728937, "internal_node_id": "0.0-44.0"}}, {"uniqueid": "MTK0772:3LKC68YZ3BAIRBEG4QU0TRPR1XBOWS", "current_trial": 63, "dateTime": 1512751923703, "trialdata": {"rt": -1, "stimulus": "<p id=\"stim\">DUST</p>", "key_press": -1, "type": "PRES_VIS", "word": "dust", "wordID": 507, "conditions": [18, 1200, "v", 18000], "trial": 1, "serialpos": 8, "trial_type": "single-stim", "trial_index": 63, "time_elapsed": 731279, "internal_node_id": "0.0-45.0"}}, {"uniqueid": "MTK0772:3LKC68YZ3BAIRBEG4QU0TRPR1XBOWS", "current_trial": 64, "dateTime": 1512751925836, "trialdata": {"rt": -1, "stimulus": "<p id=\"stim\">DRAWING</p>", "key_press": -1, "type": "PRES_VIS", "word": "drawing", "wordID": 493, "conditions": [18, 1200, "v", 18000], "trial": 1, "serialpos": 9, "trial_type": "single-stim", "trial_index": 64, "time_elapsed": 733412, "internal_node_id": "0.0-46.0"}}, {"uniqueid": "MTK0772:3LKC68YZ3BAIRBEG4QU0TRPR1XBOWS", "current_trial": 65, "dateTime": 1512751927921, "trialdata": {"rt": -1, "stimulus": "<p id=\"stim\">CRIB</p>", "key_press": -1, "type": "PRES_VIS", "word": "crib", "wordID": 406, "conditions": [18, 1200, "v", 18000], "trial": 1, "serialpos": 10, "trial_type": "single-stim", "trial_index": 65, "time_elapsed": 735497, "internal_node_id": "0.0-47.0"}}, {"uniqueid": "MTK0772:3LKC68YZ3BAIRBEG4QU0TRPR1XBOWS", "current_trial": 66, "dateTime": 1512751930067, "trialdata": {"rt": -1, "stimulus": "<p id=\"stim\">MONSTER</p>", "key_press": -1, "type": "PRES_VIS", "word": "monster", "wordID": 911, "conditions": [18, 1200, "v", 18000], "trial": 1, "serialpos": 11, "trial_type": "single-stim", "trial_index": 66, "time_elapsed": 737642, "internal_node_id": "0.0-48.0"}}, {"uniqueid": "MTK0772:3LKC68YZ3BAIRBEG4QU0TRPR1XBOWS", "current_trial": 67, "dateTime": 1512751932205, "trialdata": {"rt": -1, "stimulus": "<p id=\"stim\">SPOON</p>", "key_press": -1, "type": "PRES_VIS", "word": "spoon", "wordID": 1356, "conditions": [18, 1200, "v", 18000], "trial": 1, "serialpos": 12, "trial_type": "single-stim", "trial_index": 67, "time_elapsed": 739777, "internal_node_id": "0.0-49.0"}}, {"uniqueid": "MTK0772:3LKC68YZ3BAIRBEG4QU0TRPR1XBOWS", "current_trial": 68, "dateTime": 1512751934426, "trialdata": {"rt": -1, "stimulus": "<p id=\"stim\">ROOSTER</p>", "key_press": -1, "type": "PRES_VIS", "word": "rooster", "wordID": 1208, "conditions": [18, 1200, "v", 18000], "trial": 1, "serialpos": 13, "trial_type": "single-stim", "trial_index": 68, "time_elapsed": 742002, "internal_node_id": "0.0-50.0"}}, {"uniqueid": "MTK0772:3LKC68YZ3BAIRBEG4QU0TRPR1XBOWS", "current_trial": 69, "dateTime": 1512751936687, "trialdata": {"rt": -1, "stimulus": "<p id=\"stim\">CITRUS</p>", "key_press": -1, "type": "PRES_VIS", "word": "citrus", "wordID": 312, "conditions": [18, 1200, "v", 18000], "trial": 1, "serialpos": 14, "trial_type": "single-stim", "trial_index": 69, "time_elapsed": 744263, "internal_node_id": "0.0-51.0"}}, {"uniqueid": "MTK0772:3LKC68YZ3BAIRBEG4QU0TRPR1XBOWS", "current_trial": 70, "dateTime": 1512751938713, "trialdata": {"rt": -1, "stimulus": "<p id=\"stim\">GLASS</p>", "key_press": -1, "type": "PRES_VIS", "word": "glass", "wordID": 638, "conditions": [18, 1200, "v", 18000], "trial": 1, "serialpos": 15, "trial_type": "single-stim", "trial_index": 70, "time_elapsed": 746289, "internal_node_id": "0.0-52.0"}}, {"uniqueid": "MTK0772:3LKC68YZ3BAIRBEG4QU0TRPR1XBOWS", "current_trial": 71, "dateTime": 1512751941063, "trialdata": {"rt": -1, "stimulus": "<p id=\"stim\">PLAID</p>", "key_press": -1, "type": "PRES_VIS", "word": "plaid", "wordID": 1079, "conditions": [18, 1200, "v", 18000], "trial": 1, "serialpos": 16, "trial_type": "single-stim", "trial_index": 71, "time_elapsed": 748639, "internal_node_id": "0.0-53.0"}}, {"uniqueid": "MTK0772:3LKC68YZ3BAIRBEG4QU0TRPR1XBOWS", "current_trial": 72, "dateTime": 1512751943413, "trialdata": {"rt": -1, "stimulus": "<p id=\"stim\">MOTOR</p>", "key_press": -1, "type": "PRES_VIS", "word": "motor", "wordID": 921, "conditions": [18, 1200, "v", 18000], "trial": 1, "serialpos": 17, "trial_type": "single-stim", "trial_index": 72, "time_elapsed": 750989, "internal_node_id": "0.0-54.0"}}, {"uniqueid": "MTK0772:3LKC68YZ3BAIRBEG4QU0TRPR1XBOWS", "current_trial": 73, "dateTime": 1512751945816, "trialdata": {"rt": -1, "stimulus": "", "key_press": -1, "type": "PRE_RECALL_DELAY", "trial_type": "single-stim", "trial_index": 73, "time_elapsed": 753392, "internal_node_id": "0.0-55.0-0.0"}}, {"uniqueid": "MTK0772:3LKC68YZ3BAIRBEG4QU0TRPR1XBOWS", "current_trial": 74, "dateTime": 1512751946318, "trialdata": {"rt": -1000, "stimulus": "/static/audio/400Hz.wav", "key_press": -1, "type": "PRE_RECALL_ALERT", "trial_type": "single-audio", "trial_index": 74, "time_elapsed": 753894, "internal_node_id": "0.0-56.0"}}, {"uniqueid": "MTK0772:3LKC68YZ3BAIRBEG4QU0TRPR1XBOWS", "current_trial": 75, "dateTime": 1512752006323, "trialdata": {"rt": [3481, 4905, 8642, 11497, 15266, 26473, 29769], "recwords": ["butcher", "psycho", "crevice", "rooster", "playground", "motor", "crib"], "type": "FREE_RECALL", "conditions": [18, 1200, "v", 18000], "trial": 1, "trial_type": "free-recall", "trial_index": 75, "time_elapsed": 813897, "internal_node_id": "0.0-57.0-0.0"}}], "questiondata": {}, "eventdata": [{"eventtype": "initialized", "value": null, "timestamp": 1512751185776, "interval": 0}, {"eventtype": "window_resize", "value": [1358, 663], "timestamp": 1512751185777, "interval": 1}, {"eventtype": "focus", "value": "off", "timestamp": 1512751251118, "interval": 65341}, {"eventtype": "focus", "value": "on", "timestamp": 1512751637740, "interval": 386622}, {"eventtype": "focus", "value": "off", "timestamp": 1512751694029, "interval": 56289}, {"eventtype": "focus", "value": "on", "timestamp": 1512751696691, "interval": 2662}, {"eventtype": "focus", "value": "off", "timestamp": 1512751790180, "interval": 93489}, {"eventtype": "focus", "value": "on", "timestamp": 1512751870644, "interval": 80464}, {"eventtype": "window_resize", "value": [1918, 975], "timestamp": 1512751903298, "interval": 32654}, {"eventtype": "focus", "value": "off", "timestamp": 1512751998073, "interval": 94775}, {"eventtype": "focus", "value": "on", "timestamp": 1512752392537, "interval": 394464}], "useragent": "Mozilla/5.0 (Windows NT 10.0; WOW64) AppleWebKit/537.36 (KHTML, like Gecko) Chrome/60.0.3112.105 Safari/537.36 Vivaldi/1.92.917.43", "mode": "live", "status": "user data saved"}