{"condition": 0, "counterbalance": 878, "assignmentId": "3018Q3ZVOJXOHB3TVDFC5XX5GAHARF", "workerId": "MTK0084", "hitId": "322ZSN9Z5GRK8H2A0Z5E3PG3Z3I4TN", "currenttrial": 41, "bonus": 0, "data": [{"uniqueid": "MTK0084:3018Q3ZVOJXOHB3TVDFC5XX5GAHARF", "current_trial": 0, "dateTime": 1509133798063, "trialdata": {"rt": 1141, "key_press": 32, "type": "INSTRUCTIONS", "trial_type": "text", "trial_index": 0, "time_elapsed": 1146, "internal_node_id": "0.0-0.0"}}, {"uniqueid": "MTK0084:3018Q3ZVOJXOHB3TVDFC5XX5GAHARF", "current_trial": 1, "dateTime": 1509133799964, "trialdata": {"rt": 1898, "key_press": 17, "type": "INSTRUCTIONS", "trial_type": "text", "trial_index": 1, "time_elapsed": 3049, "internal_node_id": "0.0-1.0"}}, {"uniqueid": "MTK0084:3018Q3ZVOJXOHB3TVDFC5XX5GAHARF", "current_trial": 2, "dateTime": 1509133808464, "trialdata": {"rt": [8479], "responses": ["ocean"], "type": "AUDIO_TEST", "trial_type": "audio-test", "trial_index": 2, "time_elapsed": 11549, "internal_node_id": "0.0-2.0"}}, {"uniqueid": "MTK0084:3018Q3ZVOJXOHB3TVDFC5XX5GAHARF", "current_trial": 3, "dateTime": 1509133813546, "trialdata": {"rt": [5079], "responses": ["crystal"], "type": "AUDIO_TEST", "trial_type": "audio-test", "trial_index": 3, "time_elapsed": 16631, "internal_node_id": "0.0-3.0"}}, {"uniqueid": "MTK0084:3018Q3ZVOJXOHB3TVDFC5XX5GAHARF", "current_trial": 4, "dateTime": 1509133817257, "trialdata": {"rt": [3707], "responses": ["spice"], "type": "AUDIO_TEST", "trial_type": "audio-test", "trial_index": 4, "time_elapsed": 20342, "internal_node_id": "0.0-4.0"}}, {"uniqueid": "MTK0084:3018Q3ZVOJXOHB3TVDFC5XX5GAHARF", "current_trial": 5, "dateTime": 1509133821635, "trialdata": {"rt": 3627, "key_press": 32, "type": "INSTRUCTIONS", "trial_type": "text", "trial_index": 5, "time_elapsed": 24720, "internal_node_id": "0.0-5.0"}}, {"uniqueid": "MTK0084:3018Q3ZVOJXOHB3TVDFC5XX5GAHARF", "current_trial": 6, "dateTime": 1509133859585, "trialdata": {"rt": 37948, "key_press": 32, "type": "INSTRUCTIONS", "trial_type": "text", "trial_index": 6, "time_elapsed": 62670, "internal_node_id": "0.0-6.0"}}, {"uniqueid": "MTK0084:3018Q3ZVOJXOHB3TVDFC5XX5GAHARF", "current_trial": 7, "dateTime": 1509133866732, "trialdata": {"rt": 7146, "key_press": 32, "type": "INSTRUCTIONS", "trial_type": "text", "trial_index": 7, "time_elapsed": 69817, "internal_node_id": "0.0-7.0"}}, {"uniqueid": "MTK0084:3018Q3ZVOJXOHB3TVDFC5XX5GAHARF", "current_trial": 8, "dateTime": 1509133870962, "trialdata": {"rt": 4229, "key_press": 32, "type": "INSTRUCTIONS", "trial_type": "text", "trial_index": 8, "time_elapsed": 74047, "internal_node_id": "0.0-8.0"}}, {"uniqueid": "MTK0084:3018Q3ZVOJXOHB3TVDFC5XX5GAHARF", "current_trial": 9, "dateTime": 1509133889974, "trialdata": {"rt": [3551, 6267, 10339, 14840], "responses": ["14", "13", "15", "13"], "num1": [4, 2, 7, 4, 8], "num2": [4, 5, 6, 5, 3], "num3": [6, 6, 2, 4, 9], "type": "DISTRACTOR", "conditions": [18, 1200, "a", 18000], "trial": 0, "trial_type": "math-distractor", "trial_index": 9, "time_elapsed": 93058, "internal_node_id": "0.0-9.0"}}, {"uniqueid": "MTK0084:3018Q3ZVOJXOHB3TVDFC5XX5GAHARF", "current_trial": 10, "dateTime": 1509133892980, "trialdata": {"rt": -1, "stimulus": "<p id=\"stim\">10</p>", "key_press": -1, "trial_type": "single-stim", "trial_index": 10, "time_elapsed": 96065, "internal_node_id": "0.0-10.0-0.0"}}, {"uniqueid": "MTK0084:3018Q3ZVOJXOHB3TVDFC5XX5GAHARF", "current_trial": 11, "dateTime": 1509133893982, "trialdata": {"rt": -1, "stimulus": "<p id=\"stim\">9</p>", "key_press": -1, "trial_type": "single-stim", "trial_index": 11, "time_elapsed": 97066, "internal_node_id": "0.0-10.0-1.0"}}, {"uniqueid": "MTK0084:3018Q3ZVOJXOHB3TVDFC5XX5GAHARF", "current_trial": 12, "dateTime": 1509133894982, "trialdata": {"rt": -1, "stimulus": "<p id=\"stim\">8</p>", "key_press": -1, "trial_type": "single-stim", "trial_index": 12, "time_elapsed": 98067, "internal_node_id": "0.0-10.0-2.0"}}, {"uniqueid": "MTK0084:3018Q3ZVOJXOHB3TVDFC5XX5GAHARF", "current_trial": 13, "dateTime": 1509133895985, "trialdata": {"rt": -1, "stimulus": "<p id=\"stim\">7</p>", "key_press": -1, "trial_type": "single-stim", "trial_index": 13, "time_elapsed": 99069, "internal_node_id": "0.0-10.0-3.0"}}, {"uniqueid": "MTK0084:3018Q3ZVOJXOHB3TVDFC5XX5GAHARF", "current_trial": 14, "dateTime": 1509133896987, "trialdata": {"rt": -1, "stimulus": "<p id=\"stim\">6</p>", "key_press": -1, "trial_type": "single-stim", "trial_index": 14, "time_elapsed": 100072, "internal_node_id": "0.0-10.0-4.0"}}, {"uniqueid": "MTK0084:3018Q3ZVOJXOHB3TVDFC5XX5GAHARF", "current_trial": 15, "dateTime": 1509133897989, "trialdata": {"rt": -1, "stimulus": "<p id=\"stim\">5</p>", "key_press": -1, "trial_type": "single-stim", "trial_index": 15, "time_elapsed": 101074, "internal_node_id": "0.0-10.0-5.0"}}, {"uniqueid": "MTK0084:3018Q3ZVOJXOHB3TVDFC5XX5GAHARF", "current_trial": 16, "dateTime": 1509133898991, "trialdata": {"rt": -1, "stimulus": "<p id=\"stim\">4</p>", "key_press": -1, "trial_type": "single-stim", "trial_index": 16, "time_elapsed": 102075, "internal_node_id": "0.0-10.0-6.0"}}, {"uniqueid": "MTK0084:3018Q3ZVOJXOHB3TVDFC5XX5GAHARF", "current_trial": 17, "dateTime": 1509133899994, "trialdata": {"rt": -1, "stimulus": "<p id=\"stim\">3</p>", "key_press": -1, "trial_type": "single-stim", "trial_index": 17, "time_elapsed": 103078, "internal_node_id": "0.0-10.0-7.0"}}, {"uniqueid": "MTK0084:3018Q3ZVOJXOHB3TVDFC5XX5GAHARF", "current_trial": 18, "dateTime": 1509133900995, "trialdata": {"rt": -1, "stimulus": "<p id=\"stim\">2</p>", "key_press": -1, "trial_type": "single-stim", "trial_index": 18, "time_elapsed": 104079, "internal_node_id": "0.0-10.0-8.0"}}, {"uniqueid": "MTK0084:3018Q3ZVOJXOHB3TVDFC5XX5GAHARF", "current_trial": 19, "dateTime": 1509133901998, "trialdata": {"rt": -1, "stimulus": "<p id=\"stim\">1</p>", "key_press": -1, "trial_type": "single-stim", "trial_index": 19, "time_elapsed": 105082, "internal_node_id": "0.0-10.0-9.0"}}, {"uniqueid": "MTK0084:3018Q3ZVOJXOHB3TVDFC5XX5GAHARF", "current_trial": 20, "dateTime": 1509133903500, "trialdata": {"rt": -1, "stimulus": "<p id=\"stim\">+</p>", "key_press": -1, "type": "FIXATION", "trial_type": "single-stim", "trial_index": 20, "time_elapsed": 106584, "internal_node_id": "0.0-11.0-0.0"}}, {"uniqueid": "MTK0084:3018Q3ZVOJXOHB3TVDFC5XX5GAHARF", "current_trial": 21, "dateTime": 1509133905686, "trialdata": {"rt": -1000, "stimulus": "/static/audio/wordpool/HAMPER.wav", "key_press": -1, "type": "PRES_AUD", "word": "hamper", "wordID": 681, "conditions": [18, 1200, "a", 18000], "trial": 0, "serialpos": 0, "trial_type": "single-audio", "trial_index": 21, "time_elapsed": 108771, "internal_node_id": "0.0-12.0"}}, {"uniqueid": "MTK0084:3018Q3ZVOJXOHB3TVDFC5XX5GAHARF", "current_trial": 22, "dateTime": 1509133907916, "trialdata": {"rt": -1000, "stimulus": "/static/audio/wordpool/NURSE.wav", "key_press": -1, "type": "PRES_AUD", "word": "nurse", "wordID": 962, "conditions": [18, 1200, "a", 18000], "trial": 0, "serialpos": 1, "trial_type": "single-audio", "trial_index": 22, "time_elapsed": 111001, "internal_node_id": "0.0-13.0"}}, {"uniqueid": "MTK0084:3018Q3ZVOJXOHB3TVDFC5XX5GAHARF", "current_trial": 23, "dateTime": 1509133910288, "trialdata": {"rt": -1000, "stimulus": "/static/audio/wordpool/HEART.wav", "key_press": -1, "type": "PRES_AUD", "word": "heart", "wordID": 696, "conditions": [18, 1200, "a", 18000], "trial": 0, "serialpos": 2, "trial_type": "single-audio", "trial_index": 23, "time_elapsed": 113373, "internal_node_id": "0.0-14.0"}}, {"uniqueid": "MTK0084:3018Q3ZVOJXOHB3TVDFC5XX5GAHARF", "current_trial": 24, "dateTime": 1509133912460, "trialdata": {"rt": -1000, "stimulus": "/static/audio/wordpool/CONCERT.wav", "key_press": -1, "type": "PRES_AUD", "word": "concert", "wordID": 359, "conditions": [18, 1200, "a", 18000], "trial": 0, "serialpos": 3, "trial_type": "single-audio", "trial_index": 24, "time_elapsed": 115545, "internal_node_id": "0.0-15.0"}}, {"uniqueid": "MTK0084:3018Q3ZVOJXOHB3TVDFC5XX5GAHARF", "current_trial": 25, "dateTime": 1509133914782, "trialdata": {"rt": -1000, "stimulus": "/static/audio/wordpool/BEAST.wav", "key_press": -1, "type": "PRES_AUD", "word": "beast", "wordID": 107, "conditions": [18, 1200, "a", 18000], "trial": 0, "serialpos": 4, "trial_type": "single-audio", "trial_index": 25, "time_elapsed": 117866, "internal_node_id": "0.0-16.0"}}, {"uniqueid": "MTK0084:3018Q3ZVOJXOHB3TVDFC5XX5GAHARF", "current_trial": 26, "dateTime": 1509133916906, "trialdata": {"rt": -1000, "stimulus": "/static/audio/wordpool/FUNGUS.wav", "key_press": -1, "type": "PRES_AUD", "word": "fungus", "wordID": 613, "conditions": [18, 1200, "a", 18000], "trial": 0, "serialpos": 5, "trial_type": "single-audio", "trial_index": 26, "time_elapsed": 119991, "internal_node_id": "0.0-17.0"}}, {"uniqueid": "MTK0084:3018Q3ZVOJXOHB3TVDFC5XX5GAHARF", "current_trial": 27, "dateTime": 1509133918990, "trialdata": {"rt": -1000, "stimulus": "/static/audio/wordpool/DRUG.wav", "key_press": -1, "type": "PRES_AUD", "word": "drug", "wordID": 500, "conditions": [18, 1200, "a", 18000], "trial": 0, "serialpos": 6, "trial_type": "single-audio", "trial_index": 27, "time_elapsed": 122075, "internal_node_id": "0.0-18.0"}}, {"uniqueid": "MTK0084:3018Q3ZVOJXOHB3TVDFC5XX5GAHARF", "current_trial": 28, "dateTime": 1509133921040, "trialdata": {"rt": -1000, "stimulus": "/static/audio/wordpool/MAILMAN.wav", "key_press": -1, "type": "PRES_AUD", "word": "mailman", "wordID": 857, "conditions": [18, 1200, "a", 18000], "trial": 0, "serialpos": 7, "trial_type": "single-audio", "trial_index": 28, "time_elapsed": 124125, "internal_node_id": "0.0-19.0"}}, {"uniqueid": "MTK0084:3018Q3ZVOJXOHB3TVDFC5XX5GAHARF", "current_trial": 29, "dateTime": 1509133923408, "trialdata": {"rt": -1000, "stimulus": "/static/audio/wordpool/TUNNEL.wav", "key_press": -1, "type": "PRES_AUD", "word": "tunnel", "wordID": 1518, "conditions": [18, 1200, "a", 18000], "trial": 0, "serialpos": 8, "trial_type": "single-audio", "trial_index": 29, "time_elapsed": 126493, "internal_node_id": "0.0-20.0"}}, {"uniqueid": "MTK0084:3018Q3ZVOJXOHB3TVDFC5XX5GAHARF", "current_trial": 30, "dateTime": 1509133925606, "trialdata": {"rt": -1000, "stimulus": "/static/audio/wordpool/ARM.wav", "key_press": -1, "type": "PRES_AUD", "word": "arm", "wordID": 37, "conditions": [18, 1200, "a", 18000], "trial": 0, "serialpos": 9, "trial_type": "single-audio", "trial_index": 30, "time_elapsed": 128691, "internal_node_id": "0.0-21.0"}}, {"uniqueid": "MTK0084:3018Q3ZVOJXOHB3TVDFC5XX5GAHARF", "current_trial": 31, "dateTime": 1509133927662, "trialdata": {"rt": -1000, "stimulus": "/static/audio/wordpool/ACTOR.wav", "key_press": -1, "type": "PRES_AUD", "word": "actor", "wordID": 4, "conditions": [18, 1200, "a", 18000], "trial": 0, "serialpos": 10, "trial_type": "single-audio", "trial_index": 31, "time_elapsed": 130747, "internal_node_id": "0.0-22.0"}}, {"uniqueid": "MTK0084:3018Q3ZVOJXOHB3TVDFC5XX5GAHARF", "current_trial": 32, "dateTime": 1509133929886, "trialdata": {"rt": -1000, "stimulus": "/static/audio/wordpool/SUITCASE.wav", "key_press": -1, "type": "PRES_AUD", "word": "suitcase", "wordID": 1402, "conditions": [18, 1200, "a", 18000], "trial": 0, "serialpos": 11, "trial_type": "single-audio", "trial_index": 32, "time_elapsed": 132971, "internal_node_id": "0.0-23.0"}}, {"uniqueid": "MTK0084:3018Q3ZVOJXOHB3TVDFC5XX5GAHARF", "current_trial": 33, "dateTime": 1509133931993, "trialdata": {"rt": -1000, "stimulus": "/static/audio/wordpool/POCKET.wav", "key_press": -1, "type": "PRES_AUD", "word": "pocket", "wordID": 1092, "conditions": [18, 1200, "a", 18000], "trial": 0, "serialpos": 12, "trial_type": "single-audio", "trial_index": 33, "time_elapsed": 135078, "internal_node_id": "0.0-24.0"}}, {"uniqueid": "MTK0084:3018Q3ZVOJXOHB3TVDFC5XX5GAHARF", "current_trial": 34, "dateTime": 1509133934231, "trialdata": {"rt": -1000, "stimulus": "/static/audio/wordpool/CUPBOARD.wav", "key_press": -1, "type": "PRES_AUD", "word": "cupboard", "wordID": 424, "conditions": [18, 1200, "a", 18000], "trial": 0, "serialpos": 13, "trial_type": "single-audio", "trial_index": 34, "time_elapsed": 137316, "internal_node_id": "0.0-25.0"}}, {"uniqueid": "MTK0084:3018Q3ZVOJXOHB3TVDFC5XX5GAHARF", "current_trial": 35, "dateTime": 1509133936349, "trialdata": {"rt": -1000, "stimulus": "/static/audio/wordpool/SHELTER.wav", "key_press": -1, "type": "PRES_AUD", "word": "shelter", "wordID": 1281, "conditions": [18, 1200, "a", 18000], "trial": 0, "serialpos": 14, "trial_type": "single-audio", "trial_index": 35, "time_elapsed": 139434, "internal_node_id": "0.0-26.0"}}, {"uniqueid": "MTK0084:3018Q3ZVOJXOHB3TVDFC5XX5GAHARF", "current_trial": 36, "dateTime": 1509133938469, "trialdata": {"rt": -1000, "stimulus": "/static/audio/wordpool/FLASHLIGHT.wav", "key_press": -1, "type": "PRES_AUD", "word": "flashlight", "wordID": 574, "conditions": [18, 1200, "a", 18000], "trial": 0, "serialpos": 15, "trial_type": "single-audio", "trial_index": 36, "time_elapsed": 141554, "internal_node_id": "0.0-27.0"}}, {"uniqueid": "MTK0084:3018Q3ZVOJXOHB3TVDFC5XX5GAHARF", "current_trial": 37, "dateTime": 1509133940836, "trialdata": {"rt": -1000, "stimulus": "/static/audio/wordpool/MONSTER.wav", "key_press": -1, "type": "PRES_AUD", "word": "monster", "wordID": 911, "conditions": [18, 1200, "a", 18000], "trial": 0, "serialpos": 16, "trial_type": "single-audio", "trial_index": 37, "time_elapsed": 143921, "internal_node_id": "0.0-28.0"}}, {"uniqueid": "MTK0084:3018Q3ZVOJXOHB3TVDFC5XX5GAHARF", "current_trial": 38, "dateTime": 1509133942862, "trialdata": {"rt": -1000, "stimulus": "/static/audio/wordpool/FOREST.wav", "key_press": -1, "type": "PRES_AUD", "word": "forest", "wordID": 592, "conditions": [18, 1200, "a", 18000], "trial": 0, "serialpos": 17, "trial_type": "single-audio", "trial_index": 38, "time_elapsed": 145947, "internal_node_id": "0.0-29.0"}}, {"uniqueid": "MTK0084:3018Q3ZVOJXOHB3TVDFC5XX5GAHARF", "current_trial": 39, "dateTime": 1509133944098, "trialdata": {"rt": -1, "stimulus": "", "key_press": -1, "type": "PRE_RECALL_DELAY", "trial_type": "single-stim", "trial_index": 39, "time_elapsed": 147183, "internal_node_id": "0.0-30.0-0.0"}}, {"uniqueid": "MTK0084:3018Q3ZVOJXOHB3TVDFC5XX5GAHARF", "current_trial": 40, "dateTime": 1509133944600, "trialdata": {"rt": -1000, "stimulus": "/static/audio/400Hz.wav", "key_press": -1, "type": "PRE_RECALL_ALERT", "trial_type": "single-audio", "trial_index": 40, "time_elapsed": 147685, "internal_node_id": "0.0-31.0"}}], "questiondata": {}, "eventdata": [{"eventtype": "initialized", "value": null, "timestamp": 1509133786152, "interval": 0}, {"eventtype": "window_resize", "value": [961, 752], "timestamp": 1509133786153, "interval": 1}, {"eventtype": "focus", "value": "on", "timestamp": 1509133796978, "interval": 10825}, {"eventtype": "window_resize", "value": [1067, 835], "timestamp": 1509133800399, "interval": 3421}, {"eventtype": "focus", "value": "off", "timestamp": 1509133818988, "interval": 18589}, {"eventtype": "focus", "value": "on", "timestamp": 1509133820604, "interval": 1616}, {"eventtype": "focus", "value": "off", "timestamp": 1509133825941, "interval": 5337}, {"eventtype": "focus", "value": "on", "timestamp": 1509133829803, "interval": 3862}, {"eventtype": "focus", "value": "off", "timestamp": 1509133837560, "interval": 7757}, {"eventtype": "focus", "value": "on", "timestamp": 1509133843289, "interval": 5729}, {"eventtype": "focus", "value": "off", "timestamp": 1509133888242, "interval": 44953}, {"eventtype": "focus", "value": "on", "timestamp": 1509133891405, "interval": 3163}, {"eventtype": "focus", "value": "off", "timestamp": 1509133908592, "interval": 17187}, {"eventtype": "focus", "value": "on", "timestamp": 1509133918798, "interval": 10206}, {"eventtype": "focus", "value": "off", "timestamp": 1509133919488, "interval": 690}, {"eventtype": "focus", "value": "on", "timestamp": 1509133931109, "interval": 11621}, {"eventtype": "focus", "value": "off", "timestamp": 1509133931115, "interval": 6}, {"eventtype": "focus", "value": "on", "timestamp": 1509133946341, "interval": 15226}, {"eventtype": "focus", "value": "off", "timestamp": 1509133959692, "interval": 13351}, {"eventtype": "focus", "value": "on", "timestamp": 1509133970324, "interval": 10632}, {"eventtype": "focus", "value": "off", "timestamp": 1509133973160, "interval": 2836}, {"eventtype": "focus", "value": "on", "timestamp": 1509133988167, "interval": 15007}, {"eventtype": "focus", "value": "off", "timestamp": 1509133992008, "interval": 3841}], "useragent": "Mozilla/5.0 (Windows NT 6.3; Win64; x64) AppleWebKit/537.36 (KHTML, like Gecko) Chrome/61.0.3163.100 Safari/537.36", "mode": "live"}