{"condition": 0, "counterbalance": 910, "assignmentId": "3NJM2BJS4XDRYDKC2Z7E6XNEHJECP5", "workerId": "MTK0392", "hitId": "39AYGO6AFFR0SR14MRCHROUP7WR6N3", "currenttrial": 592, "bonus": 0, "data": [{"uniqueid": "MTK0392:3NJM2BJS4XDRYDKC2Z7E6XNEHJECP5", "current_trial": 0, "dateTime": 1510780373567, "trialdata": {"rt": 5430, "key_press": 32, "type": "INSTRUCTIONS", "trial_type": "text", "trial_index": 0, "time_elapsed": 5434, "internal_node_id": "0.0-0.0"}}, {"uniqueid": "MTK0392:3NJM2BJS4XDRYDKC2Z7E6XNEHJECP5", "current_trial": 1, "dateTime": 1510780417365, "trialdata": {"rt": 43795, "key_press": 32, "type": "INSTRUCTIONS", "trial_type": "text", "trial_index": 1, "time_elapsed": 49233, "internal_node_id": "0.0-1.0"}}, {"uniqueid": "MTK0392:3NJM2BJS4XDRYDKC2Z7E6XNEHJECP5", "current_trial": 2, "dateTime": 1510780427437, "trialdata": {"rt": [10018], "responses": ["ocean"], "type": "AUDIO_TEST", "trial_type": "audio-test", "trial_index": 2, "time_elapsed": 59305, "internal_node_id": "0.0-2.0"}}, {"uniqueid": "MTK0392:3NJM2BJS4XDRYDKC2Z7E6XNEHJECP5", "current_trial": 3, "dateTime": 1510780438085, "trialdata": {"rt": [10636], "responses": ["crystal"], "type": "AUDIO_TEST", "trial_type": "audio-test", "trial_index": 3, "time_elapsed": 69954, "internal_node_id": "0.0-3.0"}}, {"uniqueid": "MTK0392:3NJM2BJS4XDRYDKC2Z7E6XNEHJECP5", "current_trial": 4, "dateTime": 1510780446738, "trialdata": {"rt": [8642], "responses": ["spice"], "type": "AUDIO_TEST", "trial_type": "audio-test", "trial_index": 4, "time_elapsed": 78607, "internal_node_id": "0.0-4.0"}}, {"uniqueid": "MTK0392:3NJM2BJS4XDRYDKC2Z7E6XNEHJECP5", "current_trial": 5, "dateTime": 1510780472929, "trialdata": {"rt": 25436, "responses": "{\"Q0\":\"1 am\",\"Q1\":\"9 am\",\"Q2\":\"4\"}", "type": "SLEEP_SURVEY", "trial_type": "survey-text", "trial_index": 5, "time_elapsed": 104798, "internal_node_id": "0.0-5.0"}}, {"uniqueid": "MTK0392:3NJM2BJS4XDRYDKC2Z7E6XNEHJECP5", "current_trial": 6, "dateTime": 1510780500757, "trialdata": {"rt": 26823, "key_press": 32, "type": "INSTRUCTIONS", "trial_type": "text", "trial_index": 6, "time_elapsed": 132625, "internal_node_id": "0.0-6.0"}}, {"uniqueid": "MTK0392:3NJM2BJS4XDRYDKC2Z7E6XNEHJECP5", "current_trial": 7, "dateTime": 1510780515865, "trialdata": {"rt": 14606, "key_press": 32, "type": "INSTRUCTIONS", "trial_type": "text", "trial_index": 7, "time_elapsed": 147734, "internal_node_id": "0.0-7.0"}}, {"uniqueid": "MTK0392:3NJM2BJS4XDRYDKC2Z7E6XNEHJECP5", "current_trial": 8, "dateTime": 1510780534295, "trialdata": {"rt": 17927, "key_press": 32, "type": "INSTRUCTIONS", "trial_type": "text", "trial_index": 8, "time_elapsed": 166163, "internal_node_id": "0.0-8.0"}}, {"uniqueid": "MTK0392:3NJM2BJS4XDRYDKC2Z7E6XNEHJECP5", "current_trial": 9, "dateTime": 1510780553306, "trialdata": {"rt": [7450, 9646, 12223, 14090, 16085, 17976], "responses": ["18", "14", "15", "18", "14", "13"], "num1": [6, 5, 2, 1, 4, 9, 7], "num2": [8, 1, 4, 8, 1, 1, 6], "num3": [4, 8, 9, 9, 9, 3, 3], "type": "DISTRACTOR", "conditions": [18, 1200, "v", 18000], "trial": 0, "trial_type": "math-distractor", "trial_index": 9, "time_elapsed": 185175, "internal_node_id": "0.0-9.0"}}, {"uniqueid": "MTK0392:3NJM2BJS4XDRYDKC2Z7E6XNEHJECP5", "current_trial": 10, "dateTime": 1510780556310, "trialdata": {"rt": -1, "stimulus": "<p id=\"stim\">10</p>", "key_press": -1, "trial_type": "single-stim", "trial_index": 10, "time_elapsed": 188179, "internal_node_id": "0.0-10.0-0.0"}}, {"uniqueid": "MTK0392:3NJM2BJS4XDRYDKC2Z7E6XNEHJECP5", "current_trial": 11, "dateTime": 1510780557311, "trialdata": {"rt": -1, "stimulus": "<p id=\"stim\">9</p>", "key_press": -1, "trial_type": "single-stim", "trial_index": 11, "time_elapsed": 189180, "internal_node_id": "0.0-10.0-1.0"}}, {"uniqueid": "MTK0392:3NJM2BJS4XDRYDKC2Z7E6XNEHJECP5", "current_trial": 12, "dateTime": 1510780558312, "trialdata": {"rt": -1, "stimulus": "<p id=\"stim\">8</p>", "key_press": -1, "trial_type": "single-stim", "trial_index": 12, "time_elapsed": 190180, "internal_node_id": "0.0-10.0-2.0"}}, {"uniqueid": "MTK0392:3NJM2BJS4XDRYDKC2Z7E6XNEHJECP5", "current_trial": 13, "dateTime": 1510780559314, "trialdata": {"rt": -1, "stimulus": "<p id=\"stim\">7</p>", "key_press": -1, "trial_type": "single-stim", "trial_index": 13, "time_elapsed": 191182, "internal_node_id": "0.0-10.0-3.0"}}, {"uniqueid": "MTK0392:3NJM2BJS4XDRYDKC2Z7E6XNEHJECP5", "current_trial": 14, "dateTime": 1510780560315, "trialdata": {"rt": -1, "stimulus": "<p id=\"stim\">6</p>", "key_press": -1, "trial_type": "single-stim", "trial_index": 14, "time_elapsed": 192184, "internal_node_id": "0.0-10.0-4.0"}}, {"uniqueid": "MTK0392:3NJM2BJS4XDRYDKC2Z7E6XNEHJECP5", "current_trial": 15, "dateTime": 1510780561316, "trialdata": {"rt": -1, "stimulus": "<p id=\"stim\">5</p>", "key_press": -1, "trial_type": "single-stim", "trial_index": 15, "time_elapsed": 193185, "internal_node_id": "0.0-10.0-5.0"}}, {"uniqueid": "MTK0392:3NJM2BJS4XDRYDKC2Z7E6XNEHJECP5", "current_trial": 16, "dateTime": 1510780562317, "trialdata": {"rt": -1, "stimulus": "<p id=\"stim\">4</p>", "key_press": -1, "trial_type": "single-stim", "trial_index": 16, "time_elapsed": 194186, "internal_node_id": "0.0-10.0-6.0"}}, {"uniqueid": "MTK0392:3NJM2BJS4XDRYDKC2Z7E6XNEHJECP5", "current_trial": 17, "dateTime": 1510780563318, "trialdata": {"rt": -1, "stimulus": "<p id=\"stim\">3</p>", "key_press": -1, "trial_type": "single-stim", "trial_index": 17, "time_elapsed": 195187, "internal_node_id": "0.0-10.0-7.0"}}, {"uniqueid": "MTK0392:3NJM2BJS4XDRYDKC2Z7E6XNEHJECP5", "current_trial": 18, "dateTime": 1510780564319, "trialdata": {"rt": -1, "stimulus": "<p id=\"stim\">2</p>", "key_press": -1, "trial_type": "single-stim", "trial_index": 18, "time_elapsed": 196188, "internal_node_id": "0.0-10.0-8.0"}}, {"uniqueid": "MTK0392:3NJM2BJS4XDRYDKC2Z7E6XNEHJECP5", "current_trial": 19, "dateTime": 1510780565321, "trialdata": {"rt": -1, "stimulus": "<p id=\"stim\">1</p>", "key_press": -1, "trial_type": "single-stim", "trial_index": 19, "time_elapsed": 197190, "internal_node_id": "0.0-10.0-9.0"}}, {"uniqueid": "MTK0392:3NJM2BJS4XDRYDKC2Z7E6XNEHJECP5", "current_trial": 20, "dateTime": 1510780566823, "trialdata": {"rt": -1, "stimulus": "<p id=\"stim\">+</p>", "key_press": -1, "type": "FIXATION", "trial_type": "single-stim", "trial_index": 20, "time_elapsed": 198692, "internal_node_id": "0.0-11.0-0.0"}}, {"uniqueid": "MTK0392:3NJM2BJS4XDRYDKC2Z7E6XNEHJECP5", "current_trial": 21, "dateTime": 1510780568025, "trialdata": {"rt": -1, "stimulus": "<p id=\"stim\">LUMBER</p>", "key_press": -1, "type": "PRES_VIS", "word": "lumber", "wordID": 847, "conditions": [18, 1200, "v", 18000], "trial": 0, "serialpos": 0, "trial_type": "single-stim", "trial_index": 21, "time_elapsed": 199893, "internal_node_id": "0.0-12.0"}}, {"uniqueid": "MTK0392:3NJM2BJS4XDRYDKC2Z7E6XNEHJECP5", "current_trial": 22, "dateTime": 1510780570306, "trialdata": {"rt": -1, "stimulus": "<p id=\"stim\">CYCLONE</p>", "key_press": -1, "type": "PRES_VIS", "word": "cyclone", "wordID": 430, "conditions": [18, 1200, "v", 18000], "trial": 0, "serialpos": 1, "trial_type": "single-stim", "trial_index": 22, "time_elapsed": 202174, "internal_node_id": "0.0-13.0"}}, {"uniqueid": "MTK0392:3NJM2BJS4XDRYDKC2Z7E6XNEHJECP5", "current_trial": 23, "dateTime": 1510780572569, "trialdata": {"rt": -1, "stimulus": "<p id=\"stim\">MACHINE</p>", "key_press": -1, "type": "PRES_VIS", "word": "machine", "wordID": 851, "conditions": [18, 1200, "v", 18000], "trial": 0, "serialpos": 2, "trial_type": "single-stim", "trial_index": 23, "time_elapsed": 204437, "internal_node_id": "0.0-14.0"}}, {"uniqueid": "MTK0392:3NJM2BJS4XDRYDKC2Z7E6XNEHJECP5", "current_trial": 24, "dateTime": 1510780574601, "trialdata": {"rt": -1, "stimulus": "<p id=\"stim\">LAKE</p>", "key_press": -1, "type": "PRES_VIS", "word": "lake", "wordID": 795, "conditions": [18, 1200, "v", 18000], "trial": 0, "serialpos": 3, "trial_type": "single-stim", "trial_index": 24, "time_elapsed": 206470, "internal_node_id": "0.0-15.0"}}, {"uniqueid": "MTK0392:3NJM2BJS4XDRYDKC2Z7E6XNEHJECP5", "current_trial": 25, "dateTime": 1510780576785, "trialdata": {"rt": -1, "stimulus": "<p id=\"stim\">COCKTAIL</p>", "key_press": -1, "type": "PRES_VIS", "word": "cocktail", "wordID": 337, "conditions": [18, 1200, "v", 18000], "trial": 0, "serialpos": 4, "trial_type": "single-stim", "trial_index": 25, "time_elapsed": 208654, "internal_node_id": "0.0-16.0"}}, {"uniqueid": "MTK0392:3NJM2BJS4XDRYDKC2Z7E6XNEHJECP5", "current_trial": 26, "dateTime": 1510780579050, "trialdata": {"rt": -1, "stimulus": "<p id=\"stim\">SPARROW</p>", "key_press": -1, "type": "PRES_VIS", "word": "sparrow", "wordID": 1346, "conditions": [18, 1200, "v", 18000], "trial": 0, "serialpos": 5, "trial_type": "single-stim", "trial_index": 26, "time_elapsed": 210918, "internal_node_id": "0.0-17.0"}}, {"uniqueid": "MTK0392:3NJM2BJS4XDRYDKC2Z7E6XNEHJECP5", "current_trial": 27, "dateTime": 1510780581399, "trialdata": {"rt": -1, "stimulus": "<p id=\"stim\">LAVA</p>", "key_press": -1, "type": "PRES_VIS", "word": "lava", "wordID": 803, "conditions": [18, 1200, "v", 18000], "trial": 0, "serialpos": 6, "trial_type": "single-stim", "trial_index": 27, "time_elapsed": 213267, "internal_node_id": "0.0-18.0"}}, {"uniqueid": "MTK0392:3NJM2BJS4XDRYDKC2Z7E6XNEHJECP5", "current_trial": 28, "dateTime": 1510780583813, "trialdata": {"rt": -1, "stimulus": "<p id=\"stim\">DRAWING</p>", "key_press": -1, "type": "PRES_VIS", "word": "drawing", "wordID": 493, "conditions": [18, 1200, "v", 18000], "trial": 0, "serialpos": 7, "trial_type": "single-stim", "trial_index": 28, "time_elapsed": 215681, "internal_node_id": "0.0-19.0"}}, {"uniqueid": "MTK0392:3NJM2BJS4XDRYDKC2Z7E6XNEHJECP5", "current_trial": 29, "dateTime": 1510780585950, "trialdata": {"rt": -1, "stimulus": "<p id=\"stim\">KLEENEX</p>", "key_press": -1, "type": "PRES_VIS", "word": "kleenex", "wordID": 781, "conditions": [18, 1200, "v", 18000], "trial": 0, "serialpos": 8, "trial_type": "single-stim", "trial_index": 29, "time_elapsed": 217819, "internal_node_id": "0.0-20.0"}}, {"uniqueid": "MTK0392:3NJM2BJS4XDRYDKC2Z7E6XNEHJECP5", "current_trial": 30, "dateTime": 1510780588299, "trialdata": {"rt": -1, "stimulus": "<p id=\"stim\">RECORD</p>", "key_press": -1, "type": "PRES_VIS", "word": "record", "wordID": 1175, "conditions": [18, 1200, "v", 18000], "trial": 0, "serialpos": 9, "trial_type": "single-stim", "trial_index": 30, "time_elapsed": 220168, "internal_node_id": "0.0-21.0"}}, {"uniqueid": "MTK0392:3NJM2BJS4XDRYDKC2Z7E6XNEHJECP5", "current_trial": 31, "dateTime": 1510780590340, "trialdata": {"rt": -1, "stimulus": "<p id=\"stim\">ANTLER</p>", "key_press": -1, "type": "PRES_VIS", "word": "antler", "wordID": 28, "conditions": [18, 1200, "v", 18000], "trial": 0, "serialpos": 10, "trial_type": "single-stim", "trial_index": 31, "time_elapsed": 222209, "internal_node_id": "0.0-22.0"}}, {"uniqueid": "MTK0392:3NJM2BJS4XDRYDKC2Z7E6XNEHJECP5", "current_trial": 32, "dateTime": 1510780592387, "trialdata": {"rt": -1, "stimulus": "<p id=\"stim\">POCKET</p>", "key_press": -1, "type": "PRES_VIS", "word": "pocket", "wordID": 1092, "conditions": [18, 1200, "v", 18000], "trial": 0, "serialpos": 11, "trial_type": "single-stim", "trial_index": 32, "time_elapsed": 224256, "internal_node_id": "0.0-23.0"}}, {"uniqueid": "MTK0392:3NJM2BJS4XDRYDKC2Z7E6XNEHJECP5", "current_trial": 33, "dateTime": 1510780594753, "trialdata": {"rt": -1, "stimulus": "<p id=\"stim\">SEAFOOD</p>", "key_press": -1, "type": "PRES_VIS", "word": "seafood", "wordID": 1259, "conditions": [18, 1200, "v", 18000], "trial": 0, "serialpos": 12, "trial_type": "single-stim", "trial_index": 33, "time_elapsed": 226622, "internal_node_id": "0.0-24.0"}}, {"uniqueid": "MTK0392:3NJM2BJS4XDRYDKC2Z7E6XNEHJECP5", "current_trial": 34, "dateTime": 1510780597061, "trialdata": {"rt": -1, "stimulus": "<p id=\"stim\">FRANCE</p>", "key_press": -1, "type": "PRES_VIS", "word": "france", "wordID": 600, "conditions": [18, 1200, "v", 18000], "trial": 0, "serialpos": 13, "trial_type": "single-stim", "trial_index": 34, "time_elapsed": 228929, "internal_node_id": "0.0-25.0"}}, {"uniqueid": "MTK0392:3NJM2BJS4XDRYDKC2Z7E6XNEHJECP5", "current_trial": 35, "dateTime": 1510780599200, "trialdata": {"rt": -1, "stimulus": "<p id=\"stim\">REBEL</p>", "key_press": -1, "type": "PRES_VIS", "word": "rebel", "wordID": 1171, "conditions": [18, 1200, "v", 18000], "trial": 0, "serialpos": 14, "trial_type": "single-stim", "trial_index": 35, "time_elapsed": 231068, "internal_node_id": "0.0-26.0"}}, {"uniqueid": "MTK0392:3NJM2BJS4XDRYDKC2Z7E6XNEHJECP5", "current_trial": 36, "dateTime": 1510780601572, "trialdata": {"rt": -1, "stimulus": "<p id=\"stim\">BUG</p>", "key_press": -1, "type": "PRES_VIS", "word": "bug", "wordID": 186, "conditions": [18, 1200, "v", 18000], "trial": 0, "serialpos": 15, "trial_type": "single-stim", "trial_index": 36, "time_elapsed": 233441, "internal_node_id": "0.0-27.0"}}, {"uniqueid": "MTK0392:3NJM2BJS4XDRYDKC2Z7E6XNEHJECP5", "current_trial": 37, "dateTime": 1510780603629, "trialdata": {"rt": -1, "stimulus": "<p id=\"stim\">BROOK</p>", "key_press": -1, "type": "PRES_VIS", "word": "brook", "wordID": 176, "conditions": [18, 1200, "v", 18000], "trial": 0, "serialpos": 16, "trial_type": "single-stim", "trial_index": 37, "time_elapsed": 235498, "internal_node_id": "0.0-28.0"}}, {"uniqueid": "MTK0392:3NJM2BJS4XDRYDKC2Z7E6XNEHJECP5", "current_trial": 38, "dateTime": 1510780605716, "trialdata": {"rt": -1, "stimulus": "<p id=\"stim\">CHEST</p>", "key_press": -1, "type": "PRES_VIS", "word": "chest", "wordID": 294, "conditions": [18, 1200, "v", 18000], "trial": 0, "serialpos": 17, "trial_type": "single-stim", "trial_index": 38, "time_elapsed": 237585, "internal_node_id": "0.0-29.0"}}, {"uniqueid": "MTK0392:3NJM2BJS4XDRYDKC2Z7E6XNEHJECP5", "current_trial": 39, "dateTime": 1510780607783, "trialdata": {"rt": -1, "stimulus": "", "key_press": -1, "type": "PRE_RECALL_DELAY", "trial_type": "single-stim", "trial_index": 39, "time_elapsed": 239652, "internal_node_id": "0.0-30.0-0.0"}}, {"uniqueid": "MTK0392:3NJM2BJS4XDRYDKC2Z7E6XNEHJECP5", "current_trial": 40, "dateTime": 1510780608286, "trialdata": {"rt": -1000, "stimulus": "/static/audio/400Hz.wav", "key_press": -1, "type": "PRE_RECALL_ALERT", "trial_type": "single-audio", "trial_index": 40, "time_elapsed": 240155, "internal_node_id": "0.0-31.0"}}, {"uniqueid": "MTK0392:3NJM2BJS4XDRYDKC2Z7E6XNEHJECP5", "current_trial": 41, "dateTime": 1510780668293, "trialdata": {"rt": [2850, 4138, 4642, 6215, 10206, 18360, 33939, 44630], "recwords": ["brook", "chest", "", "antler", "cocktail", "wave", "lumber", ""], "type": "FREE_RECALL", "conditions": [18, 1200, "v", 18000], "trial": 0, "trial_type": "free-recall", "trial_index": 41, "time_elapsed": 300158, "internal_node_id": "0.0-32.0-0.0"}}, {"uniqueid": "MTK0392:3NJM2BJS4XDRYDKC2Z7E6XNEHJECP5", "current_trial": 42, "dateTime": 1510780678032, "trialdata": {"rt": 7738, "key_press": 32, "type": "INSTRUCTIONS", "trial_type": "text", "trial_index": 42, "time_elapsed": 309901, "internal_node_id": "0.0-33.0"}}, {"uniqueid": "MTK0392:3NJM2BJS4XDRYDKC2Z7E6XNEHJECP5", "current_trial": 43, "dateTime": 1510780698040, "trialdata": {"rt": [3043, 5702, 8278, 10748, 12845, 15534, 17773], "responses": ["11", "9", "12", "12", "7", "24", "17"], "num1": [5, 2, 4, 1, 2, 6, 1, 2], "num2": [2, 5, 2, 2, 2, 9, 9, 8], "num3": [4, 2, 6, 9, 3, 9, 7, 8], "type": "DISTRACTOR", "conditions": [18, 1200, "a", 18000], "trial": 1, "trial_type": "math-distractor", "trial_index": 43, "time_elapsed": 329909, "internal_node_id": "0.0-34.0"}}, {"uniqueid": "MTK0392:3NJM2BJS4XDRYDKC2Z7E6XNEHJECP5", "current_trial": 44, "dateTime": 1510780701042, "trialdata": {"rt": -1, "stimulus": "<p id=\"stim\">10</p>", "key_press": -1, "trial_type": "single-stim", "trial_index": 44, "time_elapsed": 332911, "internal_node_id": "0.0-35.0-0.0"}}, {"uniqueid": "MTK0392:3NJM2BJS4XDRYDKC2Z7E6XNEHJECP5", "current_trial": 45, "dateTime": 1510780702043, "trialdata": {"rt": -1, "stimulus": "<p id=\"stim\">9</p>", "key_press": -1, "trial_type": "single-stim", "trial_index": 45, "time_elapsed": 333912, "internal_node_id": "0.0-35.0-1.0"}}, {"uniqueid": "MTK0392:3NJM2BJS4XDRYDKC2Z7E6XNEHJECP5", "current_trial": 46, "dateTime": 1510780703045, "trialdata": {"rt": -1, "stimulus": "<p id=\"stim\">8</p>", "key_press": -1, "trial_type": "single-stim", "trial_index": 46, "time_elapsed": 334913, "internal_node_id": "0.0-35.0-2.0"}}, {"uniqueid": "MTK0392:3NJM2BJS4XDRYDKC2Z7E6XNEHJECP5", "current_trial": 47, "dateTime": 1510780704047, "trialdata": {"rt": -1, "stimulus": "<p id=\"stim\">7</p>", "key_press": -1, "trial_type": "single-stim", "trial_index": 47, "time_elapsed": 335916, "internal_node_id": "0.0-35.0-3.0"}}, {"uniqueid": "MTK0392:3NJM2BJS4XDRYDKC2Z7E6XNEHJECP5", "current_trial": 48, "dateTime": 1510780705051, "trialdata": {"rt": -1, "stimulus": "<p id=\"stim\">6</p>", "key_press": -1, "trial_type": "single-stim", "trial_index": 48, "time_elapsed": 336919, "internal_node_id": "0.0-35.0-4.0"}}, {"uniqueid": "MTK0392:3NJM2BJS4XDRYDKC2Z7E6XNEHJECP5", "current_trial": 49, "dateTime": 1510780706054, "trialdata": {"rt": -1, "stimulus": "<p id=\"stim\">5</p>", "key_press": -1, "trial_type": "single-stim", "trial_index": 49, "time_elapsed": 337923, "internal_node_id": "0.0-35.0-5.0"}}, {"uniqueid": "MTK0392:3NJM2BJS4XDRYDKC2Z7E6XNEHJECP5", "current_trial": 50, "dateTime": 1510780707057, "trialdata": {"rt": -1, "stimulus": "<p id=\"stim\">4</p>", "key_press": -1, "trial_type": "single-stim", "trial_index": 50, "time_elapsed": 338925, "internal_node_id": "0.0-35.0-6.0"}}, {"uniqueid": "MTK0392:3NJM2BJS4XDRYDKC2Z7E6XNEHJECP5", "current_trial": 51, "dateTime": 1510780708060, "trialdata": {"rt": -1, "stimulus": "<p id=\"stim\">3</p>", "key_press": -1, "trial_type": "single-stim", "trial_index": 51, "time_elapsed": 339928, "internal_node_id": "0.0-35.0-7.0"}}, {"uniqueid": "MTK0392:3NJM2BJS4XDRYDKC2Z7E6XNEHJECP5", "current_trial": 52, "dateTime": 1510780709063, "trialdata": {"rt": -1, "stimulus": "<p id=\"stim\">2</p>", "key_press": -1, "trial_type": "single-stim", "trial_index": 52, "time_elapsed": 340931, "internal_node_id": "0.0-35.0-8.0"}}, {"uniqueid": "MTK0392:3NJM2BJS4XDRYDKC2Z7E6XNEHJECP5", "current_trial": 53, "dateTime": 1510780710065, "trialdata": {"rt": -1, "stimulus": "<p id=\"stim\">1</p>", "key_press": -1, "trial_type": "single-stim", "trial_index": 53, "time_elapsed": 341934, "internal_node_id": "0.0-35.0-9.0"}}, {"uniqueid": "MTK0392:3NJM2BJS4XDRYDKC2Z7E6XNEHJECP5", "current_trial": 54, "dateTime": 1510780711567, "trialdata": {"rt": -1, "stimulus": "<p id=\"stim\">+</p>", "key_press": -1, "type": "FIXATION", "trial_type": "single-stim", "trial_index": 54, "time_elapsed": 343435, "internal_node_id": "0.0-36.0-0.0"}}, {"uniqueid": "MTK0392:3NJM2BJS4XDRYDKC2Z7E6XNEHJECP5", "current_trial": 55, "dateTime": 1510780713572, "trialdata": {"rt": -1000, "stimulus": "/static/audio/wordpool/ROBOT.wav", "key_press": -1, "type": "PRES_AUD", "word": "robot", "wordID": 1199, "conditions": [18, 1200, "a", 18000], "trial": 1, "serialpos": 0, "trial_type": "single-audio", "trial_index": 55, "time_elapsed": 345441, "internal_node_id": "0.0-37.0"}}, {"uniqueid": "MTK0392:3NJM2BJS4XDRYDKC2Z7E6XNEHJECP5", "current_trial": 56, "dateTime": 1510780715634, "trialdata": {"rt": -1000, "stimulus": "/static/audio/wordpool/CUSTARD.wav", "key_press": -1, "type": "PRES_AUD", "word": "custard", "wordID": 428, "conditions": [18, 1200, "a", 18000], "trial": 1, "serialpos": 1, "trial_type": "single-audio", "trial_index": 56, "time_elapsed": 347502, "internal_node_id": "0.0-38.0"}}, {"uniqueid": "MTK0392:3NJM2BJS4XDRYDKC2Z7E6XNEHJECP5", "current_trial": 57, "dateTime": 1510780717907, "trialdata": {"rt": -1000, "stimulus": "/static/audio/wordpool/FOX.wav", "key_press": -1, "type": "PRES_AUD", "word": "fox", "wordID": 597, "conditions": [18, 1200, "a", 18000], "trial": 1, "serialpos": 2, "trial_type": "single-audio", "trial_index": 57, "time_elapsed": 349776, "internal_node_id": "0.0-39.0"}}, {"uniqueid": "MTK0392:3NJM2BJS4XDRYDKC2Z7E6XNEHJECP5", "current_trial": 58, "dateTime": 1510780720180, "trialdata": {"rt": -1000, "stimulus": "/static/audio/wordpool/EUROPE.wav", "key_press": -1, "type": "PRES_AUD", "word": "europe", "wordID": 540, "conditions": [18, 1200, "a", 18000], "trial": 1, "serialpos": 3, "trial_type": "single-audio", "trial_index": 58, "time_elapsed": 352048, "internal_node_id": "0.0-40.0"}}, {"uniqueid": "MTK0392:3NJM2BJS4XDRYDKC2Z7E6XNEHJECP5", "current_trial": 59, "dateTime": 1510780722234, "trialdata": {"rt": -1000, "stimulus": "/static/audio/wordpool/OFFICE.wav", "key_press": -1, "type": "PRES_AUD", "word": "office", "wordID": 971, "conditions": [18, 1200, "a", 18000], "trial": 1, "serialpos": 4, "trial_type": "single-audio", "trial_index": 59, "time_elapsed": 354102, "internal_node_id": "0.0-41.0"}}, {"uniqueid": "MTK0392:3NJM2BJS4XDRYDKC2Z7E6XNEHJECP5", "current_trial": 60, "dateTime": 1510780724577, "trialdata": {"rt": -1000, "stimulus": "/static/audio/wordpool/SCARECROW.wav", "key_press": -1, "type": "PRES_AUD", "word": "scarecrow", "wordID": 1244, "conditions": [18, 1200, "a", 18000], "trial": 1, "serialpos": 5, "trial_type": "single-audio", "trial_index": 60, "time_elapsed": 356445, "internal_node_id": "0.0-42.0"}}, {"uniqueid": "MTK0392:3NJM2BJS4XDRYDKC2Z7E6XNEHJECP5", "current_trial": 61, "dateTime": 1510780726641, "trialdata": {"rt": -1000, "stimulus": "/static/audio/wordpool/VALVE.wav", "key_press": -1, "type": "PRES_AUD", "word": "valve", "wordID": 1545, "conditions": [18, 1200, "a", 18000], "trial": 1, "serialpos": 6, "trial_type": "single-audio", "trial_index": 61, "time_elapsed": 358510, "internal_node_id": "0.0-43.0"}}, {"uniqueid": "MTK0392:3NJM2BJS4XDRYDKC2Z7E6XNEHJECP5", "current_trial": 62, "dateTime": 1510780728731, "trialdata": {"rt": -1000, "stimulus": "/static/audio/wordpool/BATHTUB.wav", "key_press": -1, "type": "PRES_AUD", "word": "bathtub", "wordID": 99, "conditions": [18, 1200, "a", 18000], "trial": 1, "serialpos": 7, "trial_type": "single-audio", "trial_index": 62, "time_elapsed": 360600, "internal_node_id": "0.0-44.0"}}, {"uniqueid": "MTK0392:3NJM2BJS4XDRYDKC2Z7E6XNEHJECP5", "current_trial": 63, "dateTime": 1510780730862, "trialdata": {"rt": -1000, "stimulus": "/static/audio/wordpool/COMPASS.wav", "key_press": -1, "type": "PRES_AUD", "word": "compass", "wordID": 357, "conditions": [18, 1200, "a", 18000], "trial": 1, "serialpos": 8, "trial_type": "single-audio", "trial_index": 63, "time_elapsed": 362731, "internal_node_id": "0.0-45.0"}}, {"uniqueid": "MTK0392:3NJM2BJS4XDRYDKC2Z7E6XNEHJECP5", "current_trial": 64, "dateTime": 1510780732969, "trialdata": {"rt": -1000, "stimulus": "/static/audio/wordpool/DAUGHTER.wav", "key_press": -1, "type": "PRES_AUD", "word": "daughter", "wordID": 441, "conditions": [18, 1200, "a", 18000], "trial": 1, "serialpos": 9, "trial_type": "single-audio", "trial_index": 64, "time_elapsed": 364838, "internal_node_id": "0.0-46.0"}}, {"uniqueid": "MTK0392:3NJM2BJS4XDRYDKC2Z7E6XNEHJECP5", "current_trial": 65, "dateTime": 1510780735073, "trialdata": {"rt": -1000, "stimulus": "/static/audio/wordpool/ROBIN.wav", "key_press": -1, "type": "PRES_AUD", "word": "robin", "wordID": 1198, "conditions": [18, 1200, "a", 18000], "trial": 1, "serialpos": 10, "trial_type": "single-audio", "trial_index": 65, "time_elapsed": 366941, "internal_node_id": "0.0-47.0"}}, {"uniqueid": "MTK0392:3NJM2BJS4XDRYDKC2Z7E6XNEHJECP5", "current_trial": 66, "dateTime": 1510780737142, "trialdata": {"rt": -1000, "stimulus": "/static/audio/wordpool/TOMBSTONE.wav", "key_press": -1, "type": "PRES_AUD", "word": "tombstone", "wordID": 1477, "conditions": [18, 1200, "a", 18000], "trial": 1, "serialpos": 11, "trial_type": "single-audio", "trial_index": 66, "time_elapsed": 369011, "internal_node_id": "0.0-48.0"}}, {"uniqueid": "MTK0392:3NJM2BJS4XDRYDKC2Z7E6XNEHJECP5", "current_trial": 67, "dateTime": 1510780739415, "trialdata": {"rt": -1000, "stimulus": "/static/audio/wordpool/SHELTER.wav", "key_press": -1, "type": "PRES_AUD", "word": "shelter", "wordID": 1281, "conditions": [18, 1200, "a", 18000], "trial": 1, "serialpos": 12, "trial_type": "single-audio", "trial_index": 67, "time_elapsed": 371284, "internal_node_id": "0.0-49.0"}}, {"uniqueid": "MTK0392:3NJM2BJS4XDRYDKC2Z7E6XNEHJECP5", "current_trial": 68, "dateTime": 1510780741614, "trialdata": {"rt": -1000, "stimulus": "/static/audio/wordpool/MISSILE.wav", "key_press": -1, "type": "PRES_AUD", "word": "missile", "wordID": 899, "conditions": [18, 1200, "a", 18000], "trial": 1, "serialpos": 13, "trial_type": "single-audio", "trial_index": 68, "time_elapsed": 373483, "internal_node_id": "0.0-50.0"}}, {"uniqueid": "MTK0392:3NJM2BJS4XDRYDKC2Z7E6XNEHJECP5", "current_trial": 69, "dateTime": 1510780743867, "trialdata": {"rt": -1000, "stimulus": "/static/audio/wordpool/MARS.wav", "key_press": -1, "type": "PRES_AUD", "word": "mars", "wordID": 872, "conditions": [18, 1200, "a", 18000], "trial": 1, "serialpos": 14, "trial_type": "single-audio", "trial_index": 69, "time_elapsed": 375736, "internal_node_id": "0.0-51.0"}}, {"uniqueid": "MTK0392:3NJM2BJS4XDRYDKC2Z7E6XNEHJECP5", "current_trial": 70, "dateTime": 1510780746224, "trialdata": {"rt": -1000, "stimulus": "/static/audio/wordpool/BREAST.wav", "key_press": -1, "type": "PRES_AUD", "word": "breast", "wordID": 170, "conditions": [18, 1200, "a", 18000], "trial": 1, "serialpos": 15, "trial_type": "single-audio", "trial_index": 70, "time_elapsed": 378093, "internal_node_id": "0.0-52.0"}}, {"uniqueid": "MTK0392:3NJM2BJS4XDRYDKC2Z7E6XNEHJECP5", "current_trial": 71, "dateTime": 1510780748554, "trialdata": {"rt": -1000, "stimulus": "/static/audio/wordpool/FRAME.wav", "key_press": -1, "type": "PRES_AUD", "word": "frame", "wordID": 599, "conditions": [18, 1200, "a", 18000], "trial": 1, "serialpos": 16, "trial_type": "single-audio", "trial_index": 71, "time_elapsed": 380423, "internal_node_id": "0.0-53.0"}}, {"uniqueid": "MTK0392:3NJM2BJS4XDRYDKC2Z7E6XNEHJECP5", "current_trial": 72, "dateTime": 1510780750761, "trialdata": {"rt": -1000, "stimulus": "/static/audio/wordpool/TREAT.wav", "key_press": -1, "type": "PRES_AUD", "word": "treat", "wordID": 1500, "conditions": [18, 1200, "a", 18000], "trial": 1, "serialpos": 17, "trial_type": "single-audio", "trial_index": 72, "time_elapsed": 382630, "internal_node_id": "0.0-54.0"}}, {"uniqueid": "MTK0392:3NJM2BJS4XDRYDKC2Z7E6XNEHJECP5", "current_trial": 73, "dateTime": 1510780751975, "trialdata": {"rt": -1, "stimulus": "", "key_press": -1, "type": "PRE_RECALL_DELAY", "trial_type": "single-stim", "trial_index": 73, "time_elapsed": 383844, "internal_node_id": "0.0-55.0-0.0"}}, {"uniqueid": "MTK0392:3NJM2BJS4XDRYDKC2Z7E6XNEHJECP5", "current_trial": 74, "dateTime": 1510780752476, "trialdata": {"rt": -1000, "stimulus": "/static/audio/400Hz.wav", "key_press": -1, "type": "PRE_RECALL_ALERT", "trial_type": "single-audio", "trial_index": 74, "time_elapsed": 384345, "internal_node_id": "0.0-56.0"}}, {"uniqueid": "MTK0392:3NJM2BJS4XDRYDKC2Z7E6XNEHJECP5", "current_trial": 75, "dateTime": 1510780812487, "trialdata": {"rt": [7944, 16562, 19206, 22463, 31198, 36710, 45342, 52853], "recwords": ["treat", "breast", "fox", "mars", "europe", "robot", "bath", "office"], "type": "FREE_RECALL", "conditions": [18, 1200, "a", 18000], "trial": 1, "trial_type": "free-recall", "trial_index": 75, "time_elapsed": 444353, "internal_node_id": "0.0-57.0-0.0"}}, {"uniqueid": "MTK0392:3NJM2BJS4XDRYDKC2Z7E6XNEHJECP5", "current_trial": 76, "dateTime": 1510780817972, "trialdata": {"rt": 3474, "key_press": 32, "type": "INSTRUCTIONS", "trial_type": "text", "trial_index": 76, "time_elapsed": 449832, "internal_node_id": "0.0-58.0"}}, {"uniqueid": "MTK0392:3NJM2BJS4XDRYDKC2Z7E6XNEHJECP5", "current_trial": 77, "dateTime": 1510780842979, "trialdata": {"rt": [3695, 6082, 8274, 12782, 14740, 17294, 19562, 23412], "responses": ["16", "13", "16", "17", "10", "20", "17", "20"], "num1": [9, 1, 6, 5, 8, 8, 5, 6, 8], "num2": [5, 6, 6, 8, 1, 5, 6, 7, 3], "num3": [2, 6, 4, 4, 1, 7, 6, 7, 9], "type": "DISTRACTOR", "conditions": [12, 800, "a", 24000], "trial": 2, "trial_type": "math-distractor", "trial_index": 77, "time_elapsed": 474848, "internal_node_id": "0.0-59.0"}}, {"uniqueid": "MTK0392:3NJM2BJS4XDRYDKC2Z7E6XNEHJECP5", "current_trial": 78, "dateTime": 1510780845997, "trialdata": {"rt": -1, "stimulus": "<p id=\"stim\">10</p>", "key_press": -1, "trial_type": "single-stim", "trial_index": 78, "time_elapsed": 477866, "internal_node_id": "0.0-60.0-0.0"}}, {"uniqueid": "MTK0392:3NJM2BJS4XDRYDKC2Z7E6XNEHJECP5", "current_trial": 79, "dateTime": 1510780846998, "trialdata": {"rt": -1, "stimulus": "<p id=\"stim\">9</p>", "key_press": -1, "trial_type": "single-stim", "trial_index": 79, "time_elapsed": 478867, "internal_node_id": "0.0-60.0-1.0"}}, {"uniqueid": "MTK0392:3NJM2BJS4XDRYDKC2Z7E6XNEHJECP5", "current_trial": 80, "dateTime": 1510780848014, "trialdata": {"rt": -1, "stimulus": "<p id=\"stim\">8</p>", "key_press": -1, "trial_type": "single-stim", "trial_index": 80, "time_elapsed": 479883, "internal_node_id": "0.0-60.0-2.0"}}, {"uniqueid": "MTK0392:3NJM2BJS4XDRYDKC2Z7E6XNEHJECP5", "current_trial": 81, "dateTime": 1510780849018, "trialdata": {"rt": -1, "stimulus": "<p id=\"stim\">7</p>", "key_press": -1, "trial_type": "single-stim", "trial_index": 81, "time_elapsed": 480886, "internal_node_id": "0.0-60.0-3.0"}}, {"uniqueid": "MTK0392:3NJM2BJS4XDRYDKC2Z7E6XNEHJECP5", "current_trial": 82, "dateTime": 1510780850023, "trialdata": {"rt": -1, "stimulus": "<p id=\"stim\">6</p>", "key_press": -1, "trial_type": "single-stim", "trial_index": 82, "time_elapsed": 481892, "internal_node_id": "0.0-60.0-4.0"}}, {"uniqueid": "MTK0392:3NJM2BJS4XDRYDKC2Z7E6XNEHJECP5", "current_trial": 83, "dateTime": 1510780851030, "trialdata": {"rt": -1, "stimulus": "<p id=\"stim\">5</p>", "key_press": -1, "trial_type": "single-stim", "trial_index": 83, "time_elapsed": 482898, "internal_node_id": "0.0-60.0-5.0"}}, {"uniqueid": "MTK0392:3NJM2BJS4XDRYDKC2Z7E6XNEHJECP5", "current_trial": 84, "dateTime": 1510780852037, "trialdata": {"rt": -1, "stimulus": "<p id=\"stim\">4</p>", "key_press": -1, "trial_type": "single-stim", "trial_index": 84, "time_elapsed": 483906, "internal_node_id": "0.0-60.0-6.0"}}, {"uniqueid": "MTK0392:3NJM2BJS4XDRYDKC2Z7E6XNEHJECP5", "current_trial": 85, "dateTime": 1510780853040, "trialdata": {"rt": -1, "stimulus": "<p id=\"stim\">3</p>", "key_press": -1, "trial_type": "single-stim", "trial_index": 85, "time_elapsed": 484908, "internal_node_id": "0.0-60.0-7.0"}}, {"uniqueid": "MTK0392:3NJM2BJS4XDRYDKC2Z7E6XNEHJECP5", "current_trial": 86, "dateTime": 1510780854070, "trialdata": {"rt": -1, "stimulus": "<p id=\"stim\">2</p>", "key_press": -1, "trial_type": "single-stim", "trial_index": 86, "time_elapsed": 485938, "internal_node_id": "0.0-60.0-8.0"}}, {"uniqueid": "MTK0392:3NJM2BJS4XDRYDKC2Z7E6XNEHJECP5", "current_trial": 87, "dateTime": 1510780855073, "trialdata": {"rt": -1, "stimulus": "<p id=\"stim\">1</p>", "key_press": -1, "trial_type": "single-stim", "trial_index": 87, "time_elapsed": 486941, "internal_node_id": "0.0-60.0-9.0"}}, {"uniqueid": "MTK0392:3NJM2BJS4XDRYDKC2Z7E6XNEHJECP5", "current_trial": 88, "dateTime": 1510780856574, "trialdata": {"rt": -1, "stimulus": "<p id=\"stim\">+</p>", "key_press": -1, "type": "FIXATION", "trial_type": "single-stim", "trial_index": 88, "time_elapsed": 488442, "internal_node_id": "0.0-61.0-0.0"}}, {"uniqueid": "MTK0392:3NJM2BJS4XDRYDKC2Z7E6XNEHJECP5", "current_trial": 89, "dateTime": 1510780858247, "trialdata": {"rt": -1000, "stimulus": "/static/audio/wordpool/FLOWER.wav", "key_press": -1, "type": "PRES_AUD", "word": "flower", "wordID": 583, "conditions": [12, 800, "a", 24000], "trial": 2, "serialpos": 0, "trial_type": "single-audio", "trial_index": 89, "time_elapsed": 490116, "internal_node_id": "0.0-62.0"}}, {"uniqueid": "MTK0392:3NJM2BJS4XDRYDKC2Z7E6XNEHJECP5", "current_trial": 90, "dateTime": 1510780860115, "trialdata": {"rt": -1000, "stimulus": "/static/audio/wordpool/CRUTCH.wav", "key_press": -1, "type": "PRES_AUD", "word": "crutch", "wordID": 416, "conditions": [12, 800, "a", 24000], "trial": 2, "serialpos": 1, "trial_type": "single-audio", "trial_index": 90, "time_elapsed": 491984, "internal_node_id": "0.0-63.0"}}, {"uniqueid": "MTK0392:3NJM2BJS4XDRYDKC2Z7E6XNEHJECP5", "current_trial": 91, "dateTime": 1510780861923, "trialdata": {"rt": -1000, "stimulus": "/static/audio/wordpool/LIVER.wav", "key_press": -1, "type": "PRES_AUD", "word": "liver", "wordID": 832, "conditions": [12, 800, "a", 24000], "trial": 2, "serialpos": 2, "trial_type": "single-audio", "trial_index": 91, "time_elapsed": 493791, "internal_node_id": "0.0-64.0"}}, {"uniqueid": "MTK0392:3NJM2BJS4XDRYDKC2Z7E6XNEHJECP5", "current_trial": 92, "dateTime": 1510780863563, "trialdata": {"rt": -1000, "stimulus": "/static/audio/wordpool/VICTIM.wav", "key_press": -1, "type": "PRES_AUD", "word": "victim", "wordID": 1561, "conditions": [12, 800, "a", 24000], "trial": 2, "serialpos": 3, "trial_type": "single-audio", "trial_index": 92, "time_elapsed": 495432, "internal_node_id": "0.0-65.0"}}, {"uniqueid": "MTK0392:3NJM2BJS4XDRYDKC2Z7E6XNEHJECP5", "current_trial": 93, "dateTime": 1510780865556, "trialdata": {"rt": -1000, "stimulus": "/static/audio/wordpool/COSTUME.wav", "key_press": -1, "type": "PRES_AUD", "word": "costume", "wordID": 382, "conditions": [12, 800, "a", 24000], "trial": 2, "serialpos": 4, "trial_type": "single-audio", "trial_index": 93, "time_elapsed": 497425, "internal_node_id": "0.0-66.0"}}, {"uniqueid": "MTK0392:3NJM2BJS4XDRYDKC2Z7E6XNEHJECP5", "current_trial": 94, "dateTime": 1510780867406, "trialdata": {"rt": -1000, "stimulus": "/static/audio/wordpool/INMATE.wav", "key_press": -1, "type": "PRES_AUD", "word": "inmate", "wordID": 737, "conditions": [12, 800, "a", 24000], "trial": 2, "serialpos": 5, "trial_type": "single-audio", "trial_index": 94, "time_elapsed": 499275, "internal_node_id": "0.0-67.0"}}, {"uniqueid": "MTK0392:3NJM2BJS4XDRYDKC2Z7E6XNEHJECP5", "current_trial": 95, "dateTime": 1510780869253, "trialdata": {"rt": -1000, "stimulus": "/static/audio/wordpool/BADGE.wav", "key_press": -1, "type": "PRES_AUD", "word": "badge", "wordID": 67, "conditions": [12, 800, "a", 24000], "trial": 2, "serialpos": 6, "trial_type": "single-audio", "trial_index": 95, "time_elapsed": 501121, "internal_node_id": "0.0-68.0"}}, {"uniqueid": "MTK0392:3NJM2BJS4XDRYDKC2Z7E6XNEHJECP5", "current_trial": 96, "dateTime": 1510780871086, "trialdata": {"rt": -1000, "stimulus": "/static/audio/wordpool/STICKER.wav", "key_press": -1, "type": "PRES_AUD", "word": "sticker", "wordID": 1381, "conditions": [12, 800, "a", 24000], "trial": 2, "serialpos": 7, "trial_type": "single-audio", "trial_index": 96, "time_elapsed": 502955, "internal_node_id": "0.0-69.0"}}, {"uniqueid": "MTK0392:3NJM2BJS4XDRYDKC2Z7E6XNEHJECP5", "current_trial": 97, "dateTime": 1510780872687, "trialdata": {"rt": -1000, "stimulus": "/static/audio/wordpool/MARROW.wav", "key_press": -1, "type": "PRES_AUD", "word": "marrow", "wordID": 871, "conditions": [12, 800, "a", 24000], "trial": 2, "serialpos": 8, "trial_type": "single-audio", "trial_index": 97, "time_elapsed": 504555, "internal_node_id": "0.0-70.0"}}, {"uniqueid": "MTK0392:3NJM2BJS4XDRYDKC2Z7E6XNEHJECP5", "current_trial": 98, "dateTime": 1510780874422, "trialdata": {"rt": -1000, "stimulus": "/static/audio/wordpool/LEG.wav", "key_press": -1, "type": "PRES_AUD", "word": "leg", "wordID": 808, "conditions": [12, 800, "a", 24000], "trial": 2, "serialpos": 9, "trial_type": "single-audio", "trial_index": 98, "time_elapsed": 506291, "internal_node_id": "0.0-71.0"}}, {"uniqueid": "MTK0392:3NJM2BJS4XDRYDKC2Z7E6XNEHJECP5", "current_trial": 99, "dateTime": 1510780876028, "trialdata": {"rt": -1000, "stimulus": "/static/audio/wordpool/TEACHER.wav", "key_press": -1, "type": "PRES_AUD", "word": "teacher", "wordID": 1439, "conditions": [12, 800, "a", 24000], "trial": 2, "serialpos": 10, "trial_type": "single-audio", "trial_index": 99, "time_elapsed": 507897, "internal_node_id": "0.0-72.0"}}, {"uniqueid": "MTK0392:3NJM2BJS4XDRYDKC2Z7E6XNEHJECP5", "current_trial": 100, "dateTime": 1510780877849, "trialdata": {"rt": -1000, "stimulus": "/static/audio/wordpool/POET.wav", "key_press": -1, "type": "PRES_AUD", "word": "poet", "wordID": 1094, "conditions": [12, 800, "a", 24000], "trial": 2, "serialpos": 11, "trial_type": "single-audio", "trial_index": 100, "time_elapsed": 509718, "internal_node_id": "0.0-73.0"}}, {"uniqueid": "MTK0392:3NJM2BJS4XDRYDKC2Z7E6XNEHJECP5", "current_trial": 101, "dateTime": 1510780879176, "trialdata": {"rt": -1, "stimulus": "", "key_press": -1, "type": "PRE_RECALL_DELAY", "trial_type": "single-stim", "trial_index": 101, "time_elapsed": 511045, "internal_node_id": "0.0-74.0-0.0"}}, {"uniqueid": "MTK0392:3NJM2BJS4XDRYDKC2Z7E6XNEHJECP5", "current_trial": 102, "dateTime": 1510780879677, "trialdata": {"rt": -1000, "stimulus": "/static/audio/400Hz.wav", "key_press": -1, "type": "PRE_RECALL_ALERT", "trial_type": "single-audio", "trial_index": 102, "time_elapsed": 511546, "internal_node_id": "0.0-75.0"}}, {"uniqueid": "MTK0392:3NJM2BJS4XDRYDKC2Z7E6XNEHJECP5", "current_trial": 103, "dateTime": 1510780939689, "trialdata": {"rt": [4001, 6829, 9771, 14799, 18502, 24810, 27715, 32759, 33325, 36292], "recwords": ["teacher", "poet", "leg", "costum", "liver", "sticker", "flower", "teacher", "", "poet"], "type": "FREE_RECALL", "conditions": [12, 800, "a", 24000], "trial": 2, "trial_type": "free-recall", "trial_index": 103, "time_elapsed": 571555, "internal_node_id": "0.0-76.0-0.0"}}, {"uniqueid": "MTK0392:3NJM2BJS4XDRYDKC2Z7E6XNEHJECP5", "current_trial": 104, "dateTime": 1510780943337, "trialdata": {"rt": 1646, "key_press": 32, "type": "INSTRUCTIONS", "trial_type": "text", "trial_index": 104, "time_elapsed": 575206, "internal_node_id": "0.0-77.0"}}, {"uniqueid": "MTK0392:3NJM2BJS4XDRYDKC2Z7E6XNEHJECP5", "current_trial": 105, "dateTime": 1510780969356, "trialdata": {"rt": [3322, 6447, 7789, 9764, 11478, 13178, 15741, 18149, 19772, 21872, 23925], "responses": ["21", "12", "11", "16", "14", "11", "12", "19", "16", "15", "13"], "num1": [9, 4, 9, 4, 9, 6, 3, 2, 1, 4, 6, 4], "num2": [9, 1, 1, 4, 3, 1, 1, 8, 9, 7, 2, 7], "num3": [3, 7, 1, 8, 2, 4, 8, 9, 6, 4, 5, 4], "type": "DISTRACTOR", "conditions": [12, 1600, "a", 24000], "trial": 3, "trial_type": "math-distractor", "trial_index": 105, "time_elapsed": 601225, "internal_node_id": "0.0-78.0"}}, {"uniqueid": "MTK0392:3NJM2BJS4XDRYDKC2Z7E6XNEHJECP5", "current_trial": 106, "dateTime": 1510780972358, "trialdata": {"rt": -1, "stimulus": "<p id=\"stim\">10</p>", "key_press": -1, "trial_type": "single-stim", "trial_index": 106, "time_elapsed": 604227, "internal_node_id": "0.0-79.0-0.0"}}, {"uniqueid": "MTK0392:3NJM2BJS4XDRYDKC2Z7E6XNEHJECP5", "current_trial": 107, "dateTime": 1510780973360, "trialdata": {"rt": -1, "stimulus": "<p id=\"stim\">9</p>", "key_press": -1, "trial_type": "single-stim", "trial_index": 107, "time_elapsed": 605229, "internal_node_id": "0.0-79.0-1.0"}}, {"uniqueid": "MTK0392:3NJM2BJS4XDRYDKC2Z7E6XNEHJECP5", "current_trial": 108, "dateTime": 1510780974365, "trialdata": {"rt": -1, "stimulus": "<p id=\"stim\">8</p>", "key_press": -1, "trial_type": "single-stim", "trial_index": 108, "time_elapsed": 606234, "internal_node_id": "0.0-79.0-2.0"}}, {"uniqueid": "MTK0392:3NJM2BJS4XDRYDKC2Z7E6XNEHJECP5", "current_trial": 109, "dateTime": 1510780975367, "trialdata": {"rt": -1, "stimulus": "<p id=\"stim\">7</p>", "key_press": -1, "trial_type": "single-stim", "trial_index": 109, "time_elapsed": 607236, "internal_node_id": "0.0-79.0-3.0"}}, {"uniqueid": "MTK0392:3NJM2BJS4XDRYDKC2Z7E6XNEHJECP5", "current_trial": 110, "dateTime": 1510780976370, "trialdata": {"rt": -1, "stimulus": "<p id=\"stim\">6</p>", "key_press": -1, "trial_type": "single-stim", "trial_index": 110, "time_elapsed": 608238, "internal_node_id": "0.0-79.0-4.0"}}, {"uniqueid": "MTK0392:3NJM2BJS4XDRYDKC2Z7E6XNEHJECP5", "current_trial": 111, "dateTime": 1510780977372, "trialdata": {"rt": -1, "stimulus": "<p id=\"stim\">5</p>", "key_press": -1, "trial_type": "single-stim", "trial_index": 111, "time_elapsed": 609240, "internal_node_id": "0.0-79.0-5.0"}}, {"uniqueid": "MTK0392:3NJM2BJS4XDRYDKC2Z7E6XNEHJECP5", "current_trial": 112, "dateTime": 1510780978375, "trialdata": {"rt": -1, "stimulus": "<p id=\"stim\">4</p>", "key_press": -1, "trial_type": "single-stim", "trial_index": 112, "time_elapsed": 610243, "internal_node_id": "0.0-79.0-6.0"}}, {"uniqueid": "MTK0392:3NJM2BJS4XDRYDKC2Z7E6XNEHJECP5", "current_trial": 113, "dateTime": 1510780979387, "trialdata": {"rt": -1, "stimulus": "<p id=\"stim\">3</p>", "key_press": -1, "trial_type": "single-stim", "trial_index": 113, "time_elapsed": 611255, "internal_node_id": "0.0-79.0-7.0"}}, {"uniqueid": "MTK0392:3NJM2BJS4XDRYDKC2Z7E6XNEHJECP5", "current_trial": 114, "dateTime": 1510780980392, "trialdata": {"rt": -1, "stimulus": "<p id=\"stim\">2</p>", "key_press": -1, "trial_type": "single-stim", "trial_index": 114, "time_elapsed": 612259, "internal_node_id": "0.0-79.0-8.0"}}, {"uniqueid": "MTK0392:3NJM2BJS4XDRYDKC2Z7E6XNEHJECP5", "current_trial": 115, "dateTime": 1510780981397, "trialdata": {"rt": -1, "stimulus": "<p id=\"stim\">1</p>", "key_press": -1, "trial_type": "single-stim", "trial_index": 115, "time_elapsed": 613265, "internal_node_id": "0.0-79.0-9.0"}}, {"uniqueid": "MTK0392:3NJM2BJS4XDRYDKC2Z7E6XNEHJECP5", "current_trial": 116, "dateTime": 1510780982899, "trialdata": {"rt": -1, "stimulus": "<p id=\"stim\">+</p>", "key_press": -1, "type": "FIXATION", "trial_type": "single-stim", "trial_index": 116, "time_elapsed": 614768, "internal_node_id": "0.0-80.0-0.0"}}, {"uniqueid": "MTK0392:3NJM2BJS4XDRYDKC2Z7E6XNEHJECP5", "current_trial": 117, "dateTime": 1510780985634, "trialdata": {"rt": -1000, "stimulus": "/static/audio/wordpool/TRUCK.wav", "key_press": -1, "type": "PRES_AUD", "word": "truck", "wordID": 1511, "conditions": [12, 1600, "a", 24000], "trial": 3, "serialpos": 0, "trial_type": "single-audio", "trial_index": 117, "time_elapsed": 617503, "internal_node_id": "0.0-81.0"}}, {"uniqueid": "MTK0392:3NJM2BJS4XDRYDKC2Z7E6XNEHJECP5", "current_trial": 118, "dateTime": 1510780988047, "trialdata": {"rt": -1000, "stimulus": "/static/audio/wordpool/PARROT.wav", "key_press": -1, "type": "PRES_AUD", "word": "parrot", "wordID": 1014, "conditions": [12, 1600, "a", 24000], "trial": 3, "serialpos": 1, "trial_type": "single-audio", "trial_index": 118, "time_elapsed": 619916, "internal_node_id": "0.0-82.0"}}, {"uniqueid": "MTK0392:3NJM2BJS4XDRYDKC2Z7E6XNEHJECP5", "current_trial": 119, "dateTime": 1510780990834, "trialdata": {"rt": -1000, "stimulus": "/static/audio/wordpool/QUEEN.wav", "key_press": -1, "type": "PRES_AUD", "word": "queen", "wordID": 1148, "conditions": [12, 1600, "a", 24000], "trial": 3, "serialpos": 2, "trial_type": "single-audio", "trial_index": 119, "time_elapsed": 622703, "internal_node_id": "0.0-83.0"}}, {"uniqueid": "MTK0392:3NJM2BJS4XDRYDKC2Z7E6XNEHJECP5", "current_trial": 120, "dateTime": 1510780993361, "trialdata": {"rt": -1000, "stimulus": "/static/audio/wordpool/SLIDE.wav", "key_press": -1, "type": "PRES_AUD", "word": "slide", "wordID": 1325, "conditions": [12, 1600, "a", 24000], "trial": 3, "serialpos": 3, "trial_type": "single-audio", "trial_index": 120, "time_elapsed": 625229, "internal_node_id": "0.0-84.0"}}, {"uniqueid": "MTK0392:3NJM2BJS4XDRYDKC2Z7E6XNEHJECP5", "current_trial": 121, "dateTime": 1510780996127, "trialdata": {"rt": -1000, "stimulus": "/static/audio/wordpool/CRAB.wav", "key_press": -1, "type": "PRES_AUD", "word": "crab", "wordID": 396, "conditions": [12, 1600, "a", 24000], "trial": 3, "serialpos": 4, "trial_type": "single-audio", "trial_index": 121, "time_elapsed": 627996, "internal_node_id": "0.0-85.0"}}, {"uniqueid": "MTK0392:3NJM2BJS4XDRYDKC2Z7E6XNEHJECP5", "current_trial": 122, "dateTime": 1510780998744, "trialdata": {"rt": -1000, "stimulus": "/static/audio/wordpool/COD.wav", "key_press": -1, "type": "PRES_AUD", "word": "cod", "wordID": 339, "conditions": [12, 1600, "a", 24000], "trial": 3, "serialpos": 5, "trial_type": "single-audio", "trial_index": 122, "time_elapsed": 630612, "internal_node_id": "0.0-86.0"}}, {"uniqueid": "MTK0392:3NJM2BJS4XDRYDKC2Z7E6XNEHJECP5", "current_trial": 123, "dateTime": 1510781001179, "trialdata": {"rt": -1000, "stimulus": "/static/audio/wordpool/CELLAR.wav", "key_press": -1, "type": "PRES_AUD", "word": "cellar", "wordID": 266, "conditions": [12, 1600, "a", 24000], "trial": 3, "serialpos": 6, "trial_type": "single-audio", "trial_index": 123, "time_elapsed": 633047, "internal_node_id": "0.0-87.0"}}, {"uniqueid": "MTK0392:3NJM2BJS4XDRYDKC2Z7E6XNEHJECP5", "current_trial": 124, "dateTime": 1510781003811, "trialdata": {"rt": -1000, "stimulus": "/static/audio/wordpool/DRIVER.wav", "key_press": -1, "type": "PRES_AUD", "word": "driver", "wordID": 498, "conditions": [12, 1600, "a", 24000], "trial": 3, "serialpos": 7, "trial_type": "single-audio", "trial_index": 124, "time_elapsed": 635680, "internal_node_id": "0.0-88.0"}}, {"uniqueid": "MTK0392:3NJM2BJS4XDRYDKC2Z7E6XNEHJECP5", "current_trial": 125, "dateTime": 1510781006304, "trialdata": {"rt": -1000, "stimulus": "/static/audio/wordpool/COLLEGE.wav", "key_press": -1, "type": "PRES_AUD", "word": "college", "wordID": 345, "conditions": [12, 1600, "a", 24000], "trial": 3, "serialpos": 8, "trial_type": "single-audio", "trial_index": 125, "time_elapsed": 638173, "internal_node_id": "0.0-89.0"}}, {"uniqueid": "MTK0392:3NJM2BJS4XDRYDKC2Z7E6XNEHJECP5", "current_trial": 126, "dateTime": 1510781009098, "trialdata": {"rt": -1000, "stimulus": "/static/audio/wordpool/KIDNEY.wav", "key_press": -1, "type": "PRES_AUD", "word": "kidney", "wordID": 775, "conditions": [12, 1600, "a", 24000], "trial": 3, "serialpos": 9, "trial_type": "single-audio", "trial_index": 126, "time_elapsed": 640967, "internal_node_id": "0.0-90.0"}}, {"uniqueid": "MTK0392:3NJM2BJS4XDRYDKC2Z7E6XNEHJECP5", "current_trial": 127, "dateTime": 1510781011710, "trialdata": {"rt": -1000, "stimulus": "/static/audio/wordpool/ELBOW.wav", "key_press": -1, "type": "PRES_AUD", "word": "elbow", "wordID": 519, "conditions": [12, 1600, "a", 24000], "trial": 3, "serialpos": 10, "trial_type": "single-audio", "trial_index": 127, "time_elapsed": 643579, "internal_node_id": "0.0-91.0"}}, {"uniqueid": "MTK0392:3NJM2BJS4XDRYDKC2Z7E6XNEHJECP5", "current_trial": 128, "dateTime": 1510781014415, "trialdata": {"rt": -1000, "stimulus": "/static/audio/wordpool/DORM.wav", "key_press": -1, "type": "PRES_AUD", "word": "dorm", "wordID": 487, "conditions": [12, 1600, "a", 24000], "trial": 3, "serialpos": 11, "trial_type": "single-audio", "trial_index": 128, "time_elapsed": 646284, "internal_node_id": "0.0-92.0"}}, {"uniqueid": "MTK0392:3NJM2BJS4XDRYDKC2Z7E6XNEHJECP5", "current_trial": 129, "dateTime": 1510781015693, "trialdata": {"rt": -1, "stimulus": "", "key_press": -1, "type": "PRE_RECALL_DELAY", "trial_type": "single-stim", "trial_index": 129, "time_elapsed": 647561, "internal_node_id": "0.0-93.0-0.0"}}, {"uniqueid": "MTK0392:3NJM2BJS4XDRYDKC2Z7E6XNEHJECP5", "current_trial": 130, "dateTime": 1510781016194, "trialdata": {"rt": -1000, "stimulus": "/static/audio/400Hz.wav", "key_press": -1, "type": "PRE_RECALL_ALERT", "trial_type": "single-audio", "trial_index": 130, "time_elapsed": 648063, "internal_node_id": "0.0-94.0"}}, {"uniqueid": "MTK0392:3NJM2BJS4XDRYDKC2Z7E6XNEHJECP5", "current_trial": 131, "dateTime": 1510781076205, "trialdata": {"rt": [17796, 20746, 23983, 25424, 31499, 44099], "recwords": ["cellar", "driver", "cod", "crab", "dorm", "lobster"], "type": "FREE_RECALL", "conditions": [12, 1600, "a", 24000], "trial": 3, "trial_type": "free-recall", "trial_index": 131, "time_elapsed": 708067, "internal_node_id": "0.0-95.0-0.0"}}, {"uniqueid": "MTK0392:3NJM2BJS4XDRYDKC2Z7E6XNEHJECP5", "current_trial": 132, "dateTime": 1510781137478, "trialdata": {"rt": 59270, "key_press": 32, "type": "INSTRUCTIONS", "trial_type": "text", "trial_index": 132, "time_elapsed": 769347, "internal_node_id": "0.0-96.0"}}, {"uniqueid": "MTK0392:3NJM2BJS4XDRYDKC2Z7E6XNEHJECP5", "current_trial": 133, "dateTime": 1510781163485, "trialdata": {"rt": [3565, 5958, 8105, 10021, 13458, 16119, 18867, 20904, 23003], "responses": ["11", "23", "14", "14", "20", "19", "11", "18", "20"], "num1": [2, 8, 4, 7, 9, 2, 6, 2, 9, 4], "num2": [7, 7, 3, 4, 6, 9, 1, 7, 5, 1], "num3": [2, 7, 7, 3, 5, 8, 4, 9, 6, 6], "type": "DISTRACTOR", "conditions": [24, 1600, "a", 24000], "trial": 4, "trial_type": "math-distractor", "trial_index": 133, "time_elapsed": 795354, "internal_node_id": "0.0-97.0"}}, {"uniqueid": "MTK0392:3NJM2BJS4XDRYDKC2Z7E6XNEHJECP5", "current_trial": 134, "dateTime": 1510781166488, "trialdata": {"rt": -1, "stimulus": "<p id=\"stim\">10</p>", "key_press": -1, "trial_type": "single-stim", "trial_index": 134, "time_elapsed": 798357, "internal_node_id": "0.0-98.0-0.0"}}, {"uniqueid": "MTK0392:3NJM2BJS4XDRYDKC2Z7E6XNEHJECP5", "current_trial": 135, "dateTime": 1510781167491, "trialdata": {"rt": -1, "stimulus": "<p id=\"stim\">9</p>", "key_press": -1, "trial_type": "single-stim", "trial_index": 135, "time_elapsed": 799359, "internal_node_id": "0.0-98.0-1.0"}}, {"uniqueid": "MTK0392:3NJM2BJS4XDRYDKC2Z7E6XNEHJECP5", "current_trial": 136, "dateTime": 1510781168494, "trialdata": {"rt": -1, "stimulus": "<p id=\"stim\">8</p>", "key_press": -1, "trial_type": "single-stim", "trial_index": 136, "time_elapsed": 800362, "internal_node_id": "0.0-98.0-2.0"}}, {"uniqueid": "MTK0392:3NJM2BJS4XDRYDKC2Z7E6XNEHJECP5", "current_trial": 137, "dateTime": 1510781169496, "trialdata": {"rt": -1, "stimulus": "<p id=\"stim\">7</p>", "key_press": -1, "trial_type": "single-stim", "trial_index": 137, "time_elapsed": 801365, "internal_node_id": "0.0-98.0-3.0"}}, {"uniqueid": "MTK0392:3NJM2BJS4XDRYDKC2Z7E6XNEHJECP5", "current_trial": 138, "dateTime": 1510781170497, "trialdata": {"rt": -1, "stimulus": "<p id=\"stim\">6</p>", "key_press": -1, "trial_type": "single-stim", "trial_index": 138, "time_elapsed": 802366, "internal_node_id": "0.0-98.0-4.0"}}, {"uniqueid": "MTK0392:3NJM2BJS4XDRYDKC2Z7E6XNEHJECP5", "current_trial": 139, "dateTime": 1510781171499, "trialdata": {"rt": -1, "stimulus": "<p id=\"stim\">5</p>", "key_press": -1, "trial_type": "single-stim", "trial_index": 139, "time_elapsed": 803368, "internal_node_id": "0.0-98.0-5.0"}}, {"uniqueid": "MTK0392:3NJM2BJS4XDRYDKC2Z7E6XNEHJECP5", "current_trial": 140, "dateTime": 1510781172500, "trialdata": {"rt": -1, "stimulus": "<p id=\"stim\">4</p>", "key_press": -1, "trial_type": "single-stim", "trial_index": 140, "time_elapsed": 804369, "internal_node_id": "0.0-98.0-6.0"}}, {"uniqueid": "MTK0392:3NJM2BJS4XDRYDKC2Z7E6XNEHJECP5", "current_trial": 141, "dateTime": 1510781173501, "trialdata": {"rt": -1, "stimulus": "<p id=\"stim\">3</p>", "key_press": -1, "trial_type": "single-stim", "trial_index": 141, "time_elapsed": 805370, "internal_node_id": "0.0-98.0-7.0"}}, {"uniqueid": "MTK0392:3NJM2BJS4XDRYDKC2Z7E6XNEHJECP5", "current_trial": 142, "dateTime": 1510781174503, "trialdata": {"rt": -1, "stimulus": "<p id=\"stim\">2</p>", "key_press": -1, "trial_type": "single-stim", "trial_index": 142, "time_elapsed": 806372, "internal_node_id": "0.0-98.0-8.0"}}, {"uniqueid": "MTK0392:3NJM2BJS4XDRYDKC2Z7E6XNEHJECP5", "current_trial": 143, "dateTime": 1510781175505, "trialdata": {"rt": -1, "stimulus": "<p id=\"stim\">1</p>", "key_press": -1, "trial_type": "single-stim", "trial_index": 143, "time_elapsed": 807374, "internal_node_id": "0.0-98.0-9.0"}}, {"uniqueid": "MTK0392:3NJM2BJS4XDRYDKC2Z7E6XNEHJECP5", "current_trial": 144, "dateTime": 1510781177007, "trialdata": {"rt": -1, "stimulus": "<p id=\"stim\">+</p>", "key_press": -1, "type": "FIXATION", "trial_type": "single-stim", "trial_index": 144, "time_elapsed": 808876, "internal_node_id": "0.0-99.0-0.0"}}, {"uniqueid": "MTK0392:3NJM2BJS4XDRYDKC2Z7E6XNEHJECP5", "current_trial": 145, "dateTime": 1510781179556, "trialdata": {"rt": -1000, "stimulus": "/static/audio/wordpool/PLIERS.wav", "key_press": -1, "type": "PRES_AUD", "word": "pliers", "wordID": 1088, "conditions": [24, 1600, "a", 24000], "trial": 4, "serialpos": 0, "trial_type": "single-audio", "trial_index": 145, "time_elapsed": 811424, "internal_node_id": "0.0-100.0"}}, {"uniqueid": "MTK0392:3NJM2BJS4XDRYDKC2Z7E6XNEHJECP5", "current_trial": 146, "dateTime": 1510781182006, "trialdata": {"rt": -1000, "stimulus": "/static/audio/wordpool/CHIPMUNK.wav", "key_press": -1, "type": "PRES_AUD", "word": "chipmunk", "wordID": 303, "conditions": [24, 1600, "a", 24000], "trial": 4, "serialpos": 1, "trial_type": "single-audio", "trial_index": 146, "time_elapsed": 813875, "internal_node_id": "0.0-101.0"}}, {"uniqueid": "MTK0392:3NJM2BJS4XDRYDKC2Z7E6XNEHJECP5", "current_trial": 147, "dateTime": 1510781184753, "trialdata": {"rt": -1000, "stimulus": "/static/audio/wordpool/LIZARD.wav", "key_press": -1, "type": "PRES_AUD", "word": "lizard", "wordID": 833, "conditions": [24, 1600, "a", 24000], "trial": 4, "serialpos": 2, "trial_type": "single-audio", "trial_index": 147, "time_elapsed": 816622, "internal_node_id": "0.0-102.0"}}, {"uniqueid": "MTK0392:3NJM2BJS4XDRYDKC2Z7E6XNEHJECP5", "current_trial": 148, "dateTime": 1510781187429, "trialdata": {"rt": -1000, "stimulus": "/static/audio/wordpool/HOOK.wav", "key_press": -1, "type": "PRES_AUD", "word": "hook", "wordID": 714, "conditions": [24, 1600, "a", 24000], "trial": 4, "serialpos": 3, "trial_type": "single-audio", "trial_index": 148, "time_elapsed": 819298, "internal_node_id": "0.0-103.0"}}, {"uniqueid": "MTK0392:3NJM2BJS4XDRYDKC2Z7E6XNEHJECP5", "current_trial": 149, "dateTime": 1510781190115, "trialdata": {"rt": -1000, "stimulus": "/static/audio/wordpool/DASHBOARD.wav", "key_press": -1, "type": "PRES_AUD", "word": "dashboard", "wordID": 440, "conditions": [24, 1600, "a", 24000], "trial": 4, "serialpos": 4, "trial_type": "single-audio", "trial_index": 149, "time_elapsed": 821984, "internal_node_id": "0.0-104.0"}}, {"uniqueid": "MTK0392:3NJM2BJS4XDRYDKC2Z7E6XNEHJECP5", "current_trial": 150, "dateTime": 1510781192765, "trialdata": {"rt": -1000, "stimulus": "/static/audio/wordpool/DRESS.wav", "key_press": -1, "type": "PRES_AUD", "word": "dress", "wordID": 494, "conditions": [24, 1600, "a", 24000], "trial": 4, "serialpos": 5, "trial_type": "single-audio", "trial_index": 150, "time_elapsed": 824634, "internal_node_id": "0.0-105.0"}}, {"uniqueid": "MTK0392:3NJM2BJS4XDRYDKC2Z7E6XNEHJECP5", "current_trial": 151, "dateTime": 1510781195302, "trialdata": {"rt": -1000, "stimulus": "/static/audio/wordpool/FLUTE.wav", "key_press": -1, "type": "PRES_AUD", "word": "flute", "wordID": 584, "conditions": [24, 1600, "a", 24000], "trial": 4, "serialpos": 6, "trial_type": "single-audio", "trial_index": 151, "time_elapsed": 827171, "internal_node_id": "0.0-106.0"}}, {"uniqueid": "MTK0392:3NJM2BJS4XDRYDKC2Z7E6XNEHJECP5", "current_trial": 152, "dateTime": 1510781197804, "trialdata": {"rt": -1000, "stimulus": "/static/audio/wordpool/MAILMAN.wav", "key_press": -1, "type": "PRES_AUD", "word": "mailman", "wordID": 857, "conditions": [24, 1600, "a", 24000], "trial": 4, "serialpos": 7, "trial_type": "single-audio", "trial_index": 152, "time_elapsed": 829673, "internal_node_id": "0.0-107.0"}}, {"uniqueid": "MTK0392:3NJM2BJS4XDRYDKC2Z7E6XNEHJECP5", "current_trial": 153, "dateTime": 1510781200300, "trialdata": {"rt": -1000, "stimulus": "/static/audio/wordpool/FLIPPER.wav", "key_press": -1, "type": "PRES_AUD", "word": "flipper", "wordID": 579, "conditions": [24, 1600, "a", 24000], "trial": 4, "serialpos": 8, "trial_type": "single-audio", "trial_index": 153, "time_elapsed": 832169, "internal_node_id": "0.0-108.0"}}, {"uniqueid": "MTK0392:3NJM2BJS4XDRYDKC2Z7E6XNEHJECP5", "current_trial": 154, "dateTime": 1510781202713, "trialdata": {"rt": -1000, "stimulus": "/static/audio/wordpool/WOMAN.wav", "key_press": -1, "type": "PRES_AUD", "word": "woman", "wordID": 1619, "conditions": [24, 1600, "a", 24000], "trial": 4, "serialpos": 9, "trial_type": "single-audio", "trial_index": 154, "time_elapsed": 834582, "internal_node_id": "0.0-109.0"}}, {"uniqueid": "MTK0392:3NJM2BJS4XDRYDKC2Z7E6XNEHJECP5", "current_trial": 155, "dateTime": 1510781205325, "trialdata": {"rt": -1000, "stimulus": "/static/audio/wordpool/OINTMENT.wav", "key_press": -1, "type": "PRES_AUD", "word": "ointment", "wordID": 973, "conditions": [24, 1600, "a", 24000], "trial": 4, "serialpos": 10, "trial_type": "single-audio", "trial_index": 155, "time_elapsed": 837194, "internal_node_id": "0.0-110.0"}}, {"uniqueid": "MTK0392:3NJM2BJS4XDRYDKC2Z7E6XNEHJECP5", "current_trial": 156, "dateTime": 1510781207864, "trialdata": {"rt": -1000, "stimulus": "/static/audio/wordpool/MAILBOX.wav", "key_press": -1, "type": "PRES_AUD", "word": "mailbox", "wordID": 856, "conditions": [24, 1600, "a", 24000], "trial": 4, "serialpos": 11, "trial_type": "single-audio", "trial_index": 156, "time_elapsed": 839733, "internal_node_id": "0.0-111.0"}}, {"uniqueid": "MTK0392:3NJM2BJS4XDRYDKC2Z7E6XNEHJECP5", "current_trial": 157, "dateTime": 1510781210373, "trialdata": {"rt": -1000, "stimulus": "/static/audio/wordpool/CHURCH.wav", "key_press": -1, "type": "PRES_AUD", "word": "church", "wordID": 306, "conditions": [24, 1600, "a", 24000], "trial": 4, "serialpos": 12, "trial_type": "single-audio", "trial_index": 157, "time_elapsed": 842241, "internal_node_id": "0.0-112.0"}}, {"uniqueid": "MTK0392:3NJM2BJS4XDRYDKC2Z7E6XNEHJECP5", "current_trial": 158, "dateTime": 1510781213022, "trialdata": {"rt": -1000, "stimulus": "/static/audio/wordpool/SISTER.wav", "key_press": -1, "type": "PRES_AUD", "word": "sister", "wordID": 1311, "conditions": [24, 1600, "a", 24000], "trial": 4, "serialpos": 13, "trial_type": "single-audio", "trial_index": 158, "time_elapsed": 844891, "internal_node_id": "0.0-113.0"}}, {"uniqueid": "MTK0392:3NJM2BJS4XDRYDKC2Z7E6XNEHJECP5", "current_trial": 159, "dateTime": 1510781215635, "trialdata": {"rt": -1000, "stimulus": "/static/audio/wordpool/UNCLE.wav", "key_press": -1, "type": "PRES_AUD", "word": "uncle", "wordID": 1535, "conditions": [24, 1600, "a", 24000], "trial": 4, "serialpos": 14, "trial_type": "single-audio", "trial_index": 159, "time_elapsed": 847503, "internal_node_id": "0.0-114.0"}}, {"uniqueid": "MTK0392:3NJM2BJS4XDRYDKC2Z7E6XNEHJECP5", "current_trial": 160, "dateTime": 1510781218287, "trialdata": {"rt": -1000, "stimulus": "/static/audio/wordpool/SUITCASE.wav", "key_press": -1, "type": "PRES_AUD", "word": "suitcase", "wordID": 1402, "conditions": [24, 1600, "a", 24000], "trial": 4, "serialpos": 15, "trial_type": "single-audio", "trial_index": 160, "time_elapsed": 850155, "internal_node_id": "0.0-115.0"}}, {"uniqueid": "MTK0392:3NJM2BJS4XDRYDKC2Z7E6XNEHJECP5", "current_trial": 161, "dateTime": 1510781220788, "trialdata": {"rt": -1000, "stimulus": "/static/audio/wordpool/LAGOON.wav", "key_press": -1, "type": "PRES_AUD", "word": "lagoon", "wordID": 794, "conditions": [24, 1600, "a", 24000], "trial": 4, "serialpos": 16, "trial_type": "single-audio", "trial_index": 161, "time_elapsed": 852657, "internal_node_id": "0.0-116.0"}}, {"uniqueid": "MTK0392:3NJM2BJS4XDRYDKC2Z7E6XNEHJECP5", "current_trial": 162, "dateTime": 1510781223489, "trialdata": {"rt": -1000, "stimulus": "/static/audio/wordpool/APPLE.wav", "key_press": -1, "type": "PRES_AUD", "word": "apple", "wordID": 32, "conditions": [24, 1600, "a", 24000], "trial": 4, "serialpos": 17, "trial_type": "single-audio", "trial_index": 162, "time_elapsed": 855357, "internal_node_id": "0.0-117.0"}}, {"uniqueid": "MTK0392:3NJM2BJS4XDRYDKC2Z7E6XNEHJECP5", "current_trial": 163, "dateTime": 1510781226246, "trialdata": {"rt": -1000, "stimulus": "/static/audio/wordpool/SERVER.wav", "key_press": -1, "type": "PRES_AUD", "word": "server", "wordID": 1271, "conditions": [24, 1600, "a", 24000], "trial": 4, "serialpos": 18, "trial_type": "single-audio", "trial_index": 163, "time_elapsed": 858115, "internal_node_id": "0.0-118.0"}}, {"uniqueid": "MTK0392:3NJM2BJS4XDRYDKC2Z7E6XNEHJECP5", "current_trial": 164, "dateTime": 1510781228723, "trialdata": {"rt": -1000, "stimulus": "/static/audio/wordpool/LUGGAGE.wav", "key_press": -1, "type": "PRES_AUD", "word": "luggage", "wordID": 846, "conditions": [24, 1600, "a", 24000], "trial": 4, "serialpos": 19, "trial_type": "single-audio", "trial_index": 164, "time_elapsed": 860592, "internal_node_id": "0.0-119.0"}}, {"uniqueid": "MTK0392:3NJM2BJS4XDRYDKC2Z7E6XNEHJECP5", "current_trial": 165, "dateTime": 1510781231337, "trialdata": {"rt": -1000, "stimulus": "/static/audio/wordpool/PANTHER.wav", "key_press": -1, "type": "PRES_AUD", "word": "panther", "wordID": 1008, "conditions": [24, 1600, "a", 24000], "trial": 4, "serialpos": 20, "trial_type": "single-audio", "trial_index": 165, "time_elapsed": 863206, "internal_node_id": "0.0-120.0"}}, {"uniqueid": "MTK0392:3NJM2BJS4XDRYDKC2Z7E6XNEHJECP5", "current_trial": 166, "dateTime": 1510781233970, "trialdata": {"rt": -1000, "stimulus": "/static/audio/wordpool/KETCHUP.wav", "key_press": -1, "type": "PRES_AUD", "word": "ketchup", "wordID": 770, "conditions": [24, 1600, "a", 24000], "trial": 4, "serialpos": 21, "trial_type": "single-audio", "trial_index": 166, "time_elapsed": 865839, "internal_node_id": "0.0-121.0"}}, {"uniqueid": "MTK0392:3NJM2BJS4XDRYDKC2Z7E6XNEHJECP5", "current_trial": 167, "dateTime": 1510781236716, "trialdata": {"rt": -1000, "stimulus": "/static/audio/wordpool/OZONE.wav", "key_press": -1, "type": "PRES_AUD", "word": "ozone", "wordID": 995, "conditions": [24, 1600, "a", 24000], "trial": 4, "serialpos": 22, "trial_type": "single-audio", "trial_index": 167, "time_elapsed": 868585, "internal_node_id": "0.0-122.0"}}, {"uniqueid": "MTK0392:3NJM2BJS4XDRYDKC2Z7E6XNEHJECP5", "current_trial": 168, "dateTime": 1510781239415, "trialdata": {"rt": -1000, "stimulus": "/static/audio/wordpool/BURGLAR.wav", "key_press": -1, "type": "PRES_AUD", "word": "burglar", "wordID": 199, "conditions": [24, 1600, "a", 24000], "trial": 4, "serialpos": 23, "trial_type": "single-audio", "trial_index": 168, "time_elapsed": 871284, "internal_node_id": "0.0-123.0"}}, {"uniqueid": "MTK0392:3NJM2BJS4XDRYDKC2Z7E6XNEHJECP5", "current_trial": 169, "dateTime": 1510781240728, "trialdata": {"rt": -1, "stimulus": "", "key_press": -1, "type": "PRE_RECALL_DELAY", "trial_type": "single-stim", "trial_index": 169, "time_elapsed": 872597, "internal_node_id": "0.0-124.0-0.0"}}, {"uniqueid": "MTK0392:3NJM2BJS4XDRYDKC2Z7E6XNEHJECP5", "current_trial": 170, "dateTime": 1510781241230, "trialdata": {"rt": -1000, "stimulus": "/static/audio/400Hz.wav", "key_press": -1, "type": "PRE_RECALL_ALERT", "trial_type": "single-audio", "trial_index": 170, "time_elapsed": 873099, "internal_node_id": "0.0-125.0"}}, {"uniqueid": "MTK0392:3NJM2BJS4XDRYDKC2Z7E6XNEHJECP5", "current_trial": 171, "dateTime": 1510781301240, "trialdata": {"rt": [3105, 7962, 17511, 19714, 23422, 28158, 30240, 42195, 43810, 45083, 51765, 54281], "recwords": ["panther", "chipmunk", "uncle", "sister", "women", "mailman", "mailbox", "apple", "", "flute", "suitcare", "luggage"], "type": "FREE_RECALL", "conditions": [24, 1600, "a", 24000], "trial": 4, "trial_type": "free-recall", "trial_index": 171, "time_elapsed": 933105, "internal_node_id": "0.0-126.0-0.0"}}, {"uniqueid": "MTK0392:3NJM2BJS4XDRYDKC2Z7E6XNEHJECP5", "current_trial": 172, "dateTime": 1510781314095, "trialdata": {"rt": 10853, "key_press": 32, "type": "INSTRUCTIONS", "trial_type": "text", "trial_index": 172, "time_elapsed": 945964, "internal_node_id": "0.0-127.0"}}, {"uniqueid": "MTK0392:3NJM2BJS4XDRYDKC2Z7E6XNEHJECP5", "current_trial": 173, "dateTime": 1510781340106, "trialdata": {"rt": [4797, 6665, 8757, 11082, 13384, 15959, 18210, 20097, 21842], "responses": ["19", "10", "7", "16", "18", "18", "19", "18", "14"], "num1": [6, 2, 1, 8, 8, 6, 9, 3, 4, 4], "num2": [9, 5, 3, 1, 4, 6, 1, 7, 1, 7], "num3": [4, 3, 3, 7, 6, 6, 9, 8, 9, 8], "type": "DISTRACTOR", "conditions": [24, 800, "a", 24000], "trial": 5, "trial_type": "math-distractor", "trial_index": 173, "time_elapsed": 971974, "internal_node_id": "0.0-128.0"}}, {"uniqueid": "MTK0392:3NJM2BJS4XDRYDKC2Z7E6XNEHJECP5", "current_trial": 174, "dateTime": 1510781343109, "trialdata": {"rt": -1, "stimulus": "<p id=\"stim\">10</p>", "key_press": -1, "trial_type": "single-stim", "trial_index": 174, "time_elapsed": 974977, "internal_node_id": "0.0-129.0-0.0"}}, {"uniqueid": "MTK0392:3NJM2BJS4XDRYDKC2Z7E6XNEHJECP5", "current_trial": 175, "dateTime": 1510781344111, "trialdata": {"rt": -1, "stimulus": "<p id=\"stim\">9</p>", "key_press": -1, "trial_type": "single-stim", "trial_index": 175, "time_elapsed": 975979, "internal_node_id": "0.0-129.0-1.0"}}, {"uniqueid": "MTK0392:3NJM2BJS4XDRYDKC2Z7E6XNEHJECP5", "current_trial": 176, "dateTime": 1510781345113, "trialdata": {"rt": -1, "stimulus": "<p id=\"stim\">8</p>", "key_press": -1, "trial_type": "single-stim", "trial_index": 176, "time_elapsed": 976982, "internal_node_id": "0.0-129.0-2.0"}}, {"uniqueid": "MTK0392:3NJM2BJS4XDRYDKC2Z7E6XNEHJECP5", "current_trial": 177, "dateTime": 1510781346115, "trialdata": {"rt": -1, "stimulus": "<p id=\"stim\">7</p>", "key_press": -1, "trial_type": "single-stim", "trial_index": 177, "time_elapsed": 977984, "internal_node_id": "0.0-129.0-3.0"}}, {"uniqueid": "MTK0392:3NJM2BJS4XDRYDKC2Z7E6XNEHJECP5", "current_trial": 178, "dateTime": 1510781347117, "trialdata": {"rt": -1, "stimulus": "<p id=\"stim\">6</p>", "key_press": -1, "trial_type": "single-stim", "trial_index": 178, "time_elapsed": 978985, "internal_node_id": "0.0-129.0-4.0"}}, {"uniqueid": "MTK0392:3NJM2BJS4XDRYDKC2Z7E6XNEHJECP5", "current_trial": 179, "dateTime": 1510781348118, "trialdata": {"rt": -1, "stimulus": "<p id=\"stim\">5</p>", "key_press": -1, "trial_type": "single-stim", "trial_index": 179, "time_elapsed": 979987, "internal_node_id": "0.0-129.0-5.0"}}, {"uniqueid": "MTK0392:3NJM2BJS4XDRYDKC2Z7E6XNEHJECP5", "current_trial": 180, "dateTime": 1510781349120, "trialdata": {"rt": -1, "stimulus": "<p id=\"stim\">4</p>", "key_press": -1, "trial_type": "single-stim", "trial_index": 180, "time_elapsed": 980989, "internal_node_id": "0.0-129.0-6.0"}}, {"uniqueid": "MTK0392:3NJM2BJS4XDRYDKC2Z7E6XNEHJECP5", "current_trial": 181, "dateTime": 1510781350122, "trialdata": {"rt": -1, "stimulus": "<p id=\"stim\">3</p>", "key_press": -1, "trial_type": "single-stim", "trial_index": 181, "time_elapsed": 981990, "internal_node_id": "0.0-129.0-7.0"}}, {"uniqueid": "MTK0392:3NJM2BJS4XDRYDKC2Z7E6XNEHJECP5", "current_trial": 182, "dateTime": 1510781351124, "trialdata": {"rt": -1, "stimulus": "<p id=\"stim\">2</p>", "key_press": -1, "trial_type": "single-stim", "trial_index": 182, "time_elapsed": 982992, "internal_node_id": "0.0-129.0-8.0"}}, {"uniqueid": "MTK0392:3NJM2BJS4XDRYDKC2Z7E6XNEHJECP5", "current_trial": 183, "dateTime": 1510781352125, "trialdata": {"rt": -1, "stimulus": "<p id=\"stim\">1</p>", "key_press": -1, "trial_type": "single-stim", "trial_index": 183, "time_elapsed": 983994, "internal_node_id": "0.0-129.0-9.0"}}, {"uniqueid": "MTK0392:3NJM2BJS4XDRYDKC2Z7E6XNEHJECP5", "current_trial": 184, "dateTime": 1510781353628, "trialdata": {"rt": -1, "stimulus": "<p id=\"stim\">+</p>", "key_press": -1, "type": "FIXATION", "trial_type": "single-stim", "trial_index": 184, "time_elapsed": 985497, "internal_node_id": "0.0-130.0-0.0"}}, {"uniqueid": "MTK0392:3NJM2BJS4XDRYDKC2Z7E6XNEHJECP5", "current_trial": 185, "dateTime": 1510781355238, "trialdata": {"rt": -1000, "stimulus": "/static/audio/wordpool/CRITIC.wav", "key_press": -1, "type": "PRES_AUD", "word": "critic", "wordID": 409, "conditions": [24, 800, "a", 24000], "trial": 5, "serialpos": 0, "trial_type": "single-audio", "trial_index": 185, "time_elapsed": 987105, "internal_node_id": "0.0-131.0"}}, {"uniqueid": "MTK0392:3NJM2BJS4XDRYDKC2Z7E6XNEHJECP5", "current_trial": 186, "dateTime": 1510781357017, "trialdata": {"rt": -1000, "stimulus": "/static/audio/wordpool/CAMEL.wav", "key_press": -1, "type": "PRES_AUD", "word": "camel", "wordID": 222, "conditions": [24, 800, "a", 24000], "trial": 5, "serialpos": 1, "trial_type": "single-audio", "trial_index": 186, "time_elapsed": 988886, "internal_node_id": "0.0-132.0"}}, {"uniqueid": "MTK0392:3NJM2BJS4XDRYDKC2Z7E6XNEHJECP5", "current_trial": 187, "dateTime": 1510781358947, "trialdata": {"rt": -1000, "stimulus": "/static/audio/wordpool/SODA.wav", "key_press": -1, "type": "PRES_AUD", "word": "soda", "wordID": 1340, "conditions": [24, 800, "a", 24000], "trial": 5, "serialpos": 2, "trial_type": "single-audio", "trial_index": 187, "time_elapsed": 990815, "internal_node_id": "0.0-133.0"}}, {"uniqueid": "MTK0392:3NJM2BJS4XDRYDKC2Z7E6XNEHJECP5", "current_trial": 188, "dateTime": 1510781360698, "trialdata": {"rt": -1000, "stimulus": "/static/audio/wordpool/SNAIL.wav", "key_press": -1, "type": "PRES_AUD", "word": "snail", "wordID": 1331, "conditions": [24, 800, "a", 24000], "trial": 5, "serialpos": 3, "trial_type": "single-audio", "trial_index": 188, "time_elapsed": 992566, "internal_node_id": "0.0-134.0"}}, {"uniqueid": "MTK0392:3NJM2BJS4XDRYDKC2Z7E6XNEHJECP5", "current_trial": 189, "dateTime": 1510781362342, "trialdata": {"rt": -1000, "stimulus": "/static/audio/wordpool/COMET.wav", "key_press": -1, "type": "PRES_AUD", "word": "comet", "wordID": 352, "conditions": [24, 800, "a", 24000], "trial": 5, "serialpos": 4, "trial_type": "single-audio", "trial_index": 189, "time_elapsed": 994211, "internal_node_id": "0.0-135.0"}}, {"uniqueid": "MTK0392:3NJM2BJS4XDRYDKC2Z7E6XNEHJECP5", "current_trial": 190, "dateTime": 1510781363993, "trialdata": {"rt": -1000, "stimulus": "/static/audio/wordpool/RABBIT.wav", "key_press": -1, "type": "PRES_AUD", "word": "rabbit", "wordID": 1151, "conditions": [24, 800, "a", 24000], "trial": 5, "serialpos": 5, "trial_type": "single-audio", "trial_index": 190, "time_elapsed": 995862, "internal_node_id": "0.0-136.0"}}, {"uniqueid": "MTK0392:3NJM2BJS4XDRYDKC2Z7E6XNEHJECP5", "current_trial": 191, "dateTime": 1510781365765, "trialdata": {"rt": -1000, "stimulus": "/static/audio/wordpool/SAUSAGE.wav", "key_press": -1, "type": "PRES_AUD", "word": "sausage", "wordID": 1237, "conditions": [24, 800, "a", 24000], "trial": 5, "serialpos": 6, "trial_type": "single-audio", "trial_index": 191, "time_elapsed": 997634, "internal_node_id": "0.0-137.0"}}, {"uniqueid": "MTK0392:3NJM2BJS4XDRYDKC2Z7E6XNEHJECP5", "current_trial": 192, "dateTime": 1510781367672, "trialdata": {"rt": -1000, "stimulus": "/static/audio/wordpool/REPORT.wav", "key_press": -1, "type": "PRES_AUD", "word": "report", "wordID": 1183, "conditions": [24, 800, "a", 24000], "trial": 5, "serialpos": 7, "trial_type": "single-audio", "trial_index": 192, "time_elapsed": 999540, "internal_node_id": "0.0-138.0"}}, {"uniqueid": "MTK0392:3NJM2BJS4XDRYDKC2Z7E6XNEHJECP5", "current_trial": 193, "dateTime": 1510781369506, "trialdata": {"rt": -1000, "stimulus": "/static/audio/wordpool/BABY.wav", "key_press": -1, "type": "PRES_AUD", "word": "baby", "wordID": 63, "conditions": [24, 800, "a", 24000], "trial": 5, "serialpos": 8, "trial_type": "single-audio", "trial_index": 193, "time_elapsed": 1001374, "internal_node_id": "0.0-139.0"}}, {"uniqueid": "MTK0392:3NJM2BJS4XDRYDKC2Z7E6XNEHJECP5", "current_trial": 194, "dateTime": 1510781371435, "trialdata": {"rt": -1000, "stimulus": "/static/audio/wordpool/ANKLE.wav", "key_press": -1, "type": "PRES_AUD", "word": "ankle", "wordID": 23, "conditions": [24, 800, "a", 24000], "trial": 5, "serialpos": 9, "trial_type": "single-audio", "trial_index": 194, "time_elapsed": 1003303, "internal_node_id": "0.0-140.0"}}, {"uniqueid": "MTK0392:3NJM2BJS4XDRYDKC2Z7E6XNEHJECP5", "current_trial": 195, "dateTime": 1510781373162, "trialdata": {"rt": -1000, "stimulus": "/static/audio/wordpool/WRIST.wav", "key_press": -1, "type": "PRES_AUD", "word": "wrist", "wordID": 1625, "conditions": [24, 800, "a", 24000], "trial": 5, "serialpos": 10, "trial_type": "single-audio", "trial_index": 195, "time_elapsed": 1005030, "internal_node_id": "0.0-141.0"}}, {"uniqueid": "MTK0392:3NJM2BJS4XDRYDKC2Z7E6XNEHJECP5", "current_trial": 196, "dateTime": 1510781375075, "trialdata": {"rt": -1000, "stimulus": "/static/audio/wordpool/PORK.wav", "key_press": -1, "type": "PRES_AUD", "word": "pork", "wordID": 1107, "conditions": [24, 800, "a", 24000], "trial": 5, "serialpos": 11, "trial_type": "single-audio", "trial_index": 196, "time_elapsed": 1006944, "internal_node_id": "0.0-142.0"}}, {"uniqueid": "MTK0392:3NJM2BJS4XDRYDKC2Z7E6XNEHJECP5", "current_trial": 197, "dateTime": 1510781376829, "trialdata": {"rt": -1000, "stimulus": "/static/audio/wordpool/SALMON.wav", "key_press": -1, "type": "PRES_AUD", "word": "salmon", "wordID": 1226, "conditions": [24, 800, "a", 24000], "trial": 5, "serialpos": 12, "trial_type": "single-audio", "trial_index": 197, "time_elapsed": 1008698, "internal_node_id": "0.0-143.0"}}, {"uniqueid": "MTK0392:3NJM2BJS4XDRYDKC2Z7E6XNEHJECP5", "current_trial": 198, "dateTime": 1510781378570, "trialdata": {"rt": -1000, "stimulus": "/static/audio/wordpool/COUCH.wav", "key_press": -1, "type": "PRES_AUD", "word": "couch", "wordID": 385, "conditions": [24, 800, "a", 24000], "trial": 5, "serialpos": 13, "trial_type": "single-audio", "trial_index": 198, "time_elapsed": 1010439, "internal_node_id": "0.0-144.0"}}, {"uniqueid": "MTK0392:3NJM2BJS4XDRYDKC2Z7E6XNEHJECP5", "current_trial": 199, "dateTime": 1510781380460, "trialdata": {"rt": -1000, "stimulus": "/static/audio/wordpool/HARP.wav", "key_press": -1, "type": "PRES_AUD", "word": "harp", "wordID": 688, "conditions": [24, 800, "a", 24000], "trial": 5, "serialpos": 14, "trial_type": "single-audio", "trial_index": 199, "time_elapsed": 1012329, "internal_node_id": "0.0-145.0"}}, {"uniqueid": "MTK0392:3NJM2BJS4XDRYDKC2Z7E6XNEHJECP5", "current_trial": 200, "dateTime": 1510781382384, "trialdata": {"rt": -1000, "stimulus": "/static/audio/wordpool/DRESSER.wav", "key_press": -1, "type": "PRES_AUD", "word": "dresser", "wordID": 495, "conditions": [24, 800, "a", 24000], "trial": 5, "serialpos": 15, "trial_type": "single-audio", "trial_index": 200, "time_elapsed": 1014252, "internal_node_id": "0.0-146.0"}}, {"uniqueid": "MTK0392:3NJM2BJS4XDRYDKC2Z7E6XNEHJECP5", "current_trial": 201, "dateTime": 1510781384024, "trialdata": {"rt": -1000, "stimulus": "/static/audio/wordpool/BODY.wav", "key_press": -1, "type": "PRES_AUD", "word": "body", "wordID": 144, "conditions": [24, 800, "a", 24000], "trial": 5, "serialpos": 16, "trial_type": "single-audio", "trial_index": 201, "time_elapsed": 1015893, "internal_node_id": "0.0-147.0"}}, {"uniqueid": "MTK0392:3NJM2BJS4XDRYDKC2Z7E6XNEHJECP5", "current_trial": 202, "dateTime": 1510781385968, "trialdata": {"rt": -1000, "stimulus": "/static/audio/wordpool/SHOULDER.wav", "key_press": -1, "type": "PRES_AUD", "word": "shoulder", "wordID": 1293, "conditions": [24, 800, "a", 24000], "trial": 5, "serialpos": 17, "trial_type": "single-audio", "trial_index": 202, "time_elapsed": 1017837, "internal_node_id": "0.0-148.0"}}, {"uniqueid": "MTK0392:3NJM2BJS4XDRYDKC2Z7E6XNEHJECP5", "current_trial": 203, "dateTime": 1510781387594, "trialdata": {"rt": -1000, "stimulus": "/static/audio/wordpool/HOOD.wav", "key_press": -1, "type": "PRES_AUD", "word": "hood", "wordID": 713, "conditions": [24, 800, "a", 24000], "trial": 5, "serialpos": 18, "trial_type": "single-audio", "trial_index": 203, "time_elapsed": 1019463, "internal_node_id": "0.0-149.0"}}, {"uniqueid": "MTK0392:3NJM2BJS4XDRYDKC2Z7E6XNEHJECP5", "current_trial": 204, "dateTime": 1510781389350, "trialdata": {"rt": -1000, "stimulus": "/static/audio/wordpool/CANYON.wav", "key_press": -1, "type": "PRES_AUD", "word": "canyon", "wordID": 234, "conditions": [24, 800, "a", 24000], "trial": 5, "serialpos": 19, "trial_type": "single-audio", "trial_index": 204, "time_elapsed": 1021218, "internal_node_id": "0.0-150.0"}}, {"uniqueid": "MTK0392:3NJM2BJS4XDRYDKC2Z7E6XNEHJECP5", "current_trial": 205, "dateTime": 1510781391335, "trialdata": {"rt": -1000, "stimulus": "/static/audio/wordpool/GYMNAST.wav", "key_press": -1, "type": "PRES_AUD", "word": "gymnast", "wordID": 674, "conditions": [24, 800, "a", 24000], "trial": 5, "serialpos": 20, "trial_type": "single-audio", "trial_index": 205, "time_elapsed": 1023204, "internal_node_id": "0.0-151.0"}}, {"uniqueid": "MTK0392:3NJM2BJS4XDRYDKC2Z7E6XNEHJECP5", "current_trial": 206, "dateTime": 1510781393260, "trialdata": {"rt": -1000, "stimulus": "/static/audio/wordpool/DANCER.wav", "key_press": -1, "type": "PRES_AUD", "word": "dancer", "wordID": 436, "conditions": [24, 800, "a", 24000], "trial": 5, "serialpos": 21, "trial_type": "single-audio", "trial_index": 206, "time_elapsed": 1025129, "internal_node_id": "0.0-152.0"}}, {"uniqueid": "MTK0392:3NJM2BJS4XDRYDKC2Z7E6XNEHJECP5", "current_trial": 207, "dateTime": 1510781395169, "trialdata": {"rt": -1000, "stimulus": "/static/audio/wordpool/PADDLE.wav", "key_press": -1, "type": "PRES_AUD", "word": "paddle", "wordID": 999, "conditions": [24, 800, "a", 24000], "trial": 5, "serialpos": 22, "trial_type": "single-audio", "trial_index": 207, "time_elapsed": 1027037, "internal_node_id": "0.0-153.0"}}, {"uniqueid": "MTK0392:3NJM2BJS4XDRYDKC2Z7E6XNEHJECP5", "current_trial": 208, "dateTime": 1510781397035, "trialdata": {"rt": -1000, "stimulus": "/static/audio/wordpool/TROUT.wav", "key_press": -1, "type": "PRES_AUD", "word": "trout", "wordID": 1510, "conditions": [24, 800, "a", 24000], "trial": 5, "serialpos": 23, "trial_type": "single-audio", "trial_index": 208, "time_elapsed": 1028904, "internal_node_id": "0.0-154.0"}}, {"uniqueid": "MTK0392:3NJM2BJS4XDRYDKC2Z7E6XNEHJECP5", "current_trial": 209, "dateTime": 1510781398363, "trialdata": {"rt": -1, "stimulus": "", "key_press": -1, "type": "PRE_RECALL_DELAY", "trial_type": "single-stim", "trial_index": 209, "time_elapsed": 1030232, "internal_node_id": "0.0-155.0-0.0"}}, {"uniqueid": "MTK0392:3NJM2BJS4XDRYDKC2Z7E6XNEHJECP5", "current_trial": 210, "dateTime": 1510781398864, "trialdata": {"rt": -1000, "stimulus": "/static/audio/400Hz.wav", "key_press": -1, "type": "PRE_RECALL_ALERT", "trial_type": "single-audio", "trial_index": 210, "time_elapsed": 1030733, "internal_node_id": "0.0-156.0"}}, {"uniqueid": "MTK0392:3NJM2BJS4XDRYDKC2Z7E6XNEHJECP5", "current_trial": 211, "dateTime": 1510781458877, "trialdata": {"rt": [6450, 9821, 17086, 18954, 24624, 26432, 40089, 43813, 56264], "recwords": ["gymnast", "dancer", "sausage", "baby", "ankle", "wrist", "camal", "baby", "couch"], "type": "FREE_RECALL", "conditions": [24, 800, "a", 24000], "trial": 5, "trial_type": "free-recall", "trial_index": 211, "time_elapsed": 1090738, "internal_node_id": "0.0-157.0-0.0"}}, {"uniqueid": "MTK0392:3NJM2BJS4XDRYDKC2Z7E6XNEHJECP5", "current_trial": 212, "dateTime": 1510781513638, "trialdata": {"rt": 52758, "key_press": 32, "type": "INSTRUCTIONS", "trial_type": "text", "trial_index": 212, "time_elapsed": 1145507, "internal_node_id": "0.0-158.0"}}, {"uniqueid": "MTK0392:3NJM2BJS4XDRYDKC2Z7E6XNEHJECP5", "current_trial": 213, "dateTime": 1510781527678, "trialdata": {"rt": [2491, 5059, 7093, 8935, 11041], "responses": ["17", "6", "15", "16", "10"], "num1": [1, 1, 5, 9, 3, 2], "num2": [9, 2, 2, 4, 5, 7], "num3": [7, 3, 8, 3, 2, 1], "type": "DISTRACTOR", "conditions": [24, 1600, "a", 12000], "trial": 6, "trial_type": "math-distractor", "trial_index": 213, "time_elapsed": 1159545, "internal_node_id": "0.0-159.0"}}, {"uniqueid": "MTK0392:3NJM2BJS4XDRYDKC2Z7E6XNEHJECP5", "current_trial": 214, "dateTime": 1510781530682, "trialdata": {"rt": -1, "stimulus": "<p id=\"stim\">10</p>", "key_press": -1, "trial_type": "single-stim", "trial_index": 214, "time_elapsed": 1162550, "internal_node_id": "0.0-160.0-0.0"}}, {"uniqueid": "MTK0392:3NJM2BJS4XDRYDKC2Z7E6XNEHJECP5", "current_trial": 215, "dateTime": 1510781531683, "trialdata": {"rt": -1, "stimulus": "<p id=\"stim\">9</p>", "key_press": -1, "trial_type": "single-stim", "trial_index": 215, "time_elapsed": 1163552, "internal_node_id": "0.0-160.0-1.0"}}, {"uniqueid": "MTK0392:3NJM2BJS4XDRYDKC2Z7E6XNEHJECP5", "current_trial": 216, "dateTime": 1510781532684, "trialdata": {"rt": -1, "stimulus": "<p id=\"stim\">8</p>", "key_press": -1, "trial_type": "single-stim", "trial_index": 216, "time_elapsed": 1164553, "internal_node_id": "0.0-160.0-2.0"}}, {"uniqueid": "MTK0392:3NJM2BJS4XDRYDKC2Z7E6XNEHJECP5", "current_trial": 217, "dateTime": 1510781533685, "trialdata": {"rt": -1, "stimulus": "<p id=\"stim\">7</p>", "key_press": -1, "trial_type": "single-stim", "trial_index": 217, "time_elapsed": 1165554, "internal_node_id": "0.0-160.0-3.0"}}, {"uniqueid": "MTK0392:3NJM2BJS4XDRYDKC2Z7E6XNEHJECP5", "current_trial": 218, "dateTime": 1510781534686, "trialdata": {"rt": -1, "stimulus": "<p id=\"stim\">6</p>", "key_press": -1, "trial_type": "single-stim", "trial_index": 218, "time_elapsed": 1166555, "internal_node_id": "0.0-160.0-4.0"}}, {"uniqueid": "MTK0392:3NJM2BJS4XDRYDKC2Z7E6XNEHJECP5", "current_trial": 219, "dateTime": 1510781535687, "trialdata": {"rt": -1, "stimulus": "<p id=\"stim\">5</p>", "key_press": -1, "trial_type": "single-stim", "trial_index": 219, "time_elapsed": 1167555, "internal_node_id": "0.0-160.0-5.0"}}, {"uniqueid": "MTK0392:3NJM2BJS4XDRYDKC2Z7E6XNEHJECP5", "current_trial": 220, "dateTime": 1510781536688, "trialdata": {"rt": -1, "stimulus": "<p id=\"stim\">4</p>", "key_press": -1, "trial_type": "single-stim", "trial_index": 220, "time_elapsed": 1168557, "internal_node_id": "0.0-160.0-6.0"}}, {"uniqueid": "MTK0392:3NJM2BJS4XDRYDKC2Z7E6XNEHJECP5", "current_trial": 221, "dateTime": 1510781537690, "trialdata": {"rt": -1, "stimulus": "<p id=\"stim\">3</p>", "key_press": -1, "trial_type": "single-stim", "trial_index": 221, "time_elapsed": 1169558, "internal_node_id": "0.0-160.0-7.0"}}, {"uniqueid": "MTK0392:3NJM2BJS4XDRYDKC2Z7E6XNEHJECP5", "current_trial": 222, "dateTime": 1510781538692, "trialdata": {"rt": -1, "stimulus": "<p id=\"stim\">2</p>", "key_press": -1, "trial_type": "single-stim", "trial_index": 222, "time_elapsed": 1170560, "internal_node_id": "0.0-160.0-8.0"}}, {"uniqueid": "MTK0392:3NJM2BJS4XDRYDKC2Z7E6XNEHJECP5", "current_trial": 223, "dateTime": 1510781539694, "trialdata": {"rt": -1, "stimulus": "<p id=\"stim\">1</p>", "key_press": -1, "trial_type": "single-stim", "trial_index": 223, "time_elapsed": 1171563, "internal_node_id": "0.0-160.0-9.0"}}, {"uniqueid": "MTK0392:3NJM2BJS4XDRYDKC2Z7E6XNEHJECP5", "current_trial": 224, "dateTime": 1510781541195, "trialdata": {"rt": -1, "stimulus": "<p id=\"stim\">+</p>", "key_press": -1, "type": "FIXATION", "trial_type": "single-stim", "trial_index": 224, "time_elapsed": 1173064, "internal_node_id": "0.0-161.0-0.0"}}, {"uniqueid": "MTK0392:3NJM2BJS4XDRYDKC2Z7E6XNEHJECP5", "current_trial": 225, "dateTime": 1510781543886, "trialdata": {"rt": -1000, "stimulus": "/static/audio/wordpool/QUARTER.wav", "key_press": -1, "type": "PRES_AUD", "word": "quarter", "wordID": 1147, "conditions": [24, 1600, "a", 12000], "trial": 6, "serialpos": 0, "trial_type": "single-audio", "trial_index": 225, "time_elapsed": 1175755, "internal_node_id": "0.0-162.0"}}, {"uniqueid": "MTK0392:3NJM2BJS4XDRYDKC2Z7E6XNEHJECP5", "current_trial": 226, "dateTime": 1510781546618, "trialdata": {"rt": -1000, "stimulus": "/static/audio/wordpool/RATTLE.wav", "key_press": -1, "type": "PRES_AUD", "word": "rattle", "wordID": 1169, "conditions": [24, 1600, "a", 12000], "trial": 6, "serialpos": 1, "trial_type": "single-audio", "trial_index": 226, "time_elapsed": 1178487, "internal_node_id": "0.0-163.0"}}, {"uniqueid": "MTK0392:3NJM2BJS4XDRYDKC2Z7E6XNEHJECP5", "current_trial": 227, "dateTime": 1510781549134, "trialdata": {"rt": -1000, "stimulus": "/static/audio/wordpool/MISTER.wav", "key_press": -1, "type": "PRES_AUD", "word": "mister", "wordID": 900, "conditions": [24, 1600, "a", 12000], "trial": 6, "serialpos": 2, "trial_type": "single-audio", "trial_index": 227, "time_elapsed": 1181003, "internal_node_id": "0.0-164.0"}}, {"uniqueid": "MTK0392:3NJM2BJS4XDRYDKC2Z7E6XNEHJECP5", "current_trial": 228, "dateTime": 1510781551929, "trialdata": {"rt": -1000, "stimulus": "/static/audio/wordpool/BELLY.wav", "key_press": -1, "type": "PRES_AUD", "word": "belly", "wordID": 118, "conditions": [24, 1600, "a", 12000], "trial": 6, "serialpos": 3, "trial_type": "single-audio", "trial_index": 228, "time_elapsed": 1183797, "internal_node_id": "0.0-165.0"}}, {"uniqueid": "MTK0392:3NJM2BJS4XDRYDKC2Z7E6XNEHJECP5", "current_trial": 229, "dateTime": 1510781554352, "trialdata": {"rt": -1000, "stimulus": "/static/audio/wordpool/LOVER.wav", "key_press": -1, "type": "PRES_AUD", "word": "lover", "wordID": 845, "conditions": [24, 1600, "a", 12000], "trial": 6, "serialpos": 4, "trial_type": "single-audio", "trial_index": 229, "time_elapsed": 1186221, "internal_node_id": "0.0-166.0"}}, {"uniqueid": "MTK0392:3NJM2BJS4XDRYDKC2Z7E6XNEHJECP5", "current_trial": 230, "dateTime": 1510781557011, "trialdata": {"rt": -1000, "stimulus": "/static/audio/wordpool/OMELET.wav", "key_press": -1, "type": "PRES_AUD", "word": "omelet", "wordID": 975, "conditions": [24, 1600, "a", 12000], "trial": 6, "serialpos": 5, "trial_type": "single-audio", "trial_index": 230, "time_elapsed": 1188879, "internal_node_id": "0.0-167.0"}}, {"uniqueid": "MTK0392:3NJM2BJS4XDRYDKC2Z7E6XNEHJECP5", "current_trial": 231, "dateTime": 1510781559421, "trialdata": {"rt": -1000, "stimulus": "/static/audio/wordpool/BACON.wav", "key_press": -1, "type": "PRES_AUD", "word": "bacon", "wordID": 66, "conditions": [24, 1600, "a", 12000], "trial": 6, "serialpos": 6, "trial_type": "single-audio", "trial_index": 231, "time_elapsed": 1191290, "internal_node_id": "0.0-168.0"}}, {"uniqueid": "MTK0392:3NJM2BJS4XDRYDKC2Z7E6XNEHJECP5", "current_trial": 232, "dateTime": 1510781562055, "trialdata": {"rt": -1000, "stimulus": "/static/audio/wordpool/PIZZA.wav", "key_press": -1, "type": "PRES_AUD", "word": "pizza", "wordID": 1078, "conditions": [24, 1600, "a", 12000], "trial": 6, "serialpos": 7, "trial_type": "single-audio", "trial_index": 232, "time_elapsed": 1193924, "internal_node_id": "0.0-169.0"}}, {"uniqueid": "MTK0392:3NJM2BJS4XDRYDKC2Z7E6XNEHJECP5", "current_trial": 233, "dateTime": 1510781564560, "trialdata": {"rt": -1000, "stimulus": "/static/audio/wordpool/LILY.wav", "key_press": -1, "type": "PRES_AUD", "word": "lily", "wordID": 820, "conditions": [24, 1600, "a", 12000], "trial": 6, "serialpos": 8, "trial_type": "single-audio", "trial_index": 233, "time_elapsed": 1196429, "internal_node_id": "0.0-170.0"}}, {"uniqueid": "MTK0392:3NJM2BJS4XDRYDKC2Z7E6XNEHJECP5", "current_trial": 234, "dateTime": 1510781567076, "trialdata": {"rt": -1000, "stimulus": "/static/audio/wordpool/ONION.wav", "key_press": -1, "type": "PRES_AUD", "word": "onion", "wordID": 976, "conditions": [24, 1600, "a", 12000], "trial": 6, "serialpos": 9, "trial_type": "single-audio", "trial_index": 234, "time_elapsed": 1198945, "internal_node_id": "0.0-171.0"}}, {"uniqueid": "MTK0392:3NJM2BJS4XDRYDKC2Z7E6XNEHJECP5", "current_trial": 235, "dateTime": 1510781569795, "trialdata": {"rt": -1000, "stimulus": "/static/audio/wordpool/PASTA.wav", "key_press": -1, "type": "PRES_AUD", "word": "pasta", "wordID": 1020, "conditions": [24, 1600, "a", 12000], "trial": 6, "serialpos": 10, "trial_type": "single-audio", "trial_index": 235, "time_elapsed": 1201663, "internal_node_id": "0.0-172.0"}}, {"uniqueid": "MTK0392:3NJM2BJS4XDRYDKC2Z7E6XNEHJECP5", "current_trial": 236, "dateTime": 1510781572386, "trialdata": {"rt": -1000, "stimulus": "/static/audio/wordpool/CREATURE.wav", "key_press": -1, "type": "PRES_AUD", "word": "creature", "wordID": 402, "conditions": [24, 1600, "a", 12000], "trial": 6, "serialpos": 11, "trial_type": "single-audio", "trial_index": 236, "time_elapsed": 1204254, "internal_node_id": "0.0-173.0"}}, {"uniqueid": "MTK0392:3NJM2BJS4XDRYDKC2Z7E6XNEHJECP5", "current_trial": 237, "dateTime": 1510781574929, "trialdata": {"rt": -1000, "stimulus": "/static/audio/wordpool/DIVER.wav", "key_press": -1, "type": "PRES_AUD", "word": "diver", "wordID": 475, "conditions": [24, 1600, "a", 12000], "trial": 6, "serialpos": 12, "trial_type": "single-audio", "trial_index": 237, "time_elapsed": 1206797, "internal_node_id": "0.0-174.0"}}, {"uniqueid": "MTK0392:3NJM2BJS4XDRYDKC2Z7E6XNEHJECP5", "current_trial": 238, "dateTime": 1510781577709, "trialdata": {"rt": -1000, "stimulus": "/static/audio/wordpool/TURNIP.wav", "key_press": -1, "type": "PRES_AUD", "word": "turnip", "wordID": 1520, "conditions": [24, 1600, "a", 12000], "trial": 6, "serialpos": 13, "trial_type": "single-audio", "trial_index": 238, "time_elapsed": 1209577, "internal_node_id": "0.0-175.0"}}, {"uniqueid": "MTK0392:3NJM2BJS4XDRYDKC2Z7E6XNEHJECP5", "current_trial": 239, "dateTime": 1510781580500, "trialdata": {"rt": -1000, "stimulus": "/static/audio/wordpool/BLENDER.wav", "key_press": -1, "type": "PRES_AUD", "word": "blender", "wordID": 135, "conditions": [24, 1600, "a", 12000], "trial": 6, "serialpos": 14, "trial_type": "single-audio", "trial_index": 239, "time_elapsed": 1212367, "internal_node_id": "0.0-176.0"}}, {"uniqueid": "MTK0392:3NJM2BJS4XDRYDKC2Z7E6XNEHJECP5", "current_trial": 240, "dateTime": 1510781583229, "trialdata": {"rt": -1000, "stimulus": "/static/audio/wordpool/SKILLET.wav", "key_press": -1, "type": "PRES_AUD", "word": "skillet", "wordID": 1316, "conditions": [24, 1600, "a", 12000], "trial": 6, "serialpos": 15, "trial_type": "single-audio", "trial_index": 240, "time_elapsed": 1215098, "internal_node_id": "0.0-177.0"}}, {"uniqueid": "MTK0392:3NJM2BJS4XDRYDKC2Z7E6XNEHJECP5", "current_trial": 241, "dateTime": 1510781585755, "trialdata": {"rt": -1000, "stimulus": "/static/audio/wordpool/PATIENT.wav", "key_press": -1, "type": "PRES_AUD", "word": "patient", "wordID": 1023, "conditions": [24, 1600, "a", 12000], "trial": 6, "serialpos": 16, "trial_type": "single-audio", "trial_index": 241, "time_elapsed": 1217624, "internal_node_id": "0.0-178.0"}}, {"uniqueid": "MTK0392:3NJM2BJS4XDRYDKC2Z7E6XNEHJECP5", "current_trial": 242, "dateTime": 1510781588455, "trialdata": {"rt": -1000, "stimulus": "/static/audio/wordpool/STOMACH.wav", "key_press": -1, "type": "PRES_AUD", "word": "stomach", "wordID": 1383, "conditions": [24, 1600, "a", 12000], "trial": 6, "serialpos": 17, "trial_type": "single-audio", "trial_index": 242, "time_elapsed": 1220323, "internal_node_id": "0.0-179.0"}}, {"uniqueid": "MTK0392:3NJM2BJS4XDRYDKC2Z7E6XNEHJECP5", "current_trial": 243, "dateTime": 1510781590871, "trialdata": {"rt": -1000, "stimulus": "/static/audio/wordpool/SCALPEL.wav", "key_press": -1, "type": "PRES_AUD", "word": "scalpel", "wordID": 1242, "conditions": [24, 1600, "a", 12000], "trial": 6, "serialpos": 18, "trial_type": "single-audio", "trial_index": 243, "time_elapsed": 1222739, "internal_node_id": "0.0-180.0"}}, {"uniqueid": "MTK0392:3NJM2BJS4XDRYDKC2Z7E6XNEHJECP5", "current_trial": 244, "dateTime": 1510781593343, "trialdata": {"rt": -1000, "stimulus": "/static/audio/wordpool/FIREMAN.wav", "key_press": -1, "type": "PRES_AUD", "word": "fireman", "wordID": 568, "conditions": [24, 1600, "a", 12000], "trial": 6, "serialpos": 19, "trial_type": "single-audio", "trial_index": 244, "time_elapsed": 1225212, "internal_node_id": "0.0-181.0"}}, {"uniqueid": "MTK0392:3NJM2BJS4XDRYDKC2Z7E6XNEHJECP5", "current_trial": 245, "dateTime": 1510781596117, "trialdata": {"rt": -1000, "stimulus": "/static/audio/wordpool/SCISSORS.wav", "key_press": -1, "type": "PRES_AUD", "word": "scissors", "wordID": 1249, "conditions": [24, 1600, "a", 12000], "trial": 6, "serialpos": 20, "trial_type": "single-audio", "trial_index": 245, "time_elapsed": 1227986, "internal_node_id": "0.0-182.0"}}, {"uniqueid": "MTK0392:3NJM2BJS4XDRYDKC2Z7E6XNEHJECP5", "current_trial": 246, "dateTime": 1510781598670, "trialdata": {"rt": -1000, "stimulus": "/static/audio/wordpool/ASIA.wav", "key_press": -1, "type": "PRES_AUD", "word": "asia", "wordID": 45, "conditions": [24, 1600, "a", 12000], "trial": 6, "serialpos": 21, "trial_type": "single-audio", "trial_index": 246, "time_elapsed": 1230539, "internal_node_id": "0.0-183.0"}}, {"uniqueid": "MTK0392:3NJM2BJS4XDRYDKC2Z7E6XNEHJECP5", "current_trial": 247, "dateTime": 1510781601079, "trialdata": {"rt": -1000, "stimulus": "/static/audio/wordpool/APRON.wav", "key_press": -1, "type": "PRES_AUD", "word": "apron", "wordID": 34, "conditions": [24, 1600, "a", 12000], "trial": 6, "serialpos": 22, "trial_type": "single-audio", "trial_index": 247, "time_elapsed": 1232948, "internal_node_id": "0.0-184.0"}}, {"uniqueid": "MTK0392:3NJM2BJS4XDRYDKC2Z7E6XNEHJECP5", "current_trial": 248, "dateTime": 1510781603781, "trialdata": {"rt": -1000, "stimulus": "/static/audio/wordpool/SWIMMER.wav", "key_press": -1, "type": "PRES_AUD", "word": "swimmer", "wordID": 1419, "conditions": [24, 1600, "a", 12000], "trial": 6, "serialpos": 23, "trial_type": "single-audio", "trial_index": 248, "time_elapsed": 1235649, "internal_node_id": "0.0-185.0"}}, {"uniqueid": "MTK0392:3NJM2BJS4XDRYDKC2Z7E6XNEHJECP5", "current_trial": 249, "dateTime": 1510781605049, "trialdata": {"rt": -1, "stimulus": "", "key_press": -1, "type": "PRE_RECALL_DELAY", "trial_type": "single-stim", "trial_index": 249, "time_elapsed": 1236917, "internal_node_id": "0.0-186.0-0.0"}}, {"uniqueid": "MTK0392:3NJM2BJS4XDRYDKC2Z7E6XNEHJECP5", "current_trial": 250, "dateTime": 1510781605552, "trialdata": {"rt": -1000, "stimulus": "/static/audio/400Hz.wav", "key_press": -1, "type": "PRE_RECALL_ALERT", "trial_type": "single-audio", "trial_index": 250, "time_elapsed": 1237421, "internal_node_id": "0.0-187.0"}}, {"uniqueid": "MTK0392:3NJM2BJS4XDRYDKC2Z7E6XNEHJECP5", "current_trial": 251, "dateTime": 1510781665564, "trialdata": {"rt": [3415, 7813, 9152, 10665, 14836, 18654, 20708, 22535, 27078, 31314, 44279], "recwords": ["swimmer", "onion", "pizza", "pasta", "bacon", "lover", "quarter", "mister", "creature", "belly", "sisters"], "type": "FREE_RECALL", "conditions": [24, 1600, "a", 12000], "trial": 6, "trial_type": "free-recall", "trial_index": 251, "time_elapsed": 1297427, "internal_node_id": "0.0-188.0-0.0"}}, {"uniqueid": "MTK0392:3NJM2BJS4XDRYDKC2Z7E6XNEHJECP5", "current_trial": 252, "dateTime": 1510781711879, "trialdata": {"rt": 44312, "key_press": 32, "type": "INSTRUCTIONS", "trial_type": "text", "trial_index": 252, "time_elapsed": 1343747, "internal_node_id": "0.0-189.0"}}, {"uniqueid": "MTK0392:3NJM2BJS4XDRYDKC2Z7E6XNEHJECP5", "current_trial": 253, "dateTime": 1510781725892, "trialdata": {"rt": [2695, 4440, 6498, 8494, 11306], "responses": ["17", "8", "18", "14", "11"], "num1": [9, 1, 8, 1, 6, 2], "num2": [4, 3, 6, 6, 2, 7], "num3": [4, 4, 4, 7, 3, 1], "type": "DISTRACTOR", "conditions": [24, 800, "a", 12000], "trial": 7, "trial_type": "math-distractor", "trial_index": 253, "time_elapsed": 1357760, "internal_node_id": "0.0-190.0"}}, {"uniqueid": "MTK0392:3NJM2BJS4XDRYDKC2Z7E6XNEHJECP5", "current_trial": 254, "dateTime": 1510781728897, "trialdata": {"rt": -1, "stimulus": "<p id=\"stim\">10</p>", "key_press": -1, "trial_type": "single-stim", "trial_index": 254, "time_elapsed": 1360764, "internal_node_id": "0.0-191.0-0.0"}}, {"uniqueid": "MTK0392:3NJM2BJS4XDRYDKC2Z7E6XNEHJECP5", "current_trial": 255, "dateTime": 1510781729900, "trialdata": {"rt": -1, "stimulus": "<p id=\"stim\">9</p>", "key_press": -1, "trial_type": "single-stim", "trial_index": 255, "time_elapsed": 1361768, "internal_node_id": "0.0-191.0-1.0"}}, {"uniqueid": "MTK0392:3NJM2BJS4XDRYDKC2Z7E6XNEHJECP5", "current_trial": 256, "dateTime": 1510781730901, "trialdata": {"rt": -1, "stimulus": "<p id=\"stim\">8</p>", "key_press": -1, "trial_type": "single-stim", "trial_index": 256, "time_elapsed": 1362770, "internal_node_id": "0.0-191.0-2.0"}}, {"uniqueid": "MTK0392:3NJM2BJS4XDRYDKC2Z7E6XNEHJECP5", "current_trial": 257, "dateTime": 1510781731903, "trialdata": {"rt": -1, "stimulus": "<p id=\"stim\">7</p>", "key_press": -1, "trial_type": "single-stim", "trial_index": 257, "time_elapsed": 1363772, "internal_node_id": "0.0-191.0-3.0"}}, {"uniqueid": "MTK0392:3NJM2BJS4XDRYDKC2Z7E6XNEHJECP5", "current_trial": 258, "dateTime": 1510781732904, "trialdata": {"rt": -1, "stimulus": "<p id=\"stim\">6</p>", "key_press": -1, "trial_type": "single-stim", "trial_index": 258, "time_elapsed": 1364773, "internal_node_id": "0.0-191.0-4.0"}}, {"uniqueid": "MTK0392:3NJM2BJS4XDRYDKC2Z7E6XNEHJECP5", "current_trial": 259, "dateTime": 1510781733906, "trialdata": {"rt": -1, "stimulus": "<p id=\"stim\">5</p>", "key_press": -1, "trial_type": "single-stim", "trial_index": 259, "time_elapsed": 1365775, "internal_node_id": "0.0-191.0-5.0"}}, {"uniqueid": "MTK0392:3NJM2BJS4XDRYDKC2Z7E6XNEHJECP5", "current_trial": 260, "dateTime": 1510781734908, "trialdata": {"rt": -1, "stimulus": "<p id=\"stim\">4</p>", "key_press": -1, "trial_type": "single-stim", "trial_index": 260, "time_elapsed": 1366777, "internal_node_id": "0.0-191.0-6.0"}}, {"uniqueid": "MTK0392:3NJM2BJS4XDRYDKC2Z7E6XNEHJECP5", "current_trial": 261, "dateTime": 1510781735909, "trialdata": {"rt": -1, "stimulus": "<p id=\"stim\">3</p>", "key_press": -1, "trial_type": "single-stim", "trial_index": 261, "time_elapsed": 1367778, "internal_node_id": "0.0-191.0-7.0"}}, {"uniqueid": "MTK0392:3NJM2BJS4XDRYDKC2Z7E6XNEHJECP5", "current_trial": 262, "dateTime": 1510781736911, "trialdata": {"rt": -1, "stimulus": "<p id=\"stim\">2</p>", "key_press": -1, "trial_type": "single-stim", "trial_index": 262, "time_elapsed": 1368779, "internal_node_id": "0.0-191.0-8.0"}}, {"uniqueid": "MTK0392:3NJM2BJS4XDRYDKC2Z7E6XNEHJECP5", "current_trial": 263, "dateTime": 1510781737914, "trialdata": {"rt": -1, "stimulus": "<p id=\"stim\">1</p>", "key_press": -1, "trial_type": "single-stim", "trial_index": 263, "time_elapsed": 1369782, "internal_node_id": "0.0-191.0-9.0"}}, {"uniqueid": "MTK0392:3NJM2BJS4XDRYDKC2Z7E6XNEHJECP5", "current_trial": 264, "dateTime": 1510781739415, "trialdata": {"rt": -1, "stimulus": "<p id=\"stim\">+</p>", "key_press": -1, "type": "FIXATION", "trial_type": "single-stim", "trial_index": 264, "time_elapsed": 1371284, "internal_node_id": "0.0-192.0-0.0"}}, {"uniqueid": "MTK0392:3NJM2BJS4XDRYDKC2Z7E6XNEHJECP5", "current_trial": 265, "dateTime": 1510781741248, "trialdata": {"rt": -1000, "stimulus": "/static/audio/wordpool/HUMAN.wav", "key_press": -1, "type": "PRES_AUD", "word": "human", "wordID": 725, "conditions": [24, 800, "a", 12000], "trial": 7, "serialpos": 0, "trial_type": "single-audio", "trial_index": 265, "time_elapsed": 1373116, "internal_node_id": "0.0-193.0"}}, {"uniqueid": "MTK0392:3NJM2BJS4XDRYDKC2Z7E6XNEHJECP5", "current_trial": 266, "dateTime": 1510781743069, "trialdata": {"rt": -1000, "stimulus": "/static/audio/wordpool/PUPPY.wav", "key_press": -1, "type": "PRES_AUD", "word": "puppy", "wordID": 1143, "conditions": [24, 800, "a", 12000], "trial": 7, "serialpos": 1, "trial_type": "single-audio", "trial_index": 266, "time_elapsed": 1374938, "internal_node_id": "0.0-194.0"}}, {"uniqueid": "MTK0392:3NJM2BJS4XDRYDKC2Z7E6XNEHJECP5", "current_trial": 267, "dateTime": 1510781744738, "trialdata": {"rt": -1000, "stimulus": "/static/audio/wordpool/BIKE.wav", "key_press": -1, "type": "PRES_AUD", "word": "bike", "wordID": 124, "conditions": [24, 800, "a", 12000], "trial": 7, "serialpos": 2, "trial_type": "single-audio", "trial_index": 267, "time_elapsed": 1376607, "internal_node_id": "0.0-195.0"}}, {"uniqueid": "MTK0392:3NJM2BJS4XDRYDKC2Z7E6XNEHJECP5", "current_trial": 268, "dateTime": 1510781746609, "trialdata": {"rt": -1000, "stimulus": "/static/audio/wordpool/PIANO.wav", "key_press": -1, "type": "PRES_AUD", "word": "piano", "wordID": 1056, "conditions": [24, 800, "a", 12000], "trial": 7, "serialpos": 3, "trial_type": "single-audio", "trial_index": 268, "time_elapsed": 1378478, "internal_node_id": "0.0-196.0"}}, {"uniqueid": "MTK0392:3NJM2BJS4XDRYDKC2Z7E6XNEHJECP5", "current_trial": 269, "dateTime": 1510781748543, "trialdata": {"rt": -1000, "stimulus": "/static/audio/wordpool/SADDLE.wav", "key_press": -1, "type": "PRES_AUD", "word": "sad