{"condition": 0, "counterbalance": 796, "assignmentId": "3BXQMRHWK05HZ44ZWA0MJZFPKBAUMW", "workerId": "MTK0664", "hitId": "3PIOQ99R7YTLU2R5I9AK7U85AZAUNS", "currenttrial": 415, "bonus": 0, "data": [{"uniqueid": "MTK0664:3BXQMRHWK05HZ44ZWA0MJZFPKBAUMW", "current_trial": 0, "dateTime": 1512584962119, "trialdata": {"rt": 3542, "key_press": 32, "type": "INSTRUCTIONS", "trial_type": "text", "trial_index": 0, "time_elapsed": 3544, "internal_node_id": "0.0-0.0"}}, {"uniqueid": "MTK0664:3BXQMRHWK05HZ44ZWA0MJZFPKBAUMW", "current_trial": 1, "dateTime": 1512584962558, "trialdata": {"rt": 438, "key_press": 32, "type": "INSTRUCTIONS", "trial_type": "text", "trial_index": 1, "time_elapsed": 3984, "internal_node_id": "0.0-1.0"}}, {"uniqueid": "MTK0664:3BXQMRHWK05HZ44ZWA0MJZFPKBAUMW", "current_trial": 2, "dateTime": 1512585128717, "trialdata": {"rt": [301, 166155], "responses": ["", "ocean"], "type": "AUDIO_TEST", "trial_type": "audio-test", "trial_index": 2, "time_elapsed": 170143, "internal_node_id": "0.0-2.0"}}, {"uniqueid": "MTK0664:3BXQMRHWK05HZ44ZWA0MJZFPKBAUMW", "current_trial": 3, "dateTime": 1512585135957, "trialdata": {"rt": [7237], "responses": ["crystal"], "type": "AUDIO_TEST", "trial_type": "audio-test", "trial_index": 3, "time_elapsed": 177383, "internal_node_id": "0.0-3.0"}}, {"uniqueid": "MTK0664:3BXQMRHWK05HZ44ZWA0MJZFPKBAUMW", "current_trial": 4, "dateTime": 1512585144213, "trialdata": {"rt": [8253], "responses": ["spice"], "type": "AUDIO_TEST", "trial_type": "audio-test", "trial_index": 4, "time_elapsed": 185639, "internal_node_id": "0.0-4.0"}}, {"uniqueid": "MTK0664:3BXQMRHWK05HZ44ZWA0MJZFPKBAUMW", "current_trial": 5, "dateTime": 1512585158570, "trialdata": {"rt": 13604, "responses": "{\"Q0\":\"11 pm\",\"Q1\":\"5am\",\"Q2\":\"5\"}", "type": "SLEEP_SURVEY", "trial_type": "survey-text", "trial_index": 5, "time_elapsed": 199996, "internal_node_id": "0.0-5.0"}}, {"uniqueid": "MTK0664:3BXQMRHWK05HZ44ZWA0MJZFPKBAUMW", "current_trial": 6, "dateTime": 1512585161428, "trialdata": {"rt": 1855, "key_press": 32, "type": "INSTRUCTIONS", "trial_type": "text", "trial_index": 6, "time_elapsed": 202854, "internal_node_id": "0.0-6.0"}}, {"uniqueid": "MTK0664:3BXQMRHWK05HZ44ZWA0MJZFPKBAUMW", "current_trial": 7, "dateTime": 1512585166052, "trialdata": {"rt": 4120, "key_press": 32, "type": "INSTRUCTIONS", "trial_type": "text", "trial_index": 7, "time_elapsed": 207478, "internal_node_id": "0.0-7.0"}}, {"uniqueid": "MTK0664:3BXQMRHWK05HZ44ZWA0MJZFPKBAUMW", "current_trial": 8, "dateTime": 1512585167028, "trialdata": {"rt": 470, "key_press": 32, "type": "INSTRUCTIONS", "trial_type": "text", "trial_index": 8, "time_elapsed": 208454, "internal_node_id": "0.0-8.0"}}, {"uniqueid": "MTK0664:3BXQMRHWK05HZ44ZWA0MJZFPKBAUMW", "current_trial": 9, "dateTime": 1512585186034, "trialdata": {"rt": [4125, 7981, 9021, 9365, 9653, 9933, 10461, 11109, 11853, 12469, 13005, 13414, 13669, 14093, 15325, 15685, 16173, 16477, 16845, 17110, 17373, 17637], "responses": ["18", "4", "3", "2", "3", "3", "43", "2", "31", "1", "2", "12", "", "2", "1", "2", "332", "", "32", "3", "2", "32"], "num1": [3, 3, 2, 5, 9, 5, 9, 7, 9, 4, 4, 6, 6, 4, 3, 5, 1, 9, 9, 5, 5, 2, 1], "num2": [6, 2, 1, 1, 7, 6, 8, 5, 7, 3, 9, 3, 7, 4, 5, 9, 3, 1, 3, 1, 4, 2, 4], "num3": [9, 2, 9, 6, 6, 5, 6, 5, 4, 4, 4, 8, 4, 4, 8, 4, 7, 8, 4, 9, 2, 2, 9], "type": "DISTRACTOR", "conditions": [18, 1200, "a", 18000], "trial": 0, "trial_type": "math-distractor", "trial_index": 9, "time_elapsed": 227460, "internal_node_id": "0.0-9.0"}}, {"uniqueid": "MTK0664:3BXQMRHWK05HZ44ZWA0MJZFPKBAUMW", "current_trial": 10, "dateTime": 1512585189040, "trialdata": {"rt": -1, "stimulus": "<p id=\"stim\">10</p>", "key_press": -1, "trial_type": "single-stim", "trial_index": 10, "time_elapsed": 230466, "internal_node_id": "0.0-10.0-0.0"}}, {"uniqueid": "MTK0664:3BXQMRHWK05HZ44ZWA0MJZFPKBAUMW", "current_trial": 11, "dateTime": 1512585190044, "trialdata": {"rt": -1, "stimulus": "<p id=\"stim\">9</p>", "key_press": -1, "trial_type": "single-stim", "trial_index": 11, "time_elapsed": 231470, "internal_node_id": "0.0-10.0-1.0"}}, {"uniqueid": "MTK0664:3BXQMRHWK05HZ44ZWA0MJZFPKBAUMW", "current_trial": 12, "dateTime": 1512585191048, "trialdata": {"rt": -1, "stimulus": "<p id=\"stim\">8</p>", "key_press": -1, "trial_type": "single-stim", "trial_index": 12, "time_elapsed": 232474, "internal_node_id": "0.0-10.0-2.0"}}, {"uniqueid": "MTK0664:3BXQMRHWK05HZ44ZWA0MJZFPKBAUMW", "current_trial": 13, "dateTime": 1512585192050, "trialdata": {"rt": -1, "stimulus": "<p id=\"stim\">7</p>", "key_press": -1, "trial_type": "single-stim", "trial_index": 13, "time_elapsed": 233476, "internal_node_id": "0.0-10.0-3.0"}}, {"uniqueid": "MTK0664:3BXQMRHWK05HZ44ZWA0MJZFPKBAUMW", "current_trial": 14, "dateTime": 1512585193055, "trialdata": {"rt": -1, "stimulus": "<p id=\"stim\">6</p>", "key_press": -1, "trial_type": "single-stim", "trial_index": 14, "time_elapsed": 234481, "internal_node_id": "0.0-10.0-4.0"}}, {"uniqueid": "MTK0664:3BXQMRHWK05HZ44ZWA0MJZFPKBAUMW", "current_trial": 15, "dateTime": 1512585194060, "trialdata": {"rt": -1, "stimulus": "<p id=\"stim\">5</p>", "key_press": -1, "trial_type": "single-stim", "trial_index": 15, "time_elapsed": 235486, "internal_node_id": "0.0-10.0-5.0"}}, {"uniqueid": "MTK0664:3BXQMRHWK05HZ44ZWA0MJZFPKBAUMW", "current_trial": 16, "dateTime": 1512585195062, "trialdata": {"rt": -1, "stimulus": "<p id=\"stim\">4</p>", "key_press": -1, "trial_type": "single-stim", "trial_index": 16, "time_elapsed": 236488, "internal_node_id": "0.0-10.0-6.0"}}, {"uniqueid": "MTK0664:3BXQMRHWK05HZ44ZWA0MJZFPKBAUMW", "current_trial": 17, "dateTime": 1512585196062, "trialdata": {"rt": -1, "stimulus": "<p id=\"stim\">3</p>", "key_press": -1, "trial_type": "single-stim", "trial_index": 17, "time_elapsed": 237488, "internal_node_id": "0.0-10.0-7.0"}}, {"uniqueid": "MTK0664:3BXQMRHWK05HZ44ZWA0MJZFPKBAUMW", "current_trial": 18, "dateTime": 1512585197063, "trialdata": {"rt": -1, "stimulus": "<p id=\"stim\">2</p>", "key_press": -1, "trial_type": "single-stim", "trial_index": 18, "time_elapsed": 238489, "internal_node_id": "0.0-10.0-8.0"}}, {"uniqueid": "MTK0664:3BXQMRHWK05HZ44ZWA0MJZFPKBAUMW", "current_trial": 19, "dateTime": 1512585198065, "trialdata": {"rt": -1, "stimulus": "<p id=\"stim\">1</p>", "key_press": -1, "trial_type": "single-stim", "trial_index": 19, "time_elapsed": 239491, "internal_node_id": "0.0-10.0-9.0"}}, {"uniqueid": "MTK0664:3BXQMRHWK05HZ44ZWA0MJZFPKBAUMW", "current_trial": 20, "dateTime": 1512585199568, "trialdata": {"rt": -1, "stimulus": "<p id=\"stim\">+</p>", "key_press": -1, "type": "FIXATION", "trial_type": "single-stim", "trial_index": 20, "time_elapsed": 240994, "internal_node_id": "0.0-11.0-0.0"}}, {"uniqueid": "MTK0664:3BXQMRHWK05HZ44ZWA0MJZFPKBAUMW", "current_trial": 21, "dateTime": 1512585201592, "trialdata": {"rt": -1000, "stimulus": "/static/audio/wordpool/BISON.wav", "key_press": -1, "type": "PRES_AUD", "word": "bison", "wordID": 130, "conditions": [18, 1200, "a", 18000], "trial": 0, "serialpos": 0, "trial_type": "single-audio", "trial_index": 21, "time_elapsed": 243018, "internal_node_id": "0.0-12.0"}}, {"uniqueid": "MTK0664:3BXQMRHWK05HZ44ZWA0MJZFPKBAUMW", "current_trial": 22, "dateTime": 1512585203650, "trialdata": {"rt": -1000, "stimulus": "/static/audio/wordpool/WIDOW.wav", "key_press": -1, "type": "PRES_AUD", "word": "widow", "wordID": 1607, "conditions": [18, 1200, "a", 18000], "trial": 0, "serialpos": 1, "trial_type": "single-audio", "trial_index": 22, "time_elapsed": 245076, "internal_node_id": "0.0-13.0"}}, {"uniqueid": "MTK0664:3BXQMRHWK05HZ44ZWA0MJZFPKBAUMW", "current_trial": 23, "dateTime": 1512585205933, "trialdata": {"rt": -1000, "stimulus": "/static/audio/wordpool/SHELF.wav", "key_press": -1, "type": "PRES_AUD", "word": "shelf", "wordID": 1279, "conditions": [18, 1200, "a", 18000], "trial": 0, "serialpos": 2, "trial_type": "single-audio", "trial_index": 23, "time_elapsed": 247359, "internal_node_id": "0.0-14.0"}}, {"uniqueid": "MTK0664:3BXQMRHWK05HZ44ZWA0MJZFPKBAUMW", "current_trial": 24, "dateTime": 1512585208273, "trialdata": {"rt": -1000, "stimulus": "/static/audio/wordpool/FOREST.wav", "key_press": -1, "type": "PRES_AUD", "word": "forest", "wordID": 592, "conditions": [18, 1200, "a", 18000], "trial": 0, "serialpos": 3, "trial_type": "single-audio", "trial_index": 24, "time_elapsed": 249699, "internal_node_id": "0.0-15.0"}}, {"uniqueid": "MTK0664:3BXQMRHWK05HZ44ZWA0MJZFPKBAUMW", "current_trial": 25, "dateTime": 1512585210466, "trialdata": {"rt": -1000, "stimulus": "/static/audio/wordpool/FIDDLE.wav", "key_press": -1, "type": "PRES_AUD", "word": "fiddle", "wordID": 560, "conditions": [18, 1200, "a", 18000], "trial": 0, "serialpos": 4, "trial_type": "single-audio", "trial_index": 25, "time_elapsed": 251892, "internal_node_id": "0.0-16.0"}}, {"uniqueid": "MTK0664:3BXQMRHWK05HZ44ZWA0MJZFPKBAUMW", "current_trial": 26, "dateTime": 1512585212812, "trialdata": {"rt": -1000, "stimulus": "/static/audio/wordpool/SOFTBALL.wav", "key_press": -1, "type": "PRES_AUD", "word": "softball", "wordID": 1342, "conditions": [18, 1200, "a", 18000], "trial": 0, "serialpos": 5, "trial_type": "single-audio", "trial_index": 26, "time_elapsed": 254238, "internal_node_id": "0.0-17.0"}}, {"uniqueid": "MTK0664:3BXQMRHWK05HZ44ZWA0MJZFPKBAUMW", "current_trial": 27, "dateTime": 1512585214963, "trialdata": {"rt": -1000, "stimulus": "/static/audio/wordpool/GOBLIN.wav", "key_press": -1, "type": "PRES_AUD", "word": "goblin", "wordID": 644, "conditions": [18, 1200, "a", 18000], "trial": 0, "serialpos": 6, "trial_type": "single-audio", "trial_index": 27, "time_elapsed": 256389, "internal_node_id": "0.0-18.0"}}, {"uniqueid": "MTK0664:3BXQMRHWK05HZ44ZWA0MJZFPKBAUMW", "current_trial": 28, "dateTime": 1512585217171, "trialdata": {"rt": -1000, "stimulus": "/static/audio/wordpool/STAR.wav", "key_press": -1, "type": "PRES_AUD", "word": "star", "wordID": 1372, "conditions": [18, 1200, "a", 18000], "trial": 0, "serialpos": 7, "trial_type": "single-audio", "trial_index": 28, "time_elapsed": 258597, "internal_node_id": "0.0-19.0"}}, {"uniqueid": "MTK0664:3BXQMRHWK05HZ44ZWA0MJZFPKBAUMW", "current_trial": 29, "dateTime": 1512585219571, "trialdata": {"rt": -1000, "stimulus": "/static/audio/wordpool/SWAMP.wav", "key_press": -1, "type": "PRES_AUD", "word": "swamp", "wordID": 1415, "conditions": [18, 1200, "a", 18000], "trial": 0, "serialpos": 8, "trial_type": "single-audio", "trial_index": 29, "time_elapsed": 260997, "internal_node_id": "0.0-20.0"}}, {"uniqueid": "MTK0664:3BXQMRHWK05HZ44ZWA0MJZFPKBAUMW", "current_trial": 30, "dateTime": 1512585221817, "trialdata": {"rt": -1000, "stimulus": "/static/audio/wordpool/BEAVER.wav", "key_press": -1, "type": "PRES_AUD", "word": "beaver", "wordID": 108, "conditions": [18, 1200, "a", 18000], "trial": 0, "serialpos": 9, "trial_type": "single-audio", "trial_index": 30, "time_elapsed": 263243, "internal_node_id": "0.0-21.0"}}, {"uniqueid": "MTK0664:3BXQMRHWK05HZ44ZWA0MJZFPKBAUMW", "current_trial": 31, "dateTime": 1512585224126, "trialdata": {"rt": -1000, "stimulus": "/static/audio/wordpool/FILM.wav", "key_press": -1, "type": "PRES_AUD", "word": "film", "wordID": 564, "conditions": [18, 1200, "a", 18000], "trial": 0, "serialpos": 10, "trial_type": "single-audio", "trial_index": 31, "time_elapsed": 265552, "internal_node_id": "0.0-22.0"}}, {"uniqueid": "MTK0664:3BXQMRHWK05HZ44ZWA0MJZFPKBAUMW", "current_trial": 32, "dateTime": 1512585226175, "trialdata": {"rt": -1000, "stimulus": "/static/audio/wordpool/EXPERT.wav", "key_press": -1, "type": "PRES_AUD", "word": "expert", "wordID": 542, "conditions": [18, 1200, "a", 18000], "trial": 0, "serialpos": 11, "trial_type": "single-audio", "trial_index": 32, "time_elapsed": 267601, "internal_node_id": "0.0-23.0"}}, {"uniqueid": "MTK0664:3BXQMRHWK05HZ44ZWA0MJZFPKBAUMW", "current_trial": 33, "dateTime": 1512585228526, "trialdata": {"rt": -1000, "stimulus": "/static/audio/wordpool/ASIA.wav", "key_press": -1, "type": "PRES_AUD", "word": "asia", "wordID": 45, "conditions": [18, 1200, "a", 18000], "trial": 0, "serialpos": 12, "trial_type": "single-audio", "trial_index": 33, "time_elapsed": 269952, "internal_node_id": "0.0-24.0"}}, {"uniqueid": "MTK0664:3BXQMRHWK05HZ44ZWA0MJZFPKBAUMW", "current_trial": 34, "dateTime": 1512585230906, "trialdata": {"rt": -1000, "stimulus": "/static/audio/wordpool/DRESSER.wav", "key_press": -1, "type": "PRES_AUD", "word": "dresser", "wordID": 495, "conditions": [18, 1200, "a", 18000], "trial": 0, "serialpos": 13, "trial_type": "single-audio", "trial_index": 34, "time_elapsed": 272332, "internal_node_id": "0.0-25.0"}}, {"uniqueid": "MTK0664:3BXQMRHWK05HZ44ZWA0MJZFPKBAUMW", "current_trial": 35, "dateTime": 1512585232944, "trialdata": {"rt": -1000, "stimulus": "/static/audio/wordpool/EMPIRE.wav", "key_press": -1, "type": "PRES_AUD", "word": "empire", "wordID": 529, "conditions": [18, 1200, "a", 18000], "trial": 0, "serialpos": 14, "trial_type": "single-audio", "trial_index": 35, "time_elapsed": 274370, "internal_node_id": "0.0-26.0"}}, {"uniqueid": "MTK0664:3BXQMRHWK05HZ44ZWA0MJZFPKBAUMW", "current_trial": 36, "dateTime": 1512585235337, "trialdata": {"rt": -1000, "stimulus": "/static/audio/wordpool/CHAMPAGNE.wav", "key_press": -1, "type": "PRES_AUD", "word": "champagne", "wordID": 277, "conditions": [18, 1200, "a", 18000], "trial": 0, "serialpos": 15, "trial_type": "single-audio", "trial_index": 36, "time_elapsed": 276763, "internal_node_id": "0.0-27.0"}}, {"uniqueid": "MTK0664:3BXQMRHWK05HZ44ZWA0MJZFPKBAUMW", "current_trial": 37, "dateTime": 1512585237365, "trialdata": {"rt": -1000, "stimulus": "/static/audio/wordpool/STONE.wav", "key_press": -1, "type": "PRES_AUD", "word": "stone", "wordID": 1384, "conditions": [18, 1200, "a", 18000], "trial": 0, "serialpos": 16, "trial_type": "single-audio", "trial_index": 37, "time_elapsed": 278791, "internal_node_id": "0.0-28.0"}}, {"uniqueid": "MTK0664:3BXQMRHWK05HZ44ZWA0MJZFPKBAUMW", "current_trial": 38, "dateTime": 1512585239387, "trialdata": {"rt": -1000, "stimulus": "/static/audio/wordpool/SPONGE.wav", "key_press": -1, "type": "PRES_AUD", "word": "sponge", "wordID": 1354, "conditions": [18, 1200, "a", 18000], "trial": 0, "serialpos": 17, "trial_type": "single-audio", "trial_index": 38, "time_elapsed": 280813, "internal_node_id": "0.0-29.0"}}, {"uniqueid": "MTK0664:3BXQMRHWK05HZ44ZWA0MJZFPKBAUMW", "current_trial": 39, "dateTime": 1512585240607, "trialdata": {"rt": -1, "stimulus": "", "key_press": -1, "type": "PRE_RECALL_DELAY", "trial_type": "single-stim", "trial_index": 39, "time_elapsed": 282032, "internal_node_id": "0.0-30.0-0.0"}}, {"uniqueid": "MTK0664:3BXQMRHWK05HZ44ZWA0MJZFPKBAUMW", "current_trial": 40, "dateTime": 1512585241108, "trialdata": {"rt": -1000, "stimulus": "/static/audio/400Hz.wav", "key_press": -1, "type": "PRE_RECALL_ALERT", "trial_type": "single-audio", "trial_index": 40, "time_elapsed": 282534, "internal_node_id": "0.0-31.0"}}, {"uniqueid": "MTK0664:3BXQMRHWK05HZ44ZWA0MJZFPKBAUMW", "current_trial": 41, "dateTime": 1512585301114, "trialdata": {"rt": [3566, 5406, 9213, 11221, 13141, 15549, 16142, 16341, 16486, 16645, 16797, 16925, 17053, 17205, 17349, 17851, 17935, 18017, 18102, 18185, 18268, 18352, 18541, 18757, 18869, 19088, 19213, 19359, 19509, 19845, 19901, 20126, 20189, 20373, 20493, 20637, 20918, 21141, 21397], "recwords": ["stone", "strs", "star", "man", "weird", "angry", "", "", "", "", "", "", "", "", "", "", "", "", "", "", "", "", "", "", "", "", "", "", "", "", "", "", "", "", "", "", "", "", ""], "type": "FREE_RECALL", "conditions": [18, 1200, "a", 18000], "trial": 0, "trial_type": "free-recall", "trial_index": 41, "time_elapsed": 342539, "internal_node_id": "0.0-32.0-0.0"}}, {"uniqueid": "MTK0664:3BXQMRHWK05HZ44ZWA0MJZFPKBAUMW", "current_trial": 42, "dateTime": 1512585304970, "trialdata": {"rt": 1855, "key_press": 32, "type": "INSTRUCTIONS", "trial_type": "text", "trial_index": 42, "time_elapsed": 346396, "internal_node_id": "0.0-33.0"}}, {"uniqueid": "MTK0664:3BXQMRHWK05HZ44ZWA0MJZFPKBAUMW", "current_trial": 43, "dateTime": 1512585324979, "trialdata": {"rt": [6100, 6436, 6628, 6908, 7292, 7540, 7780, 7972, 8204, 8372, 8604, 8820, 9068, 9252, 9428, 10012, 13788, 15500, 17076, 17636], "responses": ["8", "8", "8", "7", "56", "6", "4", "53", "4", "3", "4", "2", "34", "", "5", "534", "17", "12", "5", "1"], "num1": [1, 2, 5, 1, 2, 4, 9, 1, 6, 8, 3, 2, 1, 2, 4, 5, 6, 4, 2, 4, 6], "num2": [5, 7, 6, 5, 9, 6, 9, 8, 7, 5, 7, 1, 1, 5, 5, 8, 5, 2, 3, 8, 6], "num3": [2, 8, 7, 7, 7, 8, 1, 2, 6, 4, 3, 5, 8, 6, 6, 1, 6, 6, 1, 1, 6], "type": "DISTRACTOR", "conditions": [18, 1200, "v", 18000], "trial": 1, "trial_type": "math-distractor", "trial_index": 43, "time_elapsed": 366405, "internal_node_id": "0.0-34.0"}}, {"uniqueid": "MTK0664:3BXQMRHWK05HZ44ZWA0MJZFPKBAUMW", "current_trial": 44, "dateTime": 1512585327985, "trialdata": {"rt": -1, "stimulus": "<p id=\"stim\">10</p>", "key_press": -1, "trial_type": "single-stim", "trial_index": 44, "time_elapsed": 369411, "internal_node_id": "0.0-35.0-0.0"}}, {"uniqueid": "MTK0664:3BXQMRHWK05HZ44ZWA0MJZFPKBAUMW", "current_trial": 45, "dateTime": 1512585328986, "trialdata": {"rt": -1, "stimulus": "<p id=\"stim\">9</p>", "key_press": -1, "trial_type": "single-stim", "trial_index": 45, "time_elapsed": 370412, "internal_node_id": "0.0-35.0-1.0"}}, {"uniqueid": "MTK0664:3BXQMRHWK05HZ44ZWA0MJZFPKBAUMW", "current_trial": 46, "dateTime": 1512585329987, "trialdata": {"rt": -1, "stimulus": "<p id=\"stim\">8</p>", "key_press": -1, "trial_type": "single-stim", "trial_index": 46, "time_elapsed": 371413, "internal_node_id": "0.0-35.0-2.0"}}, {"uniqueid": "MTK0664:3BXQMRHWK05HZ44ZWA0MJZFPKBAUMW", "current_trial": 47, "dateTime": 1512585330988, "trialdata": {"rt": -1, "stimulus": "<p id=\"stim\">7</p>", "key_press": -1, "trial_type": "single-stim", "trial_index": 47, "time_elapsed": 372414, "internal_node_id": "0.0-35.0-3.0"}}, {"uniqueid": "MTK0664:3BXQMRHWK05HZ44ZWA0MJZFPKBAUMW", "current_trial": 48, "dateTime": 1512585331989, "trialdata": {"rt": -1, "stimulus": "<p id=\"stim\">6</p>", "key_press": -1, "trial_type": "single-stim", "trial_index": 48, "time_elapsed": 373415, "internal_node_id": "0.0-35.0-4.0"}}, {"uniqueid": "MTK0664:3BXQMRHWK05HZ44ZWA0MJZFPKBAUMW", "current_trial": 49, "dateTime": 1512585332994, "trialdata": {"rt": -1, "stimulus": "<p id=\"stim\">5</p>", "key_press": -1, "trial_type": "single-stim", "trial_index": 49, "time_elapsed": 374420, "internal_node_id": "0.0-35.0-5.0"}}, {"uniqueid": "MTK0664:3BXQMRHWK05HZ44ZWA0MJZFPKBAUMW", "current_trial": 50, "dateTime": 1512585333994, "trialdata": {"rt": -1, "stimulus": "<p id=\"stim\">4</p>", "key_press": -1, "trial_type": "single-stim", "trial_index": 50, "time_elapsed": 375420, "internal_node_id": "0.0-35.0-6.0"}}, {"uniqueid": "MTK0664:3BXQMRHWK05HZ44ZWA0MJZFPKBAUMW", "current_trial": 51, "dateTime": 1512585334995, "trialdata": {"rt": -1, "stimulus": "<p id=\"stim\">3</p>", "key_press": -1, "trial_type": "single-stim", "trial_index": 51, "time_elapsed": 376421, "internal_node_id": "0.0-35.0-7.0"}}, {"uniqueid": "MTK0664:3BXQMRHWK05HZ44ZWA0MJZFPKBAUMW", "current_trial": 52, "dateTime": 1512585336000, "trialdata": {"rt": -1, "stimulus": "<p id=\"stim\">2</p>", "key_press": -1, "trial_type": "single-stim", "trial_index": 52, "time_elapsed": 377426, "internal_node_id": "0.0-35.0-8.0"}}, {"uniqueid": "MTK0664:3BXQMRHWK05HZ44ZWA0MJZFPKBAUMW", "current_trial": 53, "dateTime": 1512585337002, "trialdata": {"rt": -1, "stimulus": "<p id=\"stim\">1</p>", "key_press": -1, "trial_type": "single-stim", "trial_index": 53, "time_elapsed": 378428, "internal_node_id": "0.0-35.0-9.0"}}, {"uniqueid": "MTK0664:3BXQMRHWK05HZ44ZWA0MJZFPKBAUMW", "current_trial": 54, "dateTime": 1512585338508, "trialdata": {"rt": -1, "stimulus": "<p id=\"stim\">+</p>", "key_press": -1, "type": "FIXATION", "trial_type": "single-stim", "trial_index": 54, "time_elapsed": 379934, "internal_node_id": "0.0-36.0-0.0"}}, {"uniqueid": "MTK0664:3BXQMRHWK05HZ44ZWA0MJZFPKBAUMW", "current_trial": 55, "dateTime": 1512585339709, "trialdata": {"rt": -1, "stimulus": "<p id=\"stim\">COWBOY</p>", "key_press": -1, "type": "PRES_VIS", "word": "cowboy", "wordID": 394, "conditions": [18, 1200, "v", 18000], "trial": 1, "serialpos": 0, "trial_type": "single-stim", "trial_index": 55, "time_elapsed": 381135, "internal_node_id": "0.0-37.0"}}, {"uniqueid": "MTK0664:3BXQMRHWK05HZ44ZWA0MJZFPKBAUMW", "current_trial": 56, "dateTime": 1512585342025, "trialdata": {"rt": -1, "stimulus": "<p id=\"stim\">GARBAGE</p>", "key_press": -1, "type": "PRES_VIS", "word": "garbage", "wordID": 621, "conditions": [18, 1200, "v", 18000], "trial": 1, "serialpos": 1, "trial_type": "single-stim", "trial_index": 56, "time_elapsed": 383451, "internal_node_id": "0.0-38.0"}}, {"uniqueid": "MTK0664:3BXQMRHWK05HZ44ZWA0MJZFPKBAUMW", "current_trial": 57, "dateTime": 1512585344179, "trialdata": {"rt": -1, "stimulus": "<p id=\"stim\">BANKER</p>", "key_press": -1, "type": "PRES_VIS", "word": "banker", "wordID": 83, "conditions": [18, 1200, "v", 18000], "trial": 1, "serialpos": 2, "trial_type": "single-stim", "trial_index": 57, "time_elapsed": 385605, "internal_node_id": "0.0-39.0"}}, {"uniqueid": "MTK0664:3BXQMRHWK05HZ44ZWA0MJZFPKBAUMW", "current_trial": 58, "dateTime": 1512585346547, "trialdata": {"rt": -1, "stimulus": "<p id=\"stim\">LIZARD</p>", "key_press": -1, "type": "PRES_VIS", "word": "lizard", "wordID": 833, "conditions": [18, 1200, "v", 18000], "trial": 1, "serialpos": 3, "trial_type": "single-stim", "trial_index": 58, "time_elapsed": 387973, "internal_node_id": "0.0-40.0"}}, {"uniqueid": "MTK0664:3BXQMRHWK05HZ44ZWA0MJZFPKBAUMW", "current_trial": 59, "dateTime": 1512585348592, "trialdata": {"rt": -1, "stimulus": "<p id=\"stim\">MARS</p>", "key_press": -1, "type": "PRES_VIS", "word": "mars", "wordID": 872, "conditions": [18, 1200, "v", 18000], "trial": 1, "serialpos": 4, "trial_type": "single-stim", "trial_index": 59, "time_elapsed": 390018, "internal_node_id": "0.0-41.0"}}, {"uniqueid": "MTK0664:3BXQMRHWK05HZ44ZWA0MJZFPKBAUMW", "current_trial": 60, "dateTime": 1512585350824, "trialdata": {"rt": -1, "stimulus": "<p id=\"stim\">KNIFE</p>", "key_press": -1, "type": "PRES_VIS", "word": "knife", "wordID": 784, "conditions": [18, 1200, "v", 18000], "trial": 1, "serialpos": 5, "trial_type": "single-stim", "trial_index": 60, "time_elapsed": 392249, "internal_node_id": "0.0-42.0"}}, {"uniqueid": "MTK0664:3BXQMRHWK05HZ44ZWA0MJZFPKBAUMW", "current_trial": 61, "dateTime": 1512585352855, "trialdata": {"rt": -1, "stimulus": "<p id=\"stim\">CABBAGE</p>", "key_press": -1, "type": "PRES_VIS", "word": "cabbage", "wordID": 209, "conditions": [18, 1200, "v", 18000], "trial": 1, "serialpos": 6, "trial_type": "single-stim", "trial_index": 61, "time_elapsed": 394281, "internal_node_id": "0.0-43.0"}}, {"uniqueid": "MTK0664:3BXQMRHWK05HZ44ZWA0MJZFPKBAUMW", "current_trial": 62, "dateTime": 1512585355188, "trialdata": {"rt": -1, "stimulus": "<p id=\"stim\">TYPIST</p>", "key_press": -1, "type": "PRES_VIS", "word": "typist", "wordID": 1531, "conditions": [18, 1200, "v", 18000], "trial": 1, "serialpos": 7, "trial_type": "single-stim", "trial_index": 62, "time_elapsed": 396614, "internal_node_id": "0.0-44.0"}}, {"uniqueid": "MTK0664:3BXQMRHWK05HZ44ZWA0MJZFPKBAUMW", "current_trial": 63, "dateTime": 1512585357440, "trialdata": {"rt": -1, "stimulus": "<p id=\"stim\">MATCH</p>", "key_press": -1, "type": "PRES_VIS", "word": "match", "wordID": 877, "conditions": [18, 1200, "v", 18000], "trial": 1, "serialpos": 8, "trial_type": "single-stim", "trial_index": 63, "time_elapsed": 398866, "internal_node_id": "0.0-45.0"}}, {"uniqueid": "MTK0664:3BXQMRHWK05HZ44ZWA0MJZFPKBAUMW", "current_trial": 64, "dateTime": 1512585359494, "trialdata": {"rt": -1, "stimulus": "<p id=\"stim\">PUPPY</p>", "key_press": -1, "type": "PRES_VIS", "word": "puppy", "wordID": 1143, "conditions": [18, 1200, "v", 18000], "trial": 1, "serialpos": 9, "trial_type": "single-stim", "trial_index": 64, "time_elapsed": 400920, "internal_node_id": "0.0-46.0"}}, {"uniqueid": "MTK0664:3BXQMRHWK05HZ44ZWA0MJZFPKBAUMW", "current_trial": 65, "dateTime": 1512585361708, "trialdata": {"rt": -1, "stimulus": "<p id=\"stim\">SPOUSE</p>", "key_press": -1, "type": "PRES_VIS", "word": "spouse", "wordID": 1357, "conditions": [18, 1200, "v", 18000], "trial": 1, "serialpos": 10, "trial_type": "single-stim", "trial_index": 65, "time_elapsed": 403134, "internal_node_id": "0.0-47.0"}}, {"uniqueid": "MTK0664:3BXQMRHWK05HZ44ZWA0MJZFPKBAUMW", "current_trial": 66, "dateTime": 1512585363923, "trialdata": {"rt": -1, "stimulus": "<p id=\"stim\">TREAT</p>", "key_press": -1, "type": "PRES_VIS", "word": "treat", "wordID": 1500, "conditions": [18, 1200, "v", 18000], "trial": 1, "serialpos": 11, "trial_type": "single-stim", "trial_index": 66, "time_elapsed": 405349, "internal_node_id": "0.0-48.0"}}, {"uniqueid": "MTK0664:3BXQMRHWK05HZ44ZWA0MJZFPKBAUMW", "current_trial": 67, "dateTime": 1512585365933, "trialdata": {"rt": -1, "stimulus": "<p id=\"stim\">PADDING</p>", "key_press": -1, "type": "PRES_VIS", "word": "padding", "wordID": 998, "conditions": [18, 1200, "v", 18000], "trial": 1, "serialpos": 12, "trial_type": "single-stim", "trial_index": 67, "time_elapsed": 407359, "internal_node_id": "0.0-49.0"}}, {"uniqueid": "MTK0664:3BXQMRHWK05HZ44ZWA0MJZFPKBAUMW", "current_trial": 68, "dateTime": 1512585368205, "trialdata": {"rt": -1, "stimulus": "<p id=\"stim\">KIDNEY</p>", "key_press": -1, "type": "PRES_VIS", "word": "kidney", "wordID": 775, "conditions": [18, 1200, "v", 18000], "trial": 1, "serialpos": 13, "trial_type": "single-stim", "trial_index": 68, "time_elapsed": 409630, "internal_node_id": "0.0-50.0"}}, {"uniqueid": "MTK0664:3BXQMRHWK05HZ44ZWA0MJZFPKBAUMW", "current_trial": 69, "dateTime": 1512585370295, "trialdata": {"rt": -1, "stimulus": "<p id=\"stim\">CRUTCH</p>", "key_press": -1, "type": "PRES_VIS", "word": "crutch", "wordID": 416, "conditions": [18, 1200, "v", 18000], "trial": 1, "serialpos": 14, "trial_type": "single-stim", "trial_index": 69, "time_elapsed": 411721, "internal_node_id": "0.0-51.0"}}, {"uniqueid": "MTK0664:3BXQMRHWK05HZ44ZWA0MJZFPKBAUMW", "current_trial": 70, "dateTime": 1512585372500, "trialdata": {"rt": -1, "stimulus": "<p id=\"stim\">SCRIBBLE</p>", "key_press": -1, "type": "PRES_VIS", "word": "scribble", "wordID": 1255, "conditions": [18, 1200, "v", 18000], "trial": 1, "serialpos": 15, "trial_type": "single-stim", "trial_index": 70, "time_elapsed": 413926, "internal_node_id": "0.0-52.0"}}, {"uniqueid": "MTK0664:3BXQMRHWK05HZ44ZWA0MJZFPKBAUMW", "current_trial": 71, "dateTime": 1512585374800, "trialdata": {"rt": -1, "stimulus": "<p id=\"stim\">FLASHLIGHT</p>", "key_press": -1, "type": "PRES_VIS", "word": "flashlight", "wordID": 574, "conditions": [18, 1200, "v", 18000], "trial": 1, "serialpos": 16, "trial_type": "single-stim", "trial_index": 71, "time_elapsed": 416226, "internal_node_id": "0.0-53.0"}}, {"uniqueid": "MTK0664:3BXQMRHWK05HZ44ZWA0MJZFPKBAUMW", "current_trial": 72, "dateTime": 1512585376857, "trialdata": {"rt": -1, "stimulus": "<p id=\"stim\">STOMACH</p>", "key_press": -1, "type": "PRES_VIS", "word": "stomach", "wordID": 1383, "conditions": [18, 1200, "v", 18000], "trial": 1, "serialpos": 17, "trial_type": "single-stim", "trial_index": 72, "time_elapsed": 418283, "internal_node_id": "0.0-54.0"}}, {"uniqueid": "MTK0664:3BXQMRHWK05HZ44ZWA0MJZFPKBAUMW", "current_trial": 73, "dateTime": 1512585379344, "trialdata": {"rt": -1, "stimulus": "", "key_press": -1, "type": "PRE_RECALL_DELAY", "trial_type": "single-stim", "trial_index": 73, "time_elapsed": 420770, "internal_node_id": "0.0-55.0-0.0"}}, {"uniqueid": "MTK0664:3BXQMRHWK05HZ44ZWA0MJZFPKBAUMW", "current_trial": 74, "dateTime": 1512585379844, "trialdata": {"rt": -1000, "stimulus": "/static/audio/400Hz.wav", "key_press": -1, "type": "PRE_RECALL_ALERT", "trial_type": "single-audio", "trial_index": 74, "time_elapsed": 421270, "internal_node_id": "0.0-56.0"}}, {"uniqueid": "MTK0664:3BXQMRHWK05HZ44ZWA0MJZFPKBAUMW", "current_trial": 75, "dateTime": 1512585439849, "trialdata": {"rt": [4276, 6549], "recwords": ["banker", "lizard"], "type": "FREE_RECALL", "conditions": [18, 1200, "v", 18000], "trial": 1, "trial_type": "free-recall", "trial_index": 75, "time_elapsed": 481274, "internal_node_id": "0.0-57.0-0.0"}}, {"uniqueid": "MTK0664:3BXQMRHWK05HZ44ZWA0MJZFPKBAUMW", "current_trial": 76, "dateTime": 1512585500796, "trialdata": {"rt": 58943, "key_press": 32, "type": "INSTRUCTIONS", "trial_type": "text", "trial_index": 76, "time_elapsed": 542219, "internal_node_id": "0.0-58.0"}}, {"uniqueid": "MTK0664:3BXQMRHWK05HZ44ZWA0MJZFPKBAUMW", "current_trial": 77, "dateTime": 1512585513802, "trialdata": {"rt": [7369, 9169], "responses": ["20", "12"], "num1": [6, 3, 6], "num2": [8, 2, 7], "num3": [6, 7, 1], "type": "DISTRACTOR", "conditions": [12, 800, "v", 12000], "trial": 2, "trial_type": "math-distractor", "trial_index": 77, "time_elapsed": 555228, "internal_node_id": "0.0-59.0"}}, {"uniqueid": "MTK0664:3BXQMRHWK05HZ44ZWA0MJZFPKBAUMW", "current_trial": 78, "dateTime": 1512585516804, "trialdata": {"rt": -1, "stimulus": "<p id=\"stim\">10</p>", "key_press": -1, "trial_type": "single-stim", "trial_index": 78, "time_elapsed": 558230, "internal_node_id": "0.0-60.0-0.0"}}, {"uniqueid": "MTK0664:3BXQMRHWK05HZ44ZWA0MJZFPKBAUMW", "current_trial": 79, "dateTime": 1512585517806, "trialdata": {"rt": -1, "stimulus": "<p id=\"stim\">9</p>", "key_press": -1, "trial_type": "single-stim", "trial_index": 79, "time_elapsed": 559232, "internal_node_id": "0.0-60.0-1.0"}}, {"uniqueid": "MTK0664:3BXQMRHWK05HZ44ZWA0MJZFPKBAUMW", "current_trial": 80, "dateTime": 1512585518810, "trialdata": {"rt": -1, "stimulus": "<p id=\"stim\">8</p>", "key_press": -1, "trial_type": "single-stim", "trial_index": 80, "time_elapsed": 560236, "internal_node_id": "0.0-60.0-2.0"}}, {"uniqueid": "MTK0664:3BXQMRHWK05HZ44ZWA0MJZFPKBAUMW", "current_trial": 81, "dateTime": 1512585519815, "trialdata": {"rt": -1, "stimulus": "<p id=\"stim\">7</p>", "key_press": -1, "trial_type": "single-stim", "trial_index": 81, "time_elapsed": 561241, "internal_node_id": "0.0-60.0-3.0"}}, {"uniqueid": "MTK0664:3BXQMRHWK05HZ44ZWA0MJZFPKBAUMW", "current_trial": 82, "dateTime": 1512585520819, "trialdata": {"rt": -1, "stimulus": "<p id=\"stim\">6</p>", "key_press": -1, "trial_type": "single-stim", "trial_index": 82, "time_elapsed": 562245, "internal_node_id": "0.0-60.0-4.0"}}, {"uniqueid": "MTK0664:3BXQMRHWK05HZ44ZWA0MJZFPKBAUMW", "current_trial": 83, "dateTime": 1512585521823, "trialdata": {"rt": -1, "stimulus": "<p id=\"stim\">5</p>", "key_press": -1, "trial_type": "single-stim", "trial_index": 83, "time_elapsed": 563249, "internal_node_id": "0.0-60.0-5.0"}}, {"uniqueid": "MTK0664:3BXQMRHWK05HZ44ZWA0MJZFPKBAUMW", "current_trial": 84, "dateTime": 1512585522828, "trialdata": {"rt": -1, "stimulus": "<p id=\"stim\">4</p>", "key_press": -1, "trial_type": "single-stim", "trial_index": 84, "time_elapsed": 564254, "internal_node_id": "0.0-60.0-6.0"}}, {"uniqueid": "MTK0664:3BXQMRHWK05HZ44ZWA0MJZFPKBAUMW", "current_trial": 85, "dateTime": 1512585523832, "trialdata": {"rt": -1, "stimulus": "<p id=\"stim\">3</p>", "key_press": -1, "trial_type": "single-stim", "trial_index": 85, "time_elapsed": 565258, "internal_node_id": "0.0-60.0-7.0"}}, {"uniqueid": "MTK0664:3BXQMRHWK05HZ44ZWA0MJZFPKBAUMW", "current_trial": 86, "dateTime": 1512585524835, "trialdata": {"rt": -1, "stimulus": "<p id=\"stim\">2</p>", "key_press": -1, "trial_type": "single-stim", "trial_index": 86, "time_elapsed": 566261, "internal_node_id": "0.0-60.0-8.0"}}, {"uniqueid": "MTK0664:3BXQMRHWK05HZ44ZWA0MJZFPKBAUMW", "current_trial": 87, "dateTime": 1512585525839, "trialdata": {"rt": -1, "stimulus": "<p id=\"stim\">1</p>", "key_press": -1, "trial_type": "single-stim", "trial_index": 87, "time_elapsed": 567265, "internal_node_id": "0.0-60.0-9.0"}}, {"uniqueid": "MTK0664:3BXQMRHWK05HZ44ZWA0MJZFPKBAUMW", "current_trial": 88, "dateTime": 1512585527343, "trialdata": {"rt": -1, "stimulus": "<p id=\"stim\">+</p>", "key_press": -1, "type": "FIXATION", "trial_type": "single-stim", "trial_index": 88, "time_elapsed": 568769, "internal_node_id": "0.0-61.0-0.0"}}, {"uniqueid": "MTK0664:3BXQMRHWK05HZ44ZWA0MJZFPKBAUMW", "current_trial": 89, "dateTime": 1512585528143, "trialdata": {"rt": -1, "stimulus": "<p id=\"stim\">CASHIER</p>", "key_press": -1, "type": "PRES_VIS", "word": "cashier", "wordID": 253, "conditions": [12, 800, "v", 12000], "trial": 2, "serialpos": 0, "trial_type": "single-stim", "trial_index": 89, "time_elapsed": 569569, "internal_node_id": "0.0-62.0"}}, {"uniqueid": "MTK0664:3BXQMRHWK05HZ44ZWA0MJZFPKBAUMW", "current_trial": 90, "dateTime": 1512585529925, "trialdata": {"rt": -1, "stimulus": "<p id=\"stim\">DANCER</p>", "key_press": -1, "type": "PRES_VIS", "word": "dancer", "wordID": 436, "conditions": [12, 800, "v", 12000], "trial": 2, "serialpos": 1, "trial_type": "single-stim", "trial_index": 90, "time_elapsed": 571351, "internal_node_id": "0.0-63.0"}}, {"uniqueid": "MTK0664:3BXQMRHWK05HZ44ZWA0MJZFPKBAUMW", "current_trial": 91, "dateTime": 1512585531881, "trialdata": {"rt": -1, "stimulus": "<p id=\"stim\">GYMNAST</p>", "key_press": -1, "type": "PRES_VIS", "word": "gymnast", "wordID": 674, "conditions": [12, 800, "v", 12000], "trial": 2, "serialpos": 2, "trial_type": "single-stim", "trial_index": 91, "time_elapsed": 573307, "internal_node_id": "0.0-64.0"}}, {"uniqueid": "MTK0664:3BXQMRHWK05HZ44ZWA0MJZFPKBAUMW", "current_trial": 92, "dateTime": 1512585533884, "trialdata": {"rt": -1, "stimulus": "<p id=\"stim\">WAITER</p>", "key_press": -1, "type": "PRES_VIS", "word": "waiter", "wordID": 1579, "conditions": [12, 800, "v", 12000], "trial": 2, "serialpos": 3, "trial_type": "single-stim", "trial_index": 92, "time_elapsed": 575310, "internal_node_id": "0.0-65.0"}}, {"uniqueid": "MTK0664:3BXQMRHWK05HZ44ZWA0MJZFPKBAUMW", "current_trial": 93, "dateTime": 1512585535805, "trialdata": {"rt": -1, "stimulus": "<p id=\"stim\">GROUND</p>", "key_press": -1, "type": "PRES_VIS", "word": "ground", "wordID": 665, "conditions": [12, 800, "v", 12000], "trial": 2, "serialpos": 4, "trial_type": "single-stim", "trial_index": 93, "time_elapsed": 577231, "internal_node_id": "0.0-66.0"}}, {"uniqueid": "MTK0664:3BXQMRHWK05HZ44ZWA0MJZFPKBAUMW", "current_trial": 94, "dateTime": 1512585537494, "trialdata": {"rt": -1, "stimulus": "<p id=\"stim\">MUFFIN</p>", "key_press": -1, "type": "PRES_VIS", "word": "muffin", "wordID": 928, "conditions": [12, 800, "v", 12000], "trial": 2, "serialpos": 5, "trial_type": "single-stim", "trial_index": 94, "time_elapsed": 578920, "internal_node_id": "0.0-67.0"}}, {"uniqueid": "MTK0664:3BXQMRHWK05HZ44ZWA0MJZFPKBAUMW", "current_trial": 95, "dateTime": 1512585539499, "trialdata": {"rt": -1, "stimulus": "<p id=\"stim\">TWEEZERS</p>", "key_press": -1, "type": "PRES_VIS", "word": "tweezers", "wordID": 1525, "conditions": [12, 800, "v", 12000], "trial": 2, "serialpos": 6, "trial_type": "single-stim", "trial_index": 95, "time_elapsed": 580924, "internal_node_id": "0.0-68.0"}}, {"uniqueid": "MTK0664:3BXQMRHWK05HZ44ZWA0MJZFPKBAUMW", "current_trial": 96, "dateTime": 1512585541231, "trialdata": {"rt": -1, "stimulus": "<p id=\"stim\">FUNGUS</p>", "key_press": -1, "type": "PRES_VIS", "word": "fungus", "wordID": 613, "conditions": [12, 800, "v", 12000], "trial": 2, "serialpos": 7, "trial_type": "single-stim", "trial_index": 96, "time_elapsed": 582657, "internal_node_id": "0.0-69.0"}}, {"uniqueid": "MTK0664:3BXQMRHWK05HZ44ZWA0MJZFPKBAUMW", "current_trial": 97, "dateTime": 1512585543152, "trialdata": {"rt": -1, "stimulus": "<p id=\"stim\">SMOG</p>", "key_press": -1, "type": "PRES_VIS", "word": "smog", "wordID": 1329, "conditions": [12, 800, "v", 12000], "trial": 2, "serialpos": 8, "trial_type": "single-stim", "trial_index": 97, "time_elapsed": 584578, "internal_node_id": "0.0-70.0"}}, {"uniqueid": "MTK0664:3BXQMRHWK05HZ44ZWA0MJZFPKBAUMW", "current_trial": 98, "dateTime": 1512585545103, "trialdata": {"rt": -1, "stimulus": "<p id=\"stim\">HOSTESS</p>", "key_press": -1, "type": "PRES_VIS", "word": "hostess", "wordID": 722, "conditions": [12, 800, "v", 12000], "trial": 2, "serialpos": 9, "trial_type": "single-stim", "trial_index": 98, "time_elapsed": 586529, "internal_node_id": "0.0-71.0"}}, {"uniqueid": "MTK0664:3BXQMRHWK05HZ44ZWA0MJZFPKBAUMW", "current_trial": 99, "dateTime": 1512585547099, "trialdata": {"rt": -1, "stimulus": "<p id=\"stim\">LETTUCE</p>", "key_press": -1, "type": "PRES_VIS", "word": "lettuce", "wordID": 813, "conditions": [12, 800, "v", 12000], "trial": 2, "serialpos": 10, "trial_type": "single-stim", "trial_index": 99, "time_elapsed": 588525, "internal_node_id": "0.0-72.0"}}, {"uniqueid": "MTK0664:3BXQMRHWK05HZ44ZWA0MJZFPKBAUMW", "current_trial": 100, "dateTime": 1512585548869, "trialdata": {"rt": -1, "stimulus": "<p id=\"stim\">PIGMENT</p>", "key_press": -1, "type": "PRES_VIS", "word": "pigment", "wordID": 1065, "conditions": [12, 800, "v", 12000], "trial": 2, "serialpos": 11, "trial_type": "single-stim", "trial_index": 100, "time_elapsed": 590295, "internal_node_id": "0.0-73.0"}}, {"uniqueid": "MTK0664:3BXQMRHWK05HZ44ZWA0MJZFPKBAUMW", "current_trial": 101, "dateTime": 1512585551220, "trialdata": {"rt": -1, "stimulus": "", "key_press": -1, "type": "PRE_RECALL_DELAY", "trial_type": "single-stim", "trial_index": 101, "time_elapsed": 592645, "internal_node_id": "0.0-74.0-0.0"}}, {"uniqueid": "MTK0664:3BXQMRHWK05HZ44ZWA0MJZFPKBAUMW", "current_trial": 102, "dateTime": 1512585551721, "trialdata": {"rt": -1000, "stimulus": "/static/audio/400Hz.wav", "key_press": -1, "type": "PRE_RECALL_ALERT", "trial_type": "single-audio", "trial_index": 102, "time_elapsed": 593146, "internal_node_id": "0.0-75.0"}}, {"uniqueid": "MTK0664:3BXQMRHWK05HZ44ZWA0MJZFPKBAUMW", "current_trial": 103, "dateTime": 1512585611730, "trialdata": {"rt": [4376, 6864], "recwords": ["sky", "lizard"], "type": "FREE_RECALL", "conditions": [12, 800, "v", 12000], "trial": 2, "trial_type": "free-recall", "trial_index": 103, "time_elapsed": 653152, "internal_node_id": "0.0-76.0-0.0"}}, {"uniqueid": "MTK0664:3BXQMRHWK05HZ44ZWA0MJZFPKBAUMW", "current_trial": 104, "dateTime": 1512585693808, "trialdata": {"rt": 80076, "key_press": 78, "type": "INSTRUCTIONS", "trial_type": "text", "trial_index": 104, "time_elapsed": 735234, "internal_node_id": "0.0-77.0"}}, {"uniqueid": "MTK0664:3BXQMRHWK05HZ44ZWA0MJZFPKBAUMW", "current_trial": 105, "dateTime": 1512585707814, "trialdata": {"rt": [1899, 2442, 2778, 3027, 3282, 3538, 3770, 4027, 4315, 4547, 4779, 5051, 5307, 5515, 5754, 6011, 6258, 6491, 6754, 6994, 7242, 7482, 7731, 7947, 8146, 8362, 8586, 8802, 9059, 9322, 9594, 9826, 10282, 10522, 10754, 11002, 11218, 11450, 11706, 11946], "responses": ["", "13", "1", "31", "", "12", "12", "2", "12", "21", "1", "21", "2", "12", "1", "21", "2", "12", "2", "21", "21", "21", "2", "12", "1", "21", "2", "12", "1", "21", "212", "2", "332", "32", "3", "23", "1", "21", "21", "2"], "num1": [8, 8, 3, 5, 2, 5, 8, 6, 6, 3, 6, 3, 5, 7, 7, 3, 5, 3, 4, 2, 9, 9, 6, 5, 8, 7, 5, 7, 7, 3, 2, 2, 5, 1, 9, 3, 4, 9, 2, 9, 3], "num2": [6, 6, 9, 2, 1, 5, 8, 2, 2, 6, 1, 4, 4, 5, 1, 1, 8, 2, 2, 6, 1, 4, 1, 9, 1, 5, 2, 9, 1, 8, 7, 5, 6, 8, 2, 2, 4, 2, 6, 2, 7], "num3": [7, 9, 5, 3, 4, 4, 1, 1, 5, 6, 6, 6, 4, 1, 7, 5, 4, 2, 4, 7, 4, 9, 4, 9, 4, 6, 9, 7, 6, 3, 5, 5, 9, 4, 4, 7, 9, 4, 8, 8, 5], "type": "DISTRACTOR", "conditions": [24, 1600, "a", 12000], "trial": 3, "trial_type": "math-distractor", "trial_index": 105, "time_elapsed": 749240, "internal_node_id": "0.0-78.0"}}, {"uniqueid": "MTK0664:3BXQMRHWK05HZ44ZWA0MJZFPKBAUMW", "current_trial": 106, "dateTime": 1512585710819, "trialdata": {"rt": -1, "stimulus": "<p id=\"stim\">10</p>", "key_press": -1, "trial_type": "single-stim", "trial_index": 106, "time_elapsed": 752245, "internal_node_id": "0.0-79.0-0.0"}}, {"uniqueid": "MTK0664:3BXQMRHWK05HZ44ZWA0MJZFPKBAUMW", "current_trial": 107, "dateTime": 1512585711821, "trialdata": {"rt": -1, "stimulus": "<p id=\"stim\">9</p>", "key_press": -1, "trial_type": "single-stim", "trial_index": 107, "time_elapsed": 753247, "internal_node_id": "0.0-79.0-1.0"}}, {"uniqueid": "MTK0664:3BXQMRHWK05HZ44ZWA0MJZFPKBAUMW", "current_trial": 108, "dateTime": 1512585712825, "trialdata": {"rt": -1, "stimulus": "<p id=\"stim\">8</p>", "key_press": -1, "trial_type": "single-stim", "trial_index": 108, "time_elapsed": 754251, "internal_node_id": "0.0-79.0-2.0"}}, {"uniqueid": "MTK0664:3BXQMRHWK05HZ44ZWA0MJZFPKBAUMW", "current_trial": 109, "dateTime": 1512585713829, "trialdata": {"rt": -1, "stimulus": "<p id=\"stim\">7</p>", "key_press": -1, "trial_type": "single-stim", "trial_index": 109, "time_elapsed": 755255, "internal_node_id": "0.0-79.0-3.0"}}, {"uniqueid": "MTK0664:3BXQMRHWK05HZ44ZWA0MJZFPKBAUMW", "current_trial": 110, "dateTime": 1512585714833, "trialdata": {"rt": -1, "stimulus": "<p id=\"stim\">6</p>", "key_press": -1, "trial_type": "single-stim", "trial_index": 110, "time_elapsed": 756259, "internal_node_id": "0.0-79.0-4.0"}}, {"uniqueid": "MTK0664:3BXQMRHWK05HZ44ZWA0MJZFPKBAUMW", "current_trial": 111, "dateTime": 1512585715838, "trialdata": {"rt": -1, "stimulus": "<p id=\"stim\">5</p>", "key_press": -1, "trial_type": "single-stim", "trial_index": 111, "time_elapsed": 757263, "internal_node_id": "0.0-79.0-5.0"}}, {"uniqueid": "MTK0664:3BXQMRHWK05HZ44ZWA0MJZFPKBAUMW", "current_trial": 112, "dateTime": 1512585716842, "trialdata": {"rt": -1, "stimulus": "<p id=\"stim\">4</p>", "key_press": -1, "trial_type": "single-stim", "trial_index": 112, "time_elapsed": 758268, "internal_node_id": "0.0-79.0-6.0"}}, {"uniqueid": "MTK0664:3BXQMRHWK05HZ44ZWA0MJZFPKBAUMW", "current_trial": 113, "dateTime": 1512585717846, "trialdata": {"rt": -1, "stimulus": "<p id=\"stim\">3</p>", "key_press": -1, "trial_type": "single-stim", "trial_index": 113, "time_elapsed": 759272, "internal_node_id": "0.0-79.0-7.0"}}, {"uniqueid": "MTK0664:3BXQMRHWK05HZ44ZWA0MJZFPKBAUMW", "current_trial": 114, "dateTime": 1512585718851, "trialdata": {"rt": -1, "stimulus": "<p id=\"stim\">2</p>", "key_press": -1, "trial_type": "single-stim", "trial_index": 114, "time_elapsed": 760277, "internal_node_id": "0.0-79.0-8.0"}}, {"uniqueid": "MTK0664:3BXQMRHWK05HZ44ZWA0MJZFPKBAUMW", "current_trial": 115, "dateTime": 1512585719854, "trialdata": {"rt": -1, "stimulus": "<p id=\"stim\">1</p>", "key_press": -1, "trial_type": "single-stim", "trial_index": 115, "time_elapsed": 761280, "internal_node_id": "0.0-79.0-9.0"}}, {"uniqueid": "MTK0664:3BXQMRHWK05HZ44ZWA0MJZFPKBAUMW", "current_trial": 116, "dateTime": 1512585721357, "trialdata": {"rt": -1, "stimulus": "<p id=\"stim\">+</p>", "key_press": -1, "type": "FIXATION", "trial_type": "single-stim", "trial_index": 116, "time_elapsed": 762783, "internal_node_id": "0.0-80.0-0.0"}}, {"uniqueid": "MTK0664:3BXQMRHWK05HZ44ZWA0MJZFPKBAUMW", "current_trial": 117, "dateTime": 1512585723835, "trialdata": {"rt": -1000, "stimulus": "/static/audio/wordpool/DORM.wav", "key_press": -1, "type": "PRES_AUD", "word": "dorm", "wordID": 487, "conditions": [24, 1600, "a", 12000], "trial": 3, "serialpos": 0, "trial_type": "single-audio", "trial_index": 117, "time_elapsed": 765261, "internal_node_id": "0.0-81.0"}}, {"uniqueid": "MTK0664:3BXQMRHWK05HZ44ZWA0MJZFPKBAUMW", "current_trial": 118, "dateTime": 1512585726251, "trialdata": {"rt": -1000, "stimulus": "/static/audio/wordpool/AUTHOR.wav", "key_press": -1, "type": "PRES_AUD", "word": "author", "wordID": 60, "conditions": [24, 1600, "a", 12000], "trial": 3, "serialpos": 1, "trial_type": "single-audio", "trial_index": 118, "time_elapsed": 767676, "internal_node_id": "0.0-82.0"}}, {"uniqueid": "MTK0664:3BXQMRHWK05HZ44ZWA0MJZFPKBAUMW", "current_trial": 119, "dateTime": 1512585728866, "trialdata": {"rt": -1000, "stimulus": "/static/audio/wordpool/PRINCESS.wav", "key_press": -1, "type": "PRES_AUD", "word": "princess", "wordID": 1124, "conditions": [24, 1600, "a", 12000], "trial": 3, "serialpos": 2, "trial_type": "single-audio", "trial_index": 119, "time_elapsed": 770292, "internal_node_id": "0.0-83.0"}}, {"uniqueid": "MTK0664:3BXQMRHWK05HZ44ZWA0MJZFPKBAUMW", "current_trial": 120, "dateTime": 1512585731318, "trialdata": {"rt": -1000, "stimulus": "/static/audio/wordpool/WIFE.wav", "key_press": -1, "type": "PRES_AUD", "word": "wife", "wordID": 1608, "conditions": [24, 1600, "a", 12000], "trial": 3, "serialpos": 3, "trial_type": "single-audio", "trial_index": 120, "time_elapsed": 772744, "internal_node_id": "0.0-84.0"}}, {"uniqueid": "MTK0664:3BXQMRHWK05HZ44ZWA0MJZFPKBAUMW", "current_trial": 121, "dateTime": 1512585733961, "trialdata": {"rt": -1000, "stimulus": "/static/audio/wordpool/LOVER.wav", "key_press": -1, "type": "PRES_AUD", "word": "lover", "wordID": 845, "conditions": [24, 1600, "a", 12000], "trial": 3, "serialpos": 4, "trial_type": "single-audio", "trial_index": 121, "time_elapsed": 775386, "internal_node_id": "0.0-85.0"}}, {"uniqueid": "MTK0664:3BXQMRHWK05HZ44ZWA0MJZFPKBAUMW", "current_trial": 122, "dateTime": 1512585736681, "trialdata": {"rt": -1000, "stimulus": "/static/audio/wordpool/TABLET.wav", "key_press": -1, "type": "PRES_AUD", "word": "tablet", "wordID": 1426, "conditions": [24, 1600, "a", 12000], "trial": 3, "serialpos": 5, "trial_type": "single-audio", "trial_index": 122, "time_elapsed": 778107, "internal_node_id": "0.0-86.0"}}, {"uniqueid": "MTK0664:3BXQMRHWK05HZ44ZWA0MJZFPKBAUMW", "current_trial": 123, "dateTime": 1512585739292, "trialdata": {"rt": -1000, "stimulus": "/static/audio/wordpool/BEAKER.wav", "key_press": -1, "type": "PRES_AUD", "word": "beaker", "wordID": 103, "conditions": [24, 1600, "a", 12000], "trial": 3, "serialpos": 6, "trial_type": "single-audio", "trial_index": 123, "time_elapsed": 780718, "internal_node_id": "0.0-87.0"}}, {"uniqueid": "MTK0664:3BXQMRHWK05HZ44ZWA0MJZFPKBAUMW", "current_trial": 124, "dateTime": 1512585741890, "trialdata": {"rt": -1000, "stimulus": "/static/audio/wordpool/HUSBAND.wav", "key_press": -1, "type": "PRES_AUD", "word": "husband", "wordID": 727, "conditions": [24, 1600, "a", 12000], "trial": 3, "serialpos": 7, "trial_type": "single-audio", "trial_index": 124, "time_elapsed": 783316, "internal_node_id": "0.0-88.0"}}, {"uniqueid": "MTK0664:3BXQMRHWK05HZ44ZWA0MJZFPKBAUMW", "current_trial": 125, "dateTime": 1512585744662, "trialdata": {"rt": -1000, "stimulus": "/static/audio/wordpool/PANTHER.wav", "key_press": -1, "type": "PRES_AUD", "word": "panther", "wordID": 1008, "conditions": [24, 1600, "a", 12000], "trial": 3, "serialpos": 8, "trial_type": "single-audio", "trial_index": 125, "time_elapsed": 786088, "internal_node_id": "0.0-89.0"}}, {"uniqueid": "MTK0664:3BXQMRHWK05HZ44ZWA0MJZFPKBAUMW", "current_trial": 126, "dateTime": 1512585747293, "trialdata": {"rt": -1000, "stimulus": "/static/audio/wordpool/ZEBRA.wav", "key_press": -1, "type": "PRES_AUD", "word": "zebra", "wordID": 1634, "conditions": [24, 1600, "a", 12000], "trial": 3, "serialpos": 9, "trial_type": "single-audio", "trial_index": 126, "time_elapsed": 788719, "internal_node_id": "0.0-90.0"}}, {"uniqueid": "MTK0664:3BXQMRHWK05HZ44ZWA0MJZFPKBAUMW", "current_trial": 127, "dateTime": 1512585749853, "trialdata": {"rt": -1000, "stimulus": "/static/audio/wordpool/JOURNAL.wav", "key_press": -1, "type": "PRES_AUD", "word": "journal", "wordID": 759, "conditions": [24, 1600, "a", 12000], "trial": 3, "serialpos": 10, "trial_type": "single-audio", "trial_index": 127, "time_elapsed": 791279, "internal_node_id": "0.0-91.0"}}, {"uniqueid": "MTK0664:3BXQMRHWK05HZ44ZWA0MJZFPKBAUMW", "current_trial": 128, "dateTime": 1512585752622, "trialdata": {"rt": -1000, "stimulus": "/static/audio/wordpool/TUNNEL.wav", "key_press": -1, "type": "PRES_AUD", "word": "tunnel", "wordID": 1518, "conditions": [24, 1600, "a", 12000], "trial": 3, "serialpos": 11, "trial_type": "single-audio", "trial_index": 128, "time_elapsed": 794048, "internal_node_id": "0.0-92.0"}}, {"uniqueid": "MTK0664:3BXQMRHWK05HZ44ZWA0MJZFPKBAUMW", "current_trial": 129, "dateTime": 1512585755114, "trialdata": {"rt": -1000, "stimulus": "/static/audio/wordpool/OMELET.wav", "key_press": -1, "type": "PRES_AUD", "word": "omelet", "wordID": 975, "conditions": [24, 1600, "a", 12000], "trial": 3, "serialpos": 12, "trial_type": "single-audio", "trial_index": 129, "time_elapsed": 796540, "internal_node_id": "0.0-93.0"}}, {"uniqueid": "MTK0664:3BXQMRHWK05HZ44ZWA0MJZFPKBAUMW", "current_trial": 130, "dateTime": 1512585757914, "trialdata": {"rt": -1000, "stimulus": "/static/audio/wordpool/TURKEY.wav", "key_press": -1, "type": "PRES_AUD", "word": "turkey", "wordID": 1519, "conditions": [24, 1600, "a", 12000], "trial": 3, "serialpos": 13, "trial_type": "single-audio", "trial_index": 130, "time_elapsed": 799340, "internal_node_id": "0.0-94.0"}}, {"uniqueid": "MTK0664:3BXQMRHWK05HZ44ZWA0MJZFPKBAUMW", "current_trial": 131, "dateTime": 1512585760587, "trialdata": {"rt": -1000, "stimulus": "/static/audio/wordpool/NOTEBOOK.wav", "key_press": -1, "type": "PRES_AUD", "word": "notebook", "wordID": 958, "conditions": [24, 1600, "a", 12000], "trial": 3, "serialpos": 14, "trial_type": "single-audio", "trial_index": 131, "time_elapsed": 802013, "internal_node_id": "0.0-95.0"}}, {"uniqueid": "MTK0664:3BXQMRHWK05HZ44ZWA0MJZFPKBAUMW", "current_trial": 132, "dateTime": 1512585763019, "trialdata": {"rt": -1000, "stimulus": "/static/audio/wordpool/SUPPER.wav", "key_press": -1, "type": "PRES_AUD", "word": "supper", "wordID": 1410, "conditions": [24, 1600, "a", 12000], "trial": 3, "serialpos": 15, "trial_type": "single-audio", "trial_index": 132, "time_elapsed": 804445, "internal_node_id": "0.0-96.0"}}, {"uniqueid": "MTK0664:3BXQMRHWK05HZ44ZWA0MJZFPKBAUMW", "current_trial": 133, "dateTime": 1512585765589, "trialdata": {"rt": -1000, "stimulus": "/static/audio/wordpool/DONKEY.wav", "key_press": -1, "type": "PRES_AUD", "word": "donkey", "wordID": 483, "conditions": [24, 1600, "a", 12000], "trial": 3, "serialpos": 16, "trial_type": "single-audio", "trial_index": 133, "time_elapsed": 807015, "internal_node_id": "0.0-97.0"}}, {"uniqueid": "MTK0664:3BXQMRHWK05HZ44ZWA0MJZFPKBAUMW", "current_trial": 134, "dateTime": 1512585768257, "trialdata": {"rt": -1000, "stimulus": "/static/audio/wordpool/WOMAN.wav", "key_press": -1, "type": "PRES_AUD", "word": "woman", "wordID": 1619, "conditions": [24, 1600, "a", 12000], "trial": 3, "serialpos": 17, "trial_type": "single-audio", "trial_index": 134, "time_elapsed": 809683, "internal_node_id": "0.0-98.0"}}, {"uniqueid": "MTK0664:3BXQMRHWK05HZ44ZWA0MJZFPKBAUMW", "current_trial": 135, "dateTime": 1512585770972, "trialdata": {"rt": -1000, "stimulus": "/static/audio/wordpool/CLOTHES.wav", "key_press": -1, "type": "PRES_AUD", "word": "clothes", "wordID": 326, "conditions": [24, 1600, "a", 12000], "trial": 3, "serialpos": 18, "trial_type": "single-audio", "trial_index": 135, "time_elapsed": 812398, "internal_node_id": "0.0-99.0"}}, {"uniqueid": "MTK0664:3BXQMRHWK05HZ44ZWA0MJZFPKBAUMW", "current_trial": 136, "dateTime": 1512585773387, "trialdata": {"rt": -1000, "stimulus": "/static/audio/wordpool/MARSH.wav", "key_press": -1, "type": "PRES_AUD", "word": "marsh", "wordID": 873, "conditions": [24, 1600, "a", 12000], "trial": 3, "serialpos": 19, "trial_type": "single-audio", "trial_index": 136, "time_elapsed": 814813, "internal_node_id": "0.0-100.0"}}, {"uniqueid": "MTK0664:3BXQMRHWK05HZ44ZWA0MJZFPKBAUMW", "current_trial": 137, "dateTime": 1512585775903, "trialdata": {"rt": -1000, "stimulus": "/static/audio/wordpool/RIVER.wav", "key_press": -1, "type": "PRES_AUD", "word": "river", "wordID": 1193, "conditions": [24, 1600, "a", 12000], "trial": 3, "serialpos": 20, "trial_type": "single-audio", "trial_index": 137, "time_elapsed": 817329, "internal_node_id": "0.0-101.0"}}, {"uniqueid": "MTK0664:3BXQMRHWK05HZ44ZWA0MJZFPKBAUMW", "current_trial": 138, "dateTime": 1512585778702, "trialdata": {"rt": -1000, "stimulus": "/static/audio/wordpool/MAILBOX.wav", "key_press": -1, "type": "PRES_AUD", "word": "mailbox", "wordID": 856, "conditions": [24, 1600, "a", 12000], "trial": 3, "serialpos": 21, "trial_type": "single-audio", "trial_index": 138, "time_elapsed": 820127, "internal_node_id": "0.0-102.0"}}, {"uniqueid": "MTK0664:3BXQMRHWK05HZ44ZWA0MJZFPKBAUMW", "current_trial": 139, "dateTime": 1512585781175, "trialdata": {"rt": -1000, "stimulus": "/static/audio/wordpool/TOMBSTONE.wav", "key_press": -1, "type": "PRES_AUD", "word": "tombstone", "wordID": 1477, "conditions": [24, 1600, "a", 12000], "trial": 3, "serialpos": 22, "trial_type": "single-audio", "trial_index": 139, "time_elapsed": 822601, "internal_node_id": "0.0-103.0"}}, {"uniqueid": "MTK0664:3BXQMRHWK05HZ44ZWA0MJZFPKBAUMW", "current_trial": 140, "dateTime": 1512585783705, "trialdata": {"rt": -1000, "stimulus": "/static/audio/wordpool/NIGHTGOWN.wav", "key_press": -1, "type": "PRES_AUD", "word": "nightgown", "wordID": 952, "conditions": [24, 1600, "a", 12000], "trial": 3, "serialpos": 23, "trial_type": "single-audio", "trial_index": 140, "time_elapsed": 825131, "internal_node_id": "0.0-104.0"}}, {"uniqueid": "MTK0664:3BXQMRHWK05HZ44ZWA0MJZFPKBAUMW", "current_trial": 141, "dateTime": 1512585785031, "trialdata": {"rt": -1, "stimulus": "", "key_press": -1, "type": "PRE_RECALL_DELAY", "trial_type": "single-stim", "trial_index": 141, "time_elapsed": 826457, "internal_node_id": "0.0-105.0-0.0"}}, {"uniqueid": "MTK0664:3BXQMRHWK05HZ44ZWA0MJZFPKBAUMW", "current_trial": 142, "dateTime": 1512585785532, "trialdata": {"rt": -1000, "stimulus": "/static/audio/400Hz.wav", "key_press": -1, "type": "PRE_RECALL_ALERT", "trial_type": "single-audio", "trial_index": 142, "time_elapsed": 826958, "internal_node_id": "0.0-106.0"}}, {"uniqueid": "MTK0664:3BXQMRHWK05HZ44ZWA0MJZFPKBAUMW", "current_trial": 143, "dateTime": 1512585845534, "trialdata": {"rt": [5330, 6746], "recwords": ["nightgown", "woman"], "type": "FREE_RECALL", "conditions": [24, 1600, "a", 12000], "trial": 3, "trial_type": "free-recall", "trial_index": 143, "time_elapsed": 886959, "internal_node_id": "0.0-107.0-0.0"}}, {"uniqueid": "MTK0664:3BXQMRHWK05HZ44ZWA0MJZFPKBAUMW", "current_trial": 144, "dateTime": 1512585853287, "trialdata": {"rt": 5747, "key_press": 32, "type": "INSTRUCTIONS", "trial_type": "text", "trial_index": 144, "time_elapsed": 894712, "internal_node_id": "0.0-108.0"}}, {"uniqueid": "MTK0664:3BXQMRHWK05HZ44ZWA0MJZFPKBAUMW", "current_trial": 145, "dateTime": 1512585879294, "trialdata": {"rt": [8613, 14821, 16877, 19325], "responses": ["9", "14", "7", "8"], "num1": [4, 6, 5, 5, 8], "num2": [2, 3, 1, 2, 8], "num3": [3, 5, 1, 1, 5], "type": "DISTRACTOR", "conditions": [12, 800, "a", 24000], "trial": 4, "trial_type": "math-distractor", "trial_index": 145, "time_elapsed": 920720, "internal_node_id": "0.0-109.0"}}, {"uniqueid": "MTK0664:3BXQMRHWK05HZ44ZWA0MJZFPKBAUMW", "current_trial": 146, "dateTime": 1512585882300, "trialdata": {"rt": -1, "stimulus": "<p id=\"stim\">10</p>", "key_press": -1, "trial_type": "single-stim", "trial_index": 146, "time_elapsed": 923726, "internal_node_id": "0.0-110.0-0.0"}}, {"uniqueid": "MTK0664:3BXQMRHWK05HZ44ZWA0MJZFPKBAUMW", "current_trial": 147, "dateTime": 1512585883304, "trialdata": {"rt": -1, "stimulus": "<p id=\"stim\">9</p>", "key_press": -1, "trial_type": "single-stim", "trial_index": 147, "time_elapsed": 924730, "internal_node_id": "0.0-110.0-1.0"}}, {"uniqueid": "MTK0664:3BXQMRHWK05HZ44ZWA0MJZFPKBAUMW", "current_trial": 148, "dateTime": 1512585884310, "trialdata": {"rt": -1, "stimulus": "<p id=\"stim\">8</p>", "key_press": -1, "trial_type": "single-stim", "trial_index": 148, "time_elapsed": 925734, "internal_node_id": "0.0-110.0-2.0"}}, {"uniqueid": "MTK0664:3BXQMRHWK05HZ44ZWA0MJZFPKBAUMW", "current_trial": 149, "dateTime": 1512585885312, "trialdata": {"rt": -1, "stimulus": "<p id=\"stim\">7</p>", "key_press": -1, "trial_type": "single-stim", "trial_index": 149, "time_elapsed": 926738, "internal_node_id": "0.0-110.0-3.0"}}, {"uniqueid": "MTK0664:3BXQMRHWK05HZ44ZWA0MJZFPKBAUMW", "current_trial": 150, "dateTime": 1512585886316, "trialdata": {"rt": -1, "stimulus": "<p id=\"stim\">6</p>", "key_press": -1, "trial_type": "single-stim", "trial_index": 150, "time_elapsed": 927742, "internal_node_id": "0.0-110.0-4.0"}}, {"uniqueid": "MTK0664:3BXQMRHWK05HZ44ZWA0MJZFPKBAUMW", "current_trial": 151, "dateTime": 1512585887320, "trialdata": {"rt": -1, "stimulus": "<p id=\"stim\">5</p>", "key_press": -1, "trial_type": "single-stim", "trial_index": 151, "time_elapsed": 928746, "internal_node_id": "0.0-110.0-5.0"}}, {"uniqueid": "MTK0664:3BXQMRHWK05HZ44ZWA0MJZFPKBAUMW", "current_trial": 152, "dateTime": 1512585888324, "trialdata": {"rt": -1, "stimulus": "<p id=\"stim\">4</p>", "key_press": -1, "trial_type": "single-stim", "trial_index": 152, "time_elapsed": 929750, "internal_node_id": "0.0-110.0-6.0"}}, {"uniqueid": "MTK0664:3BXQMRHWK05HZ44ZWA0MJZFPKBAUMW", "current_trial": 153, "dateTime": 1512585889328, "trialdata": {"rt": -1, "stimulus": "<p id=\"stim\">3</p>", "key_press": -1, "trial_type": "single-stim", "trial_index": 153, "time_elapsed": 930754, "internal_node_id": "0.0-110.0-7.0"}}, {"uniqueid": "MTK0664:3BXQMRHWK05HZ44ZWA0MJZFPKBAUMW", "current_trial": 154, "dateTime": 1512585890332, "trialdata": {"rt": -1, "stimulus": "<p id=\"stim\">2</p>", "key_press": -1, "trial_type": "single-stim", "trial_index": 154, "time_elapsed": 931758, "internal_node_id": "0.0-110.0-8.0"}}, {"uniqueid": "MTK0664:3BXQMRHWK05HZ44ZWA0MJZFPKBAUMW", "current_trial": 155, "dateTime": 1512585891336, "trialdata": {"rt": -1, "stimulus": "<p id=\"stim\">1</p>", "key_press": -1, "trial_type": "single-stim", "trial_index": 155, "time_elapsed": 932762, "internal_node_id": "0.0-110.0-9.0"}}, {"uniqueid": "MTK0664:3BXQMRHWK05HZ44ZWA0MJZFPKBAUMW", "current_trial": 156, "dateTime": 1512585892842, "trialdata": {"rt": -1, "stimulus": "<p id=\"stim\">+</p>", "key_press": -1, "type": "FIXATION", "trial_type": "single-stim", "trial_index": 156, "time_elapsed": 934268, "internal_node_id": "0.0-111.0-0.0"}}, {"uniqueid": "MTK0664:3BXQMRHWK05HZ44ZWA0MJZFPKBAUMW", "current_trial": 157, "dateTime": 1512585894486, "trialdata": {"rt": -1000, "stimulus": "/static/audio/wordpool/RAZOR.wav", "key_press": -1, "type": "PRES_AUD", "word": "razor", "wordID": 1170, "conditions": [12, 800, "a", 24000], "trial": 4, "serialpos": 0, "trial_type": "single-audio", "trial_index": 157, "time_elapsed": 935912, "internal_node_id": "0.0-112.0"}}, {"uniqueid": "MTK0664:3BXQMRHWK05HZ44ZWA0MJZFPKBAUMW", "current_trial": 158, "dateTime": 1512585896169, "trialdata": {"rt": -1000, "stimulus": "/static/audio/wordpool/LAVA.wav", "key_press": -1, "type": "PRES_AUD", "word": "lava", "wordID": 803, "conditions": [12, 800, "a", 24000], "trial": 4, "serialpos": 1, "trial_type": "single-audio", "trial_index": 158, "time_elapsed": 937595, "internal_node_id": "0.0-113.0"}}, {"uniqueid": "MTK0664:3BXQMRHWK05HZ44ZWA0MJZFPKBAUMW", "current_trial": 159, "dateTime": 1512585897954, "trialdata": {"rt": -1000, "stimulus": "/static/audio/wordpool/VALLEY.wav", "key_press": -1, "type": "PRES_AUD", "word": "valley", "wordID": 1544, "conditions": [12, 800, "a", 24000], "trial": 4, "serialpos": 2, "trial_type": "single-audio", "trial_index": 159, "time_elapsed": 939380, "internal_node_id": "0.0-114.0"}}, {"uniqueid": "MTK0664:3BXQMRHWK05HZ44ZWA0MJZFPKBAUMW", "current_trial": 160, "dateTime": 1512585899646, "trialdata": {"rt": -1000, "stimulus": "/static/audio/wordpool/OINTMENT.wav", "key_press": -1, "type": "PRES_AUD", "word": "ointment", "wordID": 973, "conditions": [12, 800, "a", 24000], "trial": 4, "serialpos": 3, "trial_type": "single-audio", "trial_index": 160, "time_elapsed": 941072, "internal_node_id": "0.0-115.0"}}, {"uniqueid": "MTK0664:3BXQMRHWK05HZ44ZWA0MJZFPKBAUMW", "current_trial": 161, "dateTime": 1512585901370, "trialdata": {"rt": -1000, "stimulus": "/static/audio/wordpool/MONSTER.wav", "key_press": -1, "type": "PRES_AUD", "word": "monster", "wordID": 911, "conditions": [12, 800, "a", 24000], "trial": 4, "serialpos": 4, "trial_type": "single-audio", "trial_index": 161, "time_elapsed": 942796, "internal_node_id": "0.0-116.0"}}, {"uniqueid": "MTK0664:3BXQMRHWK05HZ44ZWA0MJZFPKBAUMW", "current_trial": 162, "dateTime": 1512585903176, "trialdata": {"rt": -1000, "stimulus": "/static/audio/wordpool/BOYFRIEND.wav", "key_press": -1, "type": "PRES_AUD", "word": "boyfriend", "wordID": 161, "conditions": [12, 800, "a", 24000], "trial": 4, "serialpos": 5, "trial_type": "single-audio", "trial_index": 162, "time_elapsed": 944602, "internal_node_id": "0.0-117.0"}}, {"uniqueid": "MTK0664:3BXQMRHWK05HZ44ZWA0MJZFPKBAUMW", "current_trial": 163, "dateTime": 1512585905086, "trialdata": {"rt": -1000, "stimulus": "/static/audio/wordpool/FREEZER.wav", "key_press": -1, "type": "PRES_AUD", "word": "freezer", "wordID": 603, "conditions": [12, 800, "a", 24000], "trial": 4, "serialpos": 6, "trial_type": "single-audio", "trial_index": 163, "time_elapsed": 946512, "internal_node_id": "0.0-118.0"}}, {"uniqueid": "MTK0664:3BXQMRHWK05HZ44ZWA0MJZFPKBAUMW", "current_trial": 164, "dateTime": 1512585906757, "trialdata": {"rt": -1000, "stimulus": "/static/audio/wordpool/PISTON.wav", "key_press": -1, "type": "PRES_AUD", "word": "piston", "wordID": 1075, "conditions": [12, 800, "a", 24000], "trial": 4, "serialpos": 7, "trial_type": "single-audio", "trial_index": 164, "time_elapsed": 948183, "internal_node_id": "0.0-119.0"}}, {"uniqueid": "MTK0664:3BXQMRHWK05HZ44ZWA0MJZFPKBAUMW", "current_trial": 165, "dateTime": 1512585908476, "trialdata": {"rt": -1000, "stimulus": "/static/audio/wordpool/VALVE.wav", "key_press": -1, "type": "PRES_AUD", "word": "valve", "wordID": 1545, "conditions": [12, 800, "a", 24000], "trial": 4, "serialpos": 8, "trial_type": "single-audio", "trial_index": 165, "time_elapsed": 949902, "internal_node_id": "0.0-120.0"}}, {"uniqueid": "MTK0664:3BXQMRHWK05HZ44ZWA0MJZFPKBAUMW", "current_trial": 166, "dateTime": 1512585910350, "trialdata": {"rt": -1000, "stimulus": "/static/audio/wordpool/SODA.wav", "key_press": -1, "type": "PRES_AUD", "word": "soda", "wordID": 1340, "conditions": [12, 800, "a", 24000], "trial": 4, "serialpos": 9, "trial_type": "single-audio", "trial_index": 166, "time_elapsed": 951776, "internal_node_id": "0.0-121.0"}}, {"uniqueid": "MTK0664:3BXQMRHWK05HZ44ZWA0MJZFPKBAUMW", "current_trial": 167, "dateTime": 1512585912174, "trialdata": {"rt": -1000, "stimulus": "/static/audio/wordpool/BROOK.wav", "key_press": -1, "type": "PRES_AUD", "word": "brook", "wordID": 176, "conditions": [12, 800, "a", 24000], "trial": 4, "serialpos": 10, "trial_type": "single-audio", "trial_index": 167, "time_elapsed": 953600, "internal_node_id": "0.0-122.0"}}, {"uniqueid": "MTK0664:3BXQMRHWK05HZ44ZWA0MJZFPKBAUMW", "current_trial": 168, "dateTime": 1512585913932, "trialdata": {"rt": -1000, "stimulus": "/static/audio/wordpool/BEAST.wav", "key_press": -1, "type": "PRES_AUD", "word": "beast", "wordID": 107, "conditions": [12, 800, "a", 24000], "trial": 4, "serialpos": 11, "trial_type": "single-audio", "trial_index": 168, "time_elapsed": 955358, "internal_node_id": "0.0-123.0"}}, {"uniqueid": "MTK0664:3BXQMRHWK05HZ44ZWA0MJZFPKBAUMW", "current_trial": 169, "dateTime": 1512585915251, "trialdata": {"rt": -1, "stimulus": "", "key_press": -1, "type": "PRE_RECALL_DELAY", "trial_type": "single-stim", "trial_index": 169, "time_elapsed": 956677, "internal_node_id": "0.0-124.0-0.0"}}, {"uniqueid": "MTK0664:3BXQMRHWK05HZ44ZWA0MJZFPKBAUMW", "current_trial": 170, "dateTime": 1512585915752, "trialdata": {"rt": -1000, "stimulus": "/static/audio/400Hz.wav", "key_press": -1, "type": "PRE_RECALL_ALERT", "trial_type": "single-audio", "trial_index": 170, "time_elapsed": 957178, "internal_node_id": "0.0-125.0"}}, {"uniqueid": "MTK0664:3BXQMRHWK05HZ44ZWA0MJZFPKBAUMW", "current_trial": 171, "dateTime": 1512585975755, "trialdata": {"rt": [], "recwords": [], "type": "FREE_RECALL", "conditions": [12, 800, "a", 24000], "trial": 4, "trial_type": "free-recall", "trial_index": 171, "time_elapsed": 1017179, "internal_node_id": "0.0-126.0-0.0"}}, {"uniqueid": "MTK0664:3BXQMRHWK05HZ44ZWA0MJZFPKBAUMW", "current_trial": 172, "dateTime": 1512586045964, "trialdata": {"rt": 68209, "key_press": 32, "type": "INSTRUCTIONS", "trial_type": "text", "trial_index": 172, "time_elapsed": 1087390, "internal_node_id": "0.0-127.0"}}, {"uniqueid": "MTK0664:3BXQMRHWK05HZ44ZWA0MJZFPKBAUMW", "current_trial": 173, "dateTime": 1512586071970, "trialdata": {"rt": [7875, 8091, 8314, 8522, 8738, 8954, 9186, 9418, 9659, 9907, 10146, 10392, 10627, 10866, 11115, 11355, 11603, 11826, 12067, 12299, 12562, 12802, 13034, 13267, 13490, 13716, 13938, 14163, 14371, 14603, 14866, 15122, 15354, 15587, 15826, 16058, 16290, 16522, 16786, 17066, 17322, 17562, 17826, 18099, 18338, 18587, 18818, 19082, 19346, 19562, 19803, 20035, 20290, 20507, 20746, 20994, 21210, 21474, 21699, 21915, 22138, 22363, 22586, 22818, 23067, 23306, 23530, 23746, 23978], "responses": ["1237", "21", "12", "12", "2", "1", "2", "12", "12", "12", "2", "12", "1", "2", "12", "12", "1", "2", "12", "1", "21", "2", "12", "1", "21", "2", "1", "21", "2", "1", "21", "21", "2", "1", "21", "2", "12", "1", "21", "12", "2", "12", "1", "21", "2", "12", "12", "1", "1", "2", "12", "1", "221", "21", "1", "2", "12", "21", "12", "2", "1", "21", "2", "12", "12", "1", "2", "12", "12"], "num1": [1, 2, 7, 3, 5, 1, 1, 5, 5, 5, 1, 1, 9, 1, 9, 5, 5, 3, 6, 3, 4, 1, 8, 3, 8, 7, 6, 6, 4, 1, 5, 9, 1, 2, 8, 4, 1, 7, 3, 3, 9, 8, 4, 8, 6, 9, 4, 1, 4, 9, 6, 1, 1, 3, 4, 3, 2, 7, 2, 6, 9, 1, 4, 7, 9, 1, 2, 2, 5, 4], "num2": [7, 1, 8, 9, 7, 7, 6, 8, 6, 8, 2, 4, 7, 7, 4, 8, 8, 2, 4, 4, 5, 5, 8, 8, 7, 5, 8, 8, 9, 1, 1, 7, 1, 5, 9, 2, 8, 3, 4, 9, 7, 1, 7, 7, 7, 1, 1, 9, 9, 6, 6, 5, 7, 5, 5, 2, 5, 8, 8, 1, 7, 3, 4, 6, 4, 6, 8, 8, 7, 4], "num3": [9, 9, 9, 7, 6, 6, 1, 9, 3, 6, 2, 8, 7, 4, 5, 2, 6, 6, 8, 3, 9, 1, 8, 7, 3, 3, 8, 1, 1, 3, 1, 6, 9, 4, 5, 7, 6, 2, 5, 9, 5, 2, 3, 1, 8, 5, 8, 3, 3, 6, 7, 3, 1, 7, 6, 6, 6, 2, 9, 8, 1, 3, 3, 2, 5, 8, 3, 5, 8, 1], "type": "DISTRACTOR", "conditions": [12, 1600, "a", 24000], "trial": 5, "trial_type": "math-distractor", "trial_index": 173, "time_elapsed": 1113396, "internal_node_id": "0.0-128.0"}}, {"uniqueid": "MTK0664:3BXQMRHWK05HZ44ZWA0MJZFPKBAUMW", "current_trial": 174, "dateTime": 1512586074972, "trialdata": {"rt": -1, "stimulus": "<p id=\"stim\">10</p>", "key_press": -1, "trial_type": "single-stim", "trial_index": 174, "time_elapsed": 1116398, "internal_node_id": "0.0-129.0-0.0"}}, {"uniqueid": "MTK0664:3BXQMRHWK05HZ44ZWA0MJZFPKBAUMW", "current_trial": 175, "dateTime": 1512586075974, "trialdata": {"rt": -1, "stimulus": "<p id=\"stim\">9</p>", "key_press": -1, "trial_type": "single-stim", "trial_index": 175, "time_elapsed": 1117399, "internal_node_id": "0.0-129.0-1.0"}}, {"uniqueid": "MTK0664:3BXQMRHWK05HZ44ZWA0MJZFPKBAUMW", "current_trial": 176, "dateTime": 1512586076977, "trialdata": {"rt": -1, "stimulus": "<p id=\"stim\">8</p>", "key_press": -1, "trial_type": "single-stim", "trial_index": 176, "time_elapsed": 1118403, "internal_node_id": "0.0-129.0-2.0"}}, {"uniqueid": "MTK0664:3BXQMRHWK05HZ44ZWA0MJZFPKBAUMW", "current_trial": 177, "dateTime": 1512586077981, "trialdata": {"rt": -1, "stimulus": "<p id=\"stim\">7</p>", "key_press": -1, "trial_type": "single-stim", "trial_index": 177, "time_elapsed": 1119407, "internal_node_id": "0.0-129.0-3.0"}}, {"uniqueid": "MTK0664:3BXQMRHWK05HZ44ZWA0MJZFPKBAUMW", "current_trial": 178, "dateTime": 1512586078986, "trialdata": {"rt": -1, "stimulus": "<p id=\"stim\">6</p>", "key_press": -1, "trial_type": "single-stim", "trial_index": 178, "time_elapsed": 1120412, "internal_node_id": "0.0-129.0-4.0"}}, {"uniqueid": "MTK0664:3BXQMRHWK05HZ44ZWA0MJZFPKBAUMW", "current_trial": 179, "dateTime": 1512586079989, "trialdata": {"rt": -1, "stimulus": "<p id=\"stim\">5</p>", "key_press": -1, "trial_type": "single-stim", "trial_index": 179, "time_elapsed": 1121415, "internal_node_id": "0.0-129.0-5.0"}}, {"uniqueid": "MTK0664:3BXQMRHWK05HZ44ZWA0MJZFPKBAUMW", "current_trial": 180, "dateTime": 1512586080994, "trialdata": {"rt": -1, "stimulus": "<p id=\"stim\">4</p>", "key_press": -1, "trial_type": "single-stim", "trial_index": 180, "time_elapsed": 1122420, "internal_node_id": "0.0-129.0-6.0"}}, {"uniqueid": "MTK0664:3BXQMRHWK05HZ44ZWA0MJZFPKBAUMW", "current_trial": 181, "dateTime": 1512586081998, "trialdata": {"rt": -1, "stimulus": "<p id=\"stim\">3</p>", "key_press": -1, "trial_type": "single-stim", "trial_index": 181, "time_elapsed": 1123423, "internal_node_id": "0.0-129.0-7.0"}}, {"uniqueid": "MTK0664:3BXQMRHWK05HZ44ZWA0MJZFPKBAUMW", "current_trial": 182, "dateTime": 1512586083002, "trialdata": {"rt": -1, "stimulus": "<p id=\"stim\">2</p>", "key_press": -1, "trial_type": "single-stim", "trial_index": 182, "time_elapsed": 1124428, "internal_node_id": "0.0-129.0-8.0"}}, {"uniqueid": "MTK0664:3BXQMRHWK05HZ44ZWA0MJZFPKBAUMW", "current_trial": 183, "dateTime": 1512586084006, "trialdata": {"rt": -1, "stimulus": "<p id=\"stim\">1</p>", "key_press": -1, "trial_type": "single-stim", "trial_index": 183, "time_elapsed": 1125432, "internal_node_id": "0.0-129.0-9.0"}}, {"uniqueid": "MTK0664:3BXQMRHWK05HZ44ZWA0MJZFPKBAUMW", "current_trial": 184, "dateTime": 1512586085509, "trialdata": {"rt": -1, "stimulus": "<p id=\"stim\">+</p>", "key_press": -1, "type": "FIXATION", "trial_type": "single-stim", "trial_index": 184, "time_elapsed": 1126935, "internal_node_id": "0.0-130.0-0.0"}}, {"uniqueid": "MTK0664:3BXQMRHWK05HZ44ZWA0MJZFPKBAUMW", "current_trial": 185, "dateTime": 1512586087977, "trialdata": {"rt": -1000, "stimulus": "/static/audio/wordpool/MOTEL.wav", "key_press": -1, "type": "PRES_AUD", "word": "motel", "wordID": 918, "conditions": [12, 1600, "a", 24000], "trial": 5, "serialpos": 0, "trial_type": "single-audio", "trial_index": 185, "time_elapsed": 1129403, "internal_node_id": "0.0-131.0"}}, {"uniqueid": "MTK0664:3BXQMRHWK05HZ44ZWA0MJZFPKBAUMW", "current_trial": 186, "dateTime": 1512586090401, "trialdata": {"rt": -1000, "stimulus": "/static/audio/wordpool/FOREHEAD.wav", "key_press": -1, "type": "PRES_AUD", "word": "forehead", "wordID": 591, "conditions": [12, 1600, "a", 24000], "trial": 5, "serialpos": 1, "trial_type": "single-audio", "trial_index": 186, "time_elapsed": 1131827, "internal_node_id": "0.0-132.0"}}, {"uniqueid": "MTK0664:3BXQMRHWK05HZ44ZWA0MJZFPKBAUMW", "current_trial": 187, "dateTime": 1512586092888, "trialdata": {"rt": -1000, "stimulus": "/static/audio/wordpool/DAISY.wav", "key_press": -1, "type": "PRES_AUD", "word": "daisy", "wordID": 434, "conditions": [12, 1600, "a", 24000], "trial": 5, "serialpos": 2, "trial_type": "single-audio", "trial_index": 187, "time_elapsed": 1134314, "internal_node_id": "0.0-133.0"}}, {"uniqueid": "MTK0664:3BXQMRHWK05HZ44ZWA0MJZFPKBAUMW", "current_trial": 188, "dateTime": 1512586095471, "trialdata": {"rt": -1000, "stimulus": "/static/audio/wordpool/GLOVE.wav", "key_press": -1, "type": "PRES_AUD", "word": "glove", "wordID": 641, "conditions": [12, 1600, "a", 24000], "trial": 5, "serialpos": 3, "trial_type": "single-audio", "trial_index": 188, "time_elapsed": 1136897, "internal_node_id": "0.0-134.0"}}, {"uniqueid": "MTK0664:3BXQMRHWK05HZ44ZWA0MJZFPKBAUMW", "current_trial": 189, "dateTime": 1512586097950, "trialdata": {"rt": -1000, "stimulus": "/static/audio/wordpool/GRAPE.wav", "key_press": -1, "type": "PRES_AUD", "word": "grape", "wordID": 653, "conditions": [12, 1600, "a", 24000], "trial": 5, "serialpos": 4, "trial_type": "single-audio", "trial_index": 189, "time_elapsed": 1139376, "internal_node_id": "0.0-135.0"}}, {"uniqueid": "MTK0664:3BXQMRHWK05HZ44ZWA0MJZFPKBAUMW", "current_trial": 190, "dateTime": 1512586100736, "trialdata": {"rt": -1000, "stimulus": "/static/audio/wordpool/BARLEY.wav", "key_press": -1, "type": "PRES_AUD", "word": "barley", "wordID": 87, "conditions": [12, 1600, "a", 24000], "trial": 5, "serialpos": 5, "trial_type": "single-audio", "trial_index": 190, "time_elapsed": 1142162, "internal_node_id": "0.0-136.0"}}, {"uniqueid": "MTK0664:3BXQMRHWK05HZ44ZWA0MJZFPKBAUMW", "current_trial": 191, "dateTime": 1512586103528, "trialdata": {"rt": -1000, "stimulus": "/static/audio/wordpool/RABBIT.wav", "key_press": -1, "type": "PRES_AUD", "word": "rabbit", "wordID": 1151, "conditions": [12, 1600, "a", 24000], "trial": 5, "serialpos": 6, "trial_type": "single-audio", "trial_index": 191, "time_elapsed": 1144954, "internal_node_id": "0.0-137.0"}}, {"uniqueid": "MTK0664:3BXQMRHWK05HZ44ZWA0MJZFPKBAUMW", "current_trial": 192, "dateTime": 1512586105958, "trialdata": {"rt": -1000, "stimulus": "/static/audio/wordpool/PISTOL.wav", "key_press": -1, "type": "PRES_AUD", "word": "pistol", "wordID": 1074, "conditions": [12, 1600, "a", 24000], "trial": 5, "serialpos": 7, "trial_type": "single-audio", "trial_index": 192, "time_elapsed": 1147384, "internal_node_id": "0.0-138.0"}}, {"uniqueid": "MTK0664:3BXQMRHWK05HZ44ZWA0MJZFPKBAUMW", "current_trial": 193, "dateTime": 1512586108497, "trialdata": {"rt": -1000, "stimulus": "/static/audio/wordpool/GHETTO.wav", "key_press": -1, "type": "PRES_AUD", "word": "ghetto", "wordID": 632, "conditions": [12, 1600, "a", 24000], "trial": 5, "serialpos": 8, "trial_type": "single-audio", "trial_index": 193, "time_elapsed": 1149923, "internal_node_id": "0.0-139.0"}}, {"uniqueid": "MTK0664:3BXQMRHWK05HZ44ZWA0MJZFPKBAUMW", "current_trial": 194, "dateTime": 1512586111026, "trialdata": {"rt": -1000, "stimulus": "/static/audio/wordpool/CHIPMUNK.wav", "key_press": -1, "type": "PRES_AUD", "word": "chipmunk", "wordID": 303, "conditions": [12, 1600, "a", 24000], "trial": 5, "serialpos": 9, "trial_type": "single-audio", "trial_index": 194, "time_elapsed": 1152452, "internal_node_id": "0.0-140.0"}}, {"uniqueid": "MTK0664:3BXQMRHWK05HZ44ZWA0MJZFPKBAUMW", "current_trial": 195, "dateTime": 1512586113552, "trialdata": {"rt": -1000, "stimulus": "/static/audio/wordpool/APRON.wav", "key_press": -1, "type": "PRES_AUD", "word": "apron", "wordID": 34, "conditions": [12, 1600, "a", 24000], "trial": 5, "serialpos": 10, "trial_type": "single-audio", "trial_index": 195, "time_elapsed": 1154978, "internal_node_id": "0.0-141.0"}}, {"uniqueid": "MTK0664:3BXQMRHWK05HZ44ZWA0MJZFPKBAUMW", "current_trial": 196, "dateTime": 1512586116148, "trialdata": {"rt": -1000, "stimulus": "/static/audio/wordpool/CARROT.wav", "key_press": -1, "type": "PRES_AUD", "word": "carrot", "wordID": 248, "conditions": [12, 1600, "a", 24000], "trial": 5, "serialpos": 11, "trial_type": "single-audio", "trial_index": 196, "time_elapsed": 1157574, "internal_node_id": "0.0-142.0"}}, {"uniqueid": "MTK0664:3BXQMRHWK05HZ44ZWA0MJZFPKBAUMW", "current_trial": 197, "dateTime": 1512586117374, "trialdata": {"rt": -1, "stimulus": "", "key_press": -1, "type": "PRE_RECALL_DELAY", "trial_type": "single-stim", "trial_index": 197, "time_elapsed": 1158800, "internal_node_id": "0.0-143.0-0.0"}}, {"uniqueid": "MTK0664:3BXQMRHWK05HZ44ZWA0MJZFPKBAUMW", "current_trial": 198, "dateTime": 1512586117875, "trialdata": {"rt": -1000, "stimulus": "/static/audio/400Hz.wav", "key_press": -1, "type": "PRE_RECALL_ALERT", "trial_type": "single-audio", "trial_index": 198, "time_elapsed": 1159301, "internal_node_id": "0.0-144.0"}}, {"uniqueid": "MTK0664:3BXQMRHWK05HZ44ZWA0MJZFPKBAUMW", "current_trial": 199, "dateTime": 1512586177882, "trialdata": {"rt": [], "recwords": [], "type": "FREE_RECALL", "conditions": [12, 1600, "a", 24000], "trial": 5, "trial_type": "free-recall", "trial_index": 199, "time_elapsed": 1219306, "internal_node_id": "0.0-145.0-0.0"}}, {"uniqueid": "MTK0664:3BXQMRHWK05HZ44ZWA0MJZFPKBAUMW", "current_trial": 200, "dateTime": 1512586196171, "trialdata": {"rt": 16288, "key_press": 32, "type": "INSTRUCTIONS", "trial_type": "text", "trial_index": 200, "time_elapsed": 1237597, "internal_node_id": "0.0-146.0"}}, {"uniqueid": "MTK0664:3BXQMRHWK05HZ44ZWA0MJZFPKBAUMW", "current_trial": 201, "dateTime": 1512586222180, "trialdata": {"rt": [3411, 3738, 3971, 4178, 4394, 4578, 4778, 4954, 5138, 5323, 5498, 5706, 5906, 6114, 6298, 6506, 6691, 6885, 7050, 7226, 7410, 7603, 7794, 7978, 8146, 8355, 8562, 8762, 8970, 9178, 9370, 9578, 9778, 9978, 10170, 10370, 10571, 10786, 10994, 11234, 11418, 11642, 11850, 12074, 12274, 12498, 12699, 12898, 13106, 13314, 13514, 13746, 13962, 14178, 14396, 14594, 14810, 15042, 15250, 15474, 15674, 15882, 16106, 16338, 16546, 16818, 17010, 17242, 17450, 17707, 17914, 18155, 18410, 18642, 18882, 19202, 19442, 19706, 19930, 20171, 20386, 20618, 20834, 21058, 21283, 21514, 21738, 21962, 22178, 22410, 22626, 22843, 23066, 23274, 23498, 23738, 23962], "responses": ["", "88", "8", "8", "7", "5", "64", "", "3", "3", "", "3", "2", "2", "3", "3", "4", "5", "34", "5", "4", "3", "3", "4", "", "44", "4", "34", "4", "3", "3", "34", "3", "43", "2", "2", "32", "3", "2", "3", "23", "32", "3", "2", "3", "2", "32", "3", "2", "3", "2", "32", "3", "23", "2", "3", "2", "23", "23", "2", "3", "23", "2", "3", "4", "34", "3", "43", "4", "34", "34", "34", "34", "4", "3", "43", "43", "4", "3", "4", "3", "34", "43", "34", "34", "4", "34", "4", "34", "43", "4", "3", "4", "34", "34", "43", "4"], "num1": [5, 1, 8, 6, 2, 2, 9, 6, 8, 6, 9, 6, 1, 2, 2, 6, 6, 7, 2, 1, 3, 8, 2, 6, 1, 8, 2, 5, 3, 6, 7, 7, 4, 3, 8, 9, 6, 5, 3, 8, 8, 8, 5, 7, 2, 7, 8, 5, 7, 9, 7, 3, 5, 6, 7, 2, 7, 9, 6, 2, 4, 1, 3, 6, 4, 9, 3, 2, 4, 9, 1, 5, 3, 4, 8, 3, 2, 4, 5, 5, 2, 1, 7, 8, 8, 3, 9, 4, 2, 6, 2, 6, 7, 7, 2, 8, 5, 9], "num2": [1, 3, 3, 1, 8, 9, 2, 6, 3, 6, 9, 8, 6, 3, 3, 8, 9, 9, 8, 1, 9, 6, 9, 2, 7, 7, 2, 1, 1, 8, 5, 7, 1, 2, 9, 6, 9, 2, 8, 3, 7, 5, 5, 6, 5, 3, 1, 1, 1, 7, 8, 2, 3, 4, 7, 2, 9, 7, 9, 3, 8, 4, 6, 3, 5, 6, 2, 3, 2, 1, 6, 4, 1, 7, 3, 2, 7, 2, 2, 8, 3, 8, 1, 9, 7, 9, 6, 8, 2, 6, 7, 2, 3, 7, 7, 2, 7, 8], "num3": [4, 1, 3, 5, 9, 6, 4, 1, 4, 9, 6, 1, 9, 2, 6, 2, 3, 2, 1, 2, 8, 6, 7, 1, 5, 2, 2, 5, 3, 8, 7, 2, 5, 4, 2, 9, 7, 9, 7, 4, 6, 8, 8, 7, 1, 3, 3, 6, 9, 2, 3, 1, 1, 5, 4, 6, 1, 1, 8, 8, 9, 7, 6, 8, 3, 2, 6, 4, 5, 3, 8, 8, 8, 5, 5, 3, 5, 4, 7, 3, 8, 5, 9, 7, 6, 9, 2, 5, 9, 6, 9, 8, 5, 5, 8, 9, 7, 8], "type": "DISTRACTOR", "conditions": [24, 800, "v", 24000], "trial": 6, "trial_type": "math-distractor", "trial_index": 201, "time_elapsed": 1263606, "internal_node_id": "0.0-147.0"}}, {"uniqueid": "MTK0664:3BXQMRHWK05HZ44ZWA0MJZFPKBAUMW", "current_trial": 202, "dateTime": 1512586225188, "trialdata": {"rt": -1, "stimulus": "<p id=\"stim\">10</p>", "key_press": -1, "trial_type": "single-stim", "trial_index": 202, "time_elapsed": 1266614, "internal_node_id": "0.0-148.0-0.0"}}, {"uniqueid": "MTK0664:3BXQMRHWK05HZ44ZWA0MJZFPKBAUMW", "current_trial": 203, "dateTime": 1512586226192, "trialdata": {"rt": -1, "stimulus": "<p id=\"stim\">9</p>", "key_press": -1, "trial_type": "single-stim", "trial_index": 203, "time_elapsed": 1267618, "internal_node_id": "0.0-148.0-1.0"}}, {"uniqueid": "MTK0664:3BXQMRHWK05HZ44ZWA0MJZFPKBAUMW", "current_trial": 204, "dateTime": 1512586227197, "trialdata": {"rt": -1, "stimulus": "<p id=\"stim\">8</p>", "key_press": -1, "trial_type": "single-stim", "trial_index": 204, "time_elapsed": 1268623, "internal_node_id": "0.0-148.0-2.0"}}, {"uniqueid": "MTK0664:3BXQMRHWK05HZ44ZWA0MJZFPKBAUMW", "current_trial": 205, "dateTime": 1512586228200, "trialdata": {"rt": -1, "stimulus": "<p id=\"stim\">7</p>", "key_press": -1, "trial_type": "single-stim", "trial_index": 205, "time_elapsed": 1269626, "internal_node_id": "0.0-148.0-3.0"}}, {"uniqueid": "MTK0664:3BXQMRHWK05HZ44ZWA0MJZFPKBAUMW", "current_trial": 206, "dateTime": 1512586229205, "trialdata": {"rt": -1, "stimulus": "<p id=\"stim\">6</p>", "key_press": -1, "trial_type": "single-stim", "trial_index": 206, "time_elapsed": 1270631, "internal_node_id": "0.0-148.0-4.0"}}, {"uniqueid": "MTK0664:3BXQMRHWK05HZ44ZWA0MJZFPKBAUMW", "current_trial": 207, "dateTime": 1512586230209, "trialdata": {"rt": -1, "stimulus": "<p id=\"stim\">5</p>", "key_press": -1, "trial_type": "single-stim", "trial_index": 207, "time_elapsed": 1271635, "internal_node_id": "0.0-148.0-5.0"}}, {"uniqueid": "MTK0664:3BXQMRHWK05HZ44ZWA0MJZFPKBAUMW", "current_trial": 208, "dateTime": 1512586231213, "trialdata": {"rt": -1, "stimulus": "<p id=\"stim\">4</p>", "key_press": -1, "trial_type": "single-stim", "trial_index": 208, "time_elapsed": 1272639, "internal_node_id": "0.0-148.0-6.0"}}, {"uniqueid": "MTK0664:3BXQMRHWK05HZ44ZWA0MJZFPKBAUMW", "current_trial": 209, "dateTime": 1512586232217, "trialdata": {"rt": -1, "stimulus": "<p id=\"stim\">3</p>", "key_press": -1, "trial_type": "single-stim", "trial_index": 209, "time_elapsed": 1273643, "internal_node_id": "0.0-148.0-7.0"}}, {"uniqueid": "MTK0664:3BXQMRHWK05HZ44ZWA0MJZFPKBAUMW", "current_trial": 210, "dateTime": 1512586233221, "trialdata": {"rt": -1, "stimulus": "<p id=\"stim\">2</p>", "key_press": -1, "trial_type": "single-stim", "trial_index": 210, "time_elapsed": 1274647, "internal_node_id": "0.0-148.0-8.0"}}, {"uniqueid": "MTK0664:3BXQMRHWK05HZ44ZWA0MJZFPKBAUMW", "current_trial": 211, "dateTime": 1512586234225, "trialdata": {"rt": -1, "stimulus": "<p id=\"stim\">1</p>", "key_press": -1, "trial_type": "single-stim", "trial_index": 211, "time_elapsed": 1275651, "internal_node_id": "0.0-148.0-9.0"}}, {"uniqueid": "MTK0664:3BXQMRHWK05HZ44ZWA0MJZFPKBAUMW", "current_trial": 212, "dateTime": 1512586235728, "trialdata": {"rt": -1, "stimulus": "<p id=\"stim\">+</p>", "key_press": -1, "type": "FIXATION", "trial_type": "single-stim", "trial_index": 212, "time_elapsed": 1277154, "internal_node_id": "0.0-149.0-0.0"}}, {"uniqueid": "MTK0664:3BXQMRHWK05HZ44ZWA0MJZFPKBAUMW", "current_trial": 213, "dateTime": 1512586236534, "trialdata": {"rt": -1, "stimulus": "<p id=\"stim\">FOX</p>", "key_press": -1, "type": "PRES_VIS", "word": "fox", "wordID": 597, "conditions": [24, 800, "v", 24000], "trial": 6, "serialpos": 0, "trial_type": "single-stim", "trial_index": 213, "time_elapsed": 1277959, "internal_node_id": "0.0-150.0"}}, {"uniqueid": "MTK0664:3BXQMRHWK05HZ44ZWA0MJZFPKBAUMW", "current_trial": 214, "dateTime": 1512586238172, "trialdata": {"rt": -1, "stimulus": "<p id=\"stim\">SILK</p>", "key_press": -1, "type": "PRES_VIS", "word": "silk", "wordID": 1306, "conditions": [24, 800, "v", 24000], "trial": 6, "serialpos": 1, "trial_type": "single-stim", "trial_index": 214, "time_elapsed": 1279598, "internal_node_id": "0.0-151.0"}}, {"uniqueid": "MTK0664:3BXQMRHWK05HZ44ZWA0MJZFPKBAUMW", "current_trial": 215, "dateTime": 1512586239953, "trialdata": {"rt": -1, "stimulus": "<p id=\"stim\">CAPTIVE</p>", "key_press": -1, "type": "PRES_VIS", "word": "captive", "wordID": 239, "conditions": [24, 800, "v", 24000], "trial": 6, "serialpos": 2, "trial_type": "single-stim", "trial_index": 215, "time_elapsed": 1281379, "internal_node_id": "0.0-152.0"}}, {"uniqueid": "MTK0664:3BXQMRHWK05HZ44ZWA0MJZFPKBAUMW", "current_trial": 216, "dateTime": 1512586241776, "trialdata": {"rt": -1, "stimulus": "<p id=\"stim\">NAPKIN</p>", "key_press": -1, "type": "PRES_VIS", "word": "napkin", "wordID": 936, "conditions": [24, 800, "v", 24000], "trial": 6, "serialpos": 3, "trial_type": "single-stim", "trial_index": 216, "time_elapsed": 1283202, "internal_node_id": "0.0-153.0"}}, {"uniqueid": "MTK0664:3BXQMRHWK05HZ44ZWA0MJZFPKBAUMW", "current_trial": 217, "dateTime": 1512586243669, "trialdata": {"rt": -1, "stimulus": "<p id=\"stim\">FRUIT</p>", "key_press": -1, "type": "PRES_VIS", "word": "fruit", "wordID": 609, "conditions": [24, 800, "v", 24000], "trial": 6, "serialpos": 4, "trial_type": "single-stim", "trial_index": 217, "time_elapsed": 1285095, "internal_node_id": "0.0-154.0"}}, {"uniqueid": "MTK0664:3BXQMRHWK05HZ44ZWA0MJZFPKBAUMW", "current_trial": 218, "dateTime": 1512586245328, "trialdata": {"rt": -1, "stimulus": "<p id=\"stim\">SALMON</p>", "key_press": -1, "type": "PRES_VIS", "word": "salmon", "wordID": 1226, "conditions": [24, 800, "v", 24000], "trial": 6, "serialpos": 5, "trial_type": "single-stim", "trial_index": 218, "time_elapsed": 1286754, "internal_node_id": "0.0-155.0"}}, {"uniqueid": "MTK0664:3BXQMRHWK05HZ44ZWA0MJZFPKBAUMW", "current_trial": 219, "dateTime": 1512586247296, "trialdata": {"rt": -1, "stimulus": "<p id=\"stim\">HAMPER</p>", "key_press": -1, "type": "PRES_VIS", "word": "hamper", "wordID": 681, "conditions": [24, 800, "v", 24000], "trial": 6, "serialpos": 6, "trial_type": "single-stim", "trial_index": 219, "time_elapsed": 1288722, "internal_node_id": "0.0-156.0"}}, {"uniqueid": "MTK0664:3BXQMRHWK05HZ44ZWA0MJZFPKBAUMW", "current_trial": 220, "dateTime": 1512586249077, "trialdata": {"rt": -1, "stimulus": "<p id=\"stim\">CUPBOARD</p>", "key_press": -1, "type": "PRES_VIS", "word": "cupboard", "wordID": 424, "conditions": [24, 800, "v", 24000], "trial": 6, "serialpos": 7, "trial_type": "single-stim", "trial_index": 220, "time_elapsed": 1290503, "internal_node_id": "0.0-157.0"}}, {"uniqueid": "MTK0664:3BXQMRHWK05HZ44ZWA0MJZFPKBAUMW", "current_trial": 221, "dateTime": 1512586250854, "trialdata": {"rt": -1, "stimulus": "<p id=\"stim\">KITCHEN</p>", "key_press": -1, "type": "PRES_VIS", "word": "kitchen", "wordID": 777, "conditions": [24, 800, "v", 24000], "trial": 6, "serialpos": 8, "trial_type": "single-stim", "trial_index": 221, "time_elapsed": 1292279, "internal_node_id": "0.0-158.0"}}, {"uniqueid": "MTK0664:3BXQMRHWK05HZ44ZWA0MJZFPKBAUMW", "current_trial": 222, "dateTime": 1512586252560, "trialdata": {"rt": -1, "stimulus": "<p id=\"stim\">SNAKE</p>", "key_press": -1, "type": "PRES_VIS", "word": "snake", "wordID": 1332, "conditions": [24, 800, "v", 24000], "trial": 6, "serialpos": 9, "trial_type": "single-stim", "trial_index": 222, "time_elapsed": 1293986, "internal_node_id": "0.0-159.0"}}, {"uniqueid": "MTK0664:3BXQMRHWK05HZ44ZWA0MJZFPKBAUMW", "current_trial": 223, "dateTime": 1512586254255, "trialdata": {"rt": -1, "stimulus": "<p id=\"stim\">HERO</p>", "key_press": -1, "type": "PRES_VIS", "word": "hero", "wordID": 705, "conditions": [24, 800, "v", 24000], "trial": 6, "serialpos": 10, "trial_type": "single-stim", "trial_index": 223, "time_elapsed": 1295681, "internal_node_id": "0.0-160.0"}}, {"uniqueid": "MTK0664:3BXQMRHWK05HZ44ZWA0MJZFPKBAUMW", "current_trial": 224, "dateTime": 1512586256224, "trialdata": {"rt": -1, "stimulus": "<p id=\"stim\">WRENCH</p>", "key_press": -1, "type": "PRES_VIS", "word": "wrench", "wordID": 1624, "conditions": [24, 800, "v", 24000], "trial": 6, "serialpos": 11, "trial_type": "single-stim", "trial_index": 224, "time_elapsed": 1297649, "internal_node_id": "0.0-161.0"}}, {"uniqueid": "MTK0664:3BXQMRHWK05HZ44ZWA0MJZFPKBAUMW", "current_trial": 225, "dateTime": 1512586257853, "trialdata": {"rt": -1, "stimulus": "<p id=\"stim\">PEPPER</p>", "key_press": -1, "type": "PRES_VIS", "word": "pepper", "wordID": 1046, "conditions": [24, 800, "v", 24000], "trial": 6, "serialpos": 12, "trial_type": "single-stim", "trial_index": 225, "time_elapsed": 1299279, "internal_node_id": "0.0-162.0"}}, {"uniqueid": "MTK0664:3BXQMRHWK05HZ44ZWA0MJZFPKBAUMW", "current_trial": 226, "dateTime": 1512586259652, "trialdata": {"rt": -1, "stimulus": "<p id=\"stim\">CLOCK</p>", "key_press": -1, "type": "PRES_VIS", "word": "clock", "wordID": 324, "conditions": [24, 800, "v", 24000], "trial": 6, "serialpos": 13, "trial_type": "single-stim", "trial_index": 226, "time_elapsed": 1301078, "internal_node_id": "0.0-163.0"}}, {"uniqueid": "MTK0664:3BXQMRHWK05HZ44ZWA0MJZFPKBAUMW", "current_trial": 227, "dateTime": 1512586261498, "trialdata": {"rt": -1, "stimulus": "<p id=\"stim\">MARKER</p>", "key_press": -1, "type": "PRES_VIS", "word": "marker", "wordID": 869, "conditions": [24, 800, "v", 24000], "trial": 6, "serialpos": 14, "trial_type": "single-stim", "trial_index": 227, "time_elapsed": 1302924, "internal_node_id": "0.0-164.0"}}, {"uniqueid": "MTK0664:3BXQMRHWK05HZ44ZWA0MJZFPKBAUMW", "current_trial": 228, "dateTime": 1512586263109, "trialdata": {"rt": -1, "stimulus": "<p id=\"stim\">COFFEE</p>", "key_press": -1, "type": "PRES_VIS", "word": "coffee", "wordID": 340, "conditions": [24, 800, "v", 24000], "trial": 6, "serialpos": 15, "trial_type": "single-stim", "trial_index": 228, "time_elapsed": 1304534, "internal_node_id": "0.0-165.0"}}, {"uniqueid": "MTK0664:3BXQMRHWK05HZ44ZWA0MJZFPKBAUMW", "current_trial": 229, "dateTime": 1512586264758, "trialdata": {"rt": -1, "stimulus": "<p id=\"stim\">NECKLACE</p>", "key_press": -1, "type": "PRES_VIS", "word": "necklace", "wordID": 939, "conditions": [24, 800, "v", 24000], "trial": 6, "serialpos": 16, "trial_type": "single-stim", "trial_index": 229, "time_elapsed": 1306184, "internal_node_id": "0.0-166.0"}}, {"uniqueid": "MTK0664:3BXQMRHWK05HZ44ZWA0MJZFPKBAUMW", "current_trial": 230, "dateTime": 1512586266533, "trialdata": {"rt": -1, "stimulus": "<p id=\"stim\">RIFLE</p>", "key_press": -1, "type": "PRES_VIS", "word": "rifle", "wordID": 1191, "conditions": [24, 800, "v", 24000], "trial": 6, "serialpos": 17, "trial_type": "single-stim", "trial_index": 230, "time_elapsed": 1307959, "internal_node_id": "0.0-167.0"}}, {"uniqueid": "MTK0664:3BXQMRHWK05HZ44ZWA0MJZFPKBAUMW", "current_trial": 231, "dateTime": 1512586268254, "trialdata": {"rt": -1, "stimulus": "<p id=\"stim\">DUST</p>", "key_press": -1, "type": "PRES_VIS", "word": "dust", "wordID": 507, "conditions": [24, 800, "v", 24000], "trial": 6, "serialpos": 18, "trial_type": "single-stim", "trial_index": 231, "time_elapsed": 1309680, "internal_node_id": "0.0-168.0"}}, {"uniqueid": "MTK0664:3BXQMRHWK05HZ44ZWA0MJZFPKBAUMW", "current_trial": 232, "dateTime": 1512586269926, "trialdata": {"rt": -1, "stimulus": "<p id=\"stim\">SHELTER</p>", "key_press": -1, "type": "PRES_VIS", "word": "shelter", "wordID": 1281, "conditions": [24, 800, "v", 24000], "trial": 6, "serialpos": 19, "trial_type": "single-stim", "trial_index": 232, "time_elapsed": 1311352, "internal_node_id": "0.0-169.0"}}, {"uniqueid": "MTK0664:3BXQMRHWK05HZ44ZWA0MJZFPKBAUMW", "current_trial": 233, "dateTime": 1512586271769, "trialdata": {"rt": -1, "stimulus": "<p id=\"stim\">DOUGHNUT</p>", "key_press": -1, "type": "PRES_VIS", "word": "doughnut", "wordID": 489, "conditions": [24, 800, "v", 24000], "trial": 6, "serialpos": 20, "trial_type": "single-stim", "trial_index": 233, "time_elapsed": 1313194, "internal_node_id": "0.0-170.0"}}, {"uniqueid": "MTK0664:3BXQMRHWK05HZ44ZWA0MJZFPKBAUMW", "current_trial": 234, "dateTime": 1512586273754, "trialdata": {"rt": -1, "stimulus": "<p id=\"stim\">FRAGRANCE</p>", "key_press": -1, "type": "PRES_VIS", "word": "fragrance", "wordID": 598, "conditions": [24, 800, "v", 24000], "trial": 6, "serialpos": 21, "trial_type": "single-stim", "trial_index": 234, "time_elapsed": 1315179, "internal_node_id": "0.0-171.0"}}, {"uniqueid": "MTK0664:3BXQMRHWK05HZ44ZWA0MJZFPKBAUMW", "current_trial": 235, "dateTime": 1512586275680, "trialdata": {"rt": -1, "stimulus": "<p id=\"stim\">PERFUME</p>", "key_press": -1, "type": "PRES_VIS", "word": "perfume", "wordID": 1048, "conditions": [24, 800, "v", 24000], "trial": 6, "serialpos": 22, "trial_type": "single-stim", "trial_index": 235, "time_elapsed": 1317106, "internal_node_id": "0.0-172.0"}}, {"uniqueid": "MTK0664:3BXQMRHWK05HZ44ZWA0MJZFPKBAUMW", "current_trial": 236, "dateTime": 1512586277581, "trialdata": {"rt": -1, "stimulus": "<p id=\"stim\">SANDWICH</p>", "key_press": -1, "type": "PRES_VIS", "word": "sandwich", "wordID": 1231, "conditions": [24, 800, "v", 24000], "trial": 6, "serialpos": 23, "trial_type": "single-stim", "trial_index": 236, "time_elapsed": 1319007, "internal_node_id": "0.0-173.0"}}, {"uniqueid": "MTK0664:3BXQMRHWK05HZ44ZWA0MJZFPKBAUMW", "current_trial": 237, "dateTime": 1512586279999, "trialdata": {"rt": -1, "stimulus": "", "key_press": -1, "type": "PRE_RECALL_DELAY", "trial_type": "single-stim", "trial_index": 237, "time_elapsed": 1321425, "internal_node_id": "0.0-174.0-0.0"}}, {"uniqueid": "MTK0664:3BXQMRHWK05HZ44ZWA0MJZFPKBAUMW", "current_trial": 238, "dateTime": 1512586280500, "trialdata": {"rt": -1000, "stimulus": "/static/audio/400Hz.wav", "key_press": -1, "type": "PRE_RECALL_ALERT", "trial_type": "single-audio", "trial_index": 238, "time_elapsed": 1321926, "internal_node_id": "0.0-175.0"}}, {"uniqueid": "MTK0664:3BXQMRHWK05HZ44ZWA0MJZFPKBAUMW", "current_trial": 239, "dateTime": 1512586340506, "trialdata": {"rt": [22182, 25454], "recwords": ["car", "car"], "type": "FREE_RECALL", "conditions": [24, 800, "v", 24000], "trial": 6, "trial_type": "free-recall", "trial_index": 239, "time_elapsed": 1381930, "internal_node_id": "0.0-176.0-0.0"}}, {"uniqueid": "MTK0664:3BXQMRHWK05HZ44ZWA0MJZFPKBAUMW", "current_trial": 240, "dateTime": 1512586344050, "trialdata": {"rt": 1540, "key_press": 32, "type": "INSTRUCTIONS", "trial_type": "text", "trial_index": 240, "time_elapsed": 1385476, "internal_node_id": "0.0-177.0"}}, {"uniqueid": "MTK0664:3BXQMRHWK05HZ44ZWA0MJZFPKBAUMW", "current_trial": 241, "dateTime": 1512586358052, "trialdata": {"rt": [1999, 7927], "responses": [" 15", "14"], "num1": [7, 9, 2], "num2": [7, 4, 3], "num3": [1, 1, 5], "type": "DISTRACTOR", "conditions": [24, 1600, "v", 12000], "trial": 7, "trial_type": "math-distractor", "trial_index": 241, "time_elapsed": 1399478, "internal_node_id": "0.0-178.0"}}, {"uniqueid": "MTK0664:3BXQMRHWK05HZ44ZWA0MJZFPKBAUMW", "current_trial": 242, "dateTime": 1512586361058, "trialdata": {"rt": 819, "stimulus": "<p id=\"stim\">10</p>", "key_press": 13, "trial_type": "single-stim", "trial_index": 242, "time_elapsed": 1402484, "internal_node_id": "0.0-179.0-0.0"}}, {"uniqueid": "MTK0664:3BXQMRHWK05HZ44ZWA0MJZFPKBAUMW", "current_trial": 243, "dateTime": 1512586362062, "trialdata": {"rt": 104, "stimulus": "<p id=\"stim\">9</p>", "key_press": 13, "trial_type": "single-stim", "trial_index": 243, "time_elapsed": 1403488, "internal_node_id": "0.0-179.0-1.0"}}, {"uniqueid": "MTK0664:3BXQMRHWK05HZ44ZWA0MJZFPKBAUMW", "current_trial": 244, "dateTime": 1512586363066, "trialdata": {"rt": 283, "stimulus": "<p id=\"stim\">8</p>", "key_press": 13, "trial_type": "single-stim", "trial_index": 244, "time_elapsed": 1404492, "internal_node_id": "0.0-179.0-2.0"}}, {"uniqueid": "MTK0664:3BXQMRHWK05HZ44ZWA0MJZFPKBAUMW", "current_trial": 245, "dateTime": 1512586364071, "trialdata": {"rt": -1, "stimulus": "<p id=\"stim\">7</p>", "key_press": -1, "trial_type": "single-stim", "trial_index": 245, "time_elapsed": 1405497, "internal_node_id": "0.0-179.0-3.0"}}, {"uniqueid": "MTK0664:3BXQMRHWK05HZ44ZWA0MJZFPKBAUMW", "current_trial": 246, "dateTime": 1512586365075, "trialdata": {"rt": -1, "stimulus": "<p id=\"stim\">6</p>", "key_press": -1, "trial_type": "single-stim", "trial_index": 246, "time_elapsed": 1406500, "internal_node_id": "0.0-179.0-4.0"}}, {"uniqueid": "MTK0664:3BXQMRHWK05HZ44ZWA0MJZFPKBAUMW", "current_trial": 247, "dateTime": 1512586366079, "trialdata": {"rt": -1, "stimulus": "<p id=\"stim\">5</p>", "key_press": -1, "trial_type": "single-stim", "trial_index": 247, "time_elapsed": 1407504, "internal_node_id": "0.0-179.0-5.0"}}, {"uniqueid": "MTK0664:3BXQMRHWK05HZ44ZWA0MJZFPKBAUMW", "current_trial": 248, "dateTime": 1512586367084, "trialdata": {"rt": -1, "stimulus": "<p id=\"stim\">4</p>", "key_press": -1, "trial_type": "single-stim", "trial_index": 248, "time_elapsed": 1408509, "internal_node_id": "0.0-179.0-6.0"}}, {"uniqueid": "MTK0664:3BXQMRHWK05HZ44ZWA0MJZFPKBAUMW", "current_trial": 249, "dateTime": 1512586368086, "trialdata": {"rt": -1, "stimulus": "<p id=\"stim\">3</p>", "key_press": -1, "trial_type": "single-stim", "trial_index": 249, "time_elapsed": 1409512, "internal_node_id": "0.0-179.0-7.0"}}, {"uniqueid": "MTK0664:3BXQMRHWK05HZ44ZWA0MJZFPKBAUMW", "current_trial": 250, "dateTime": 1512586369091, "trialdata": {"rt": -1, "stimulus": "<p id=\"stim\">2</p>", "key_press": -1, "trial_type": "single-stim", "trial_index": 250, "time_elapsed": 1410517, "internal_node_id": "0.0-179.0-8.0"}}, {"uniqueid": "MTK0664:3BXQMRHWK05HZ44ZWA0MJZFPKBAUMW", "current_trial": 251, "dateTime": 1512586370095, "trialdata": {"rt": -1, "stimulus": "<p id=\"stim\">1</p>", "key_press": -1, "trial_type": "single-stim", "trial_index": 251, "time_elapsed": 1411521, "internal_node_id": "0.0-179.0-9.0"}}, {"uniqueid": "MTK0664:3BXQMRHWK05HZ44ZWA0MJZFPKBAUMW", "current_trial": 252, "dateTime": 1512586371599, "trialdata": {"rt": -1, "stimulus": "<p id=\"stim\">+</p>", "key_press": -1, "type": "FIXATION", "trial_type": "single-stim", "trial_index": 252, "time_elapsed": 1413024, "internal_node_id": "0.0-180.0-0.0"}}, {"uniqueid": "MTK0664:3BXQMRHWK05HZ44ZWA0MJZFPKBAUMW", "current_trial": 253, "dateTime": 1512586373200, "trialdata": {"rt": -1, "stimulus": "<p id=\"stim\">TUBA</p>", "key_press": -1, "type": "PRES_VIS", "word": "tuba", "wordID": 1514, "conditions": [24, 1600, "v", 12000], "trial": 7, "serialpos": 0, "trial_type": "single-stim", "trial_index": 253, "time_elapsed": 1414626, "internal_node_id": "0.0-181.0"}}, {"uniqueid": "MTK0664:3BXQMRHWK05HZ44ZWA0MJZFPKBAUMW", "current_trial": 254, "dateTime": 1512586375667, "trialdata": {"rt": -1, "stimulus": "<p id=\"stim\">PLASTER</p>", "key_press": -1, "type": "PRES_VIS", "word": "plaster", "wordID": 1084, "conditions": [24, 1600, "v", 12000], "trial": 7, "serialpos": 1, "trial_type": "single-stim", "trial_index": 254, "time_elapsed": 1417093, "internal_node_id": "0.0-182.0"}}, {"uniqueid": "MTK0664:3BXQMRHWK05HZ44ZWA0MJZFPKBAUMW", "current_trial": 255, "dateTime": 1512586378105, "trialdata": {"rt": -1, "stimulus": "<p id=\"stim\">TERMITE</p>", "key_press": -1, "type": "PRES_VIS", "word": "termite", "wordID": 1450, "conditions": [24, 1600, "v", 12000], "trial": 7, "serialpos": 2, "trial_type": "single-stim", "trial_index": 255, "time_elapsed": 1419531, "internal_node_id": "0.0-183.0"}}, {"uniqueid": "MTK0664:3BXQMRHWK05HZ44ZWA0MJZFPKBAUMW", "current_trial": 256, "dateTime": 1512586380530, "trialdata": {"rt": -1, "stimulus": "<p id=\"stim\">CONVICT</p>", "key_press": -1, "type": "PRES_VIS", "word": "convict", "wordID": 370, "conditions": [24, 1600, "v", 12000], "trial": 7, "serialpos": 3, "trial_type": "single-stim", "trial_index": 256, "time_elapsed": 1421956, "internal_node_id": "0.0-184.0"}}, {"uniqueid": "MTK0664:3BXQMRHWK05HZ44ZWA0MJZFPKBAUMW", "current_trial": 257, "dateTime": 1512586382974, "trialdata": {"rt": -1, "stimulus": "<p id=\"stim\">ROBBER</p>", "key_press": -1, "type": "PRES_VIS", "word": "robber", "wordID": 1196, "conditions": [24, 1600, "v", 12000], "trial": 7, "serialpos": 4, "trial_type": "single-stim", "trial_index": 257, "time_elapsed": 1424400, "internal_node_id": "0.0-185.0"}}, {"uniqueid": "MTK0664:3BXQMRHWK05HZ44ZWA0MJZFPKBAUMW", "current_trial": 258, "dateTime": 1512586385725, "trialdata": {"rt": -1, "stimulus": "<p id=\"stim\">HARP</p>", "key_press": -1, "type": "PRES_VIS", "word": "harp", "wordID": 688, "conditions": [24, 1600, "v", 12000], "trial": 7, "serialpos": 5, "trial_type": "single-stim", "trial_index": 258, "time_elapsed": 1427151, "internal_node_id": "0.0-186.0"}}, {"uniqueid": "MTK0664:3BXQMRHWK05HZ44ZWA0MJZFPKBAUMW", "current_trial": 259, "dateTime": 1512586388258, "trialdata": {"rt": -1, "stimulus": "<p id=\"stim\">CHURCH</p>", "key_press": -1, "type": "PRES_VIS", "word": "church", "wordID": 306, "conditions": [24, 1600, "v", 12000], "trial": 7, "serialpos": 6, "trial_type": "single-stim", "trial_index": 259, "time_elapsed": 1429683, "internal_node_id": "0.0-187.0"}}, {"uniqueid": "MTK0664:3BXQMRHWK05HZ44ZWA0MJZFPKBAUMW", "current_trial": 260, "dateTime": 1512586390749, "trialdata": {"rt": -1, "stimulus": "<p id=\"stim\">CHAPEL</p>", "key_press": -1, "type": "PRES_VIS", "word": "chapel", "wordID": 279, "conditions": [24, 1600, "v", 12000], "trial": 7, "serialpos": 7, "trial_type": "single-stim", "trial_index": 260, "time_elapsed": 1432175, "internal_node_id": "0.0-188.0"}}, {"uniqueid": "MTK0664:3BXQMRHWK05HZ44ZWA0MJZFPKBAUMW", "current_trial": 261, "dateTime": 1512586393384, "trialdata": {"rt": -1, "stimulus": "<p id=\"stim\">ELBOW</p>", "key_press": -1, "type": "PRES_VIS", "word": "elbow", "wordID": 519, "conditions": [24, 1600, "v", 12000], "trial": 7, "serialpos": 8, "trial_type": "single-stim", "trial_index": 261, "time_elapsed": 1434810, "internal_node_id": "0.0-189.0"}}, {"uniqueid": 