{"condition": 0, "counterbalance": 1012, "assignmentId": "3K5TEWLKGWIVG038GLCZNSARIHWVIK", "workerId": "MTK0922", "hitId": "360ZO6N6J1QHSSI28X0TYJWRSQV9MP", "currenttrial": 403, "bonus": 0, "data": [{"uniqueid": "MTK0922:3K5TEWLKGWIVG038GLCZNSARIHWVIK", "current_trial": 0, "dateTime": 1512882411053, "trialdata": {"rt": 3313, "key_press": 40, "type": "INSTRUCTIONS", "trial_type": "text", "trial_index": 0, "time_elapsed": 3328, "internal_node_id": "0.0-0.0"}}, {"uniqueid": "MTK0922:3K5TEWLKGWIVG038GLCZNSARIHWVIK", "current_trial": 1, "dateTime": 1512882411373, "trialdata": {"rt": 312, "key_press": 40, "type": "INSTRUCTIONS", "trial_type": "text", "trial_index": 1, "time_elapsed": 3652, "internal_node_id": "0.0-1.0"}}, {"uniqueid": "MTK0922:3K5TEWLKGWIVG038GLCZNSARIHWVIK", "current_trial": 2, "dateTime": 1512882433765, "trialdata": {"rt": [22333], "responses": ["ocean"], "type": "AUDIO_TEST", "trial_type": "audio-test", "trial_index": 2, "time_elapsed": 26043, "internal_node_id": "0.0-2.0"}}, {"uniqueid": "MTK0922:3K5TEWLKGWIVG038GLCZNSARIHWVIK", "current_trial": 3, "dateTime": 1512882445843, "trialdata": {"rt": [12050], "responses": ["crystal"], "type": "AUDIO_TEST", "trial_type": "audio-test", "trial_index": 3, "time_elapsed": 38121, "internal_node_id": "0.0-3.0"}}, {"uniqueid": "MTK0922:3K5TEWLKGWIVG038GLCZNSARIHWVIK", "current_trial": 4, "dateTime": 1512882455196, "trialdata": {"rt": [9329], "responses": ["spice"], "type": "AUDIO_TEST", "trial_type": "audio-test", "trial_index": 4, "time_elapsed": 47475, "internal_node_id": "0.0-4.0"}}, {"uniqueid": "MTK0922:3K5TEWLKGWIVG038GLCZNSARIHWVIK", "current_trial": 5, "dateTime": 1512882521220, "trialdata": {"rt": 65259, "responses": "{\"Q0\":\"My pm was about 11\",\"Q1\":\"9 am\",\"Q2\":\"4\"}", "type": "SLEEP_SURVEY", "trial_type": "survey-text", "trial_index": 5, "time_elapsed": 113499, "internal_node_id": "0.0-5.0"}}, {"uniqueid": "MTK0922:3K5TEWLKGWIVG038GLCZNSARIHWVIK", "current_trial": 6, "dateTime": 1512882539350, "trialdata": {"rt": 17125, "key_press": 40, "type": "INSTRUCTIONS", "trial_type": "text", "trial_index": 6, "time_elapsed": 131629, "internal_node_id": "0.0-6.0"}}, {"uniqueid": "MTK0922:3K5TEWLKGWIVG038GLCZNSARIHWVIK", "current_trial": 7, "dateTime": 1512882543047, "trialdata": {"rt": 3189, "key_press": 38, "type": "INSTRUCTIONS", "trial_type": "text", "trial_index": 7, "time_elapsed": 135322, "internal_node_id": "0.0-7.0"}}, {"uniqueid": "MTK0922:3K5TEWLKGWIVG038GLCZNSARIHWVIK", "current_trial": 8, "dateTime": 1512882572477, "trialdata": {"rt": 28922, "key_press": 39, "type": "INSTRUCTIONS", "trial_type": "text", "trial_index": 8, "time_elapsed": 164756, "internal_node_id": "0.0-8.0"}}, {"uniqueid": "MTK0922:3K5TEWLKGWIVG038GLCZNSARIHWVIK", "current_trial": 9, "dateTime": 1512882591499, "trialdata": {"rt": [8786, 17020], "responses": ["17", "15"], "num1": [5, 3, 6], "num2": [5, 3, 9], "num3": [7, 9, 6], "type": "DISTRACTOR", "conditions": [18, 1200, "a", 18000], "trial": 0, "trial_type": "math-distractor", "trial_index": 9, "time_elapsed": 183778, "internal_node_id": "0.0-9.0"}}, {"uniqueid": "MTK0922:3K5TEWLKGWIVG038GLCZNSARIHWVIK", "current_trial": 10, "dateTime": 1512882594507, "trialdata": {"rt": -1, "stimulus": "<p id=\"stim\">10</p>", "key_press": -1, "trial_type": "single-stim", "trial_index": 10, "time_elapsed": 186782, "internal_node_id": "0.0-10.0-0.0"}}, {"uniqueid": "MTK0922:3K5TEWLKGWIVG038GLCZNSARIHWVIK", "current_trial": 11, "dateTime": 1512882595509, "trialdata": {"rt": -1, "stimulus": "<p id=\"stim\">9</p>", "key_press": -1, "trial_type": "single-stim", "trial_index": 11, "time_elapsed": 187788, "internal_node_id": "0.0-10.0-1.0"}}, {"uniqueid": "MTK0922:3K5TEWLKGWIVG038GLCZNSARIHWVIK", "current_trial": 12, "dateTime": 1512882596514, "trialdata": {"rt": -1, "stimulus": "<p id=\"stim\">8</p>", "key_press": -1, "trial_type": "single-stim", "trial_index": 12, "time_elapsed": 188793, "internal_node_id": "0.0-10.0-2.0"}}, {"uniqueid": "MTK0922:3K5TEWLKGWIVG038GLCZNSARIHWVIK", "current_trial": 13, "dateTime": 1512882597518, "trialdata": {"rt": -1, "stimulus": "<p id=\"stim\">7</p>", "key_press": -1, "trial_type": "single-stim", "trial_index": 13, "time_elapsed": 189797, "internal_node_id": "0.0-10.0-3.0"}}, {"uniqueid": "MTK0922:3K5TEWLKGWIVG038GLCZNSARIHWVIK", "current_trial": 14, "dateTime": 1512882598520, "trialdata": {"rt": -1, "stimulus": "<p id=\"stim\">6</p>", "key_press": -1, "trial_type": "single-stim", "trial_index": 14, "time_elapsed": 190799, "internal_node_id": "0.0-10.0-4.0"}}, {"uniqueid": "MTK0922:3K5TEWLKGWIVG038GLCZNSARIHWVIK", "current_trial": 15, "dateTime": 1512882599529, "trialdata": {"rt": -1, "stimulus": "<p id=\"stim\">5</p>", "key_press": -1, "trial_type": "single-stim", "trial_index": 15, "time_elapsed": 191808, "internal_node_id": "0.0-10.0-5.0"}}, {"uniqueid": "MTK0922:3K5TEWLKGWIVG038GLCZNSARIHWVIK", "current_trial": 16, "dateTime": 1512882600531, "trialdata": {"rt": -1, "stimulus": "<p id=\"stim\">4</p>", "key_press": -1, "trial_type": "single-stim", "trial_index": 16, "time_elapsed": 192810, "internal_node_id": "0.0-10.0-6.0"}}, {"uniqueid": "MTK0922:3K5TEWLKGWIVG038GLCZNSARIHWVIK", "current_trial": 17, "dateTime": 1512882601545, "trialdata": {"rt": -1, "stimulus": "<p id=\"stim\">3</p>", "key_press": -1, "trial_type": "single-stim", "trial_index": 17, "time_elapsed": 193823, "internal_node_id": "0.0-10.0-7.0"}}, {"uniqueid": "MTK0922:3K5TEWLKGWIVG038GLCZNSARIHWVIK", "current_trial": 18, "dateTime": 1512882602551, "trialdata": {"rt": -1, "stimulus": "<p id=\"stim\">2</p>", "key_press": -1, "trial_type": "single-stim", "trial_index": 18, "time_elapsed": 194830, "internal_node_id": "0.0-10.0-8.0"}}, {"uniqueid": "MTK0922:3K5TEWLKGWIVG038GLCZNSARIHWVIK", "current_trial": 19, "dateTime": 1512882603558, "trialdata": {"rt": -1, "stimulus": "<p id=\"stim\">1</p>", "key_press": -1, "trial_type": "single-stim", "trial_index": 19, "time_elapsed": 195837, "internal_node_id": "0.0-10.0-9.0"}}, {"uniqueid": "MTK0922:3K5TEWLKGWIVG038GLCZNSARIHWVIK", "current_trial": 20, "dateTime": 1512882605064, "trialdata": {"rt": -1, "stimulus": "<p id=\"stim\">+</p>", "key_press": -1, "type": "FIXATION", "trial_type": "single-stim", "trial_index": 20, "time_elapsed": 197343, "internal_node_id": "0.0-11.0-0.0"}}, {"uniqueid": "MTK0922:3K5TEWLKGWIVG038GLCZNSARIHWVIK", "current_trial": 21, "dateTime": 1512882607203, "trialdata": {"rt": -1000, "stimulus": "/static/audio/wordpool/HEDGE.wav", "key_press": -1, "type": "PRES_AUD", "word": "hedge", "wordID": 698, "conditions": [18, 1200, "a", 18000], "trial": 0, "serialpos": 0, "trial_type": "single-audio", "trial_index": 21, "time_elapsed": 199481, "internal_node_id": "0.0-12.0"}}, {"uniqueid": "MTK0922:3K5TEWLKGWIVG038GLCZNSARIHWVIK", "current_trial": 22, "dateTime": 1512882609264, "trialdata": {"rt": -1000, "stimulus": "/static/audio/wordpool/ULCER.wav", "key_press": -1, "type": "PRES_AUD", "word": "ulcer", "wordID": 1532, "conditions": [18, 1200, "a", 18000], "trial": 0, "serialpos": 1, "trial_type": "single-audio", "trial_index": 22, "time_elapsed": 201543, "internal_node_id": "0.0-13.0"}}, {"uniqueid": "MTK0922:3K5TEWLKGWIVG038GLCZNSARIHWVIK", "current_trial": 23, "dateTime": 1512882611557, "trialdata": {"rt": -1000, "stimulus": "/static/audio/wordpool/FIREMAN.wav", "key_press": -1, "type": "PRES_AUD", "word": "fireman", "wordID": 568, "conditions": [18, 1200, "a", 18000], "trial": 0, "serialpos": 2, "trial_type": "single-audio", "trial_index": 23, "time_elapsed": 203835, "internal_node_id": "0.0-14.0"}}, {"uniqueid": "MTK0922:3K5TEWLKGWIVG038GLCZNSARIHWVIK", "current_trial": 24, "dateTime": 1512882613738, "trialdata": {"rt": -1000, "stimulus": "/static/audio/wordpool/MUFFIN.wav", "key_press": -1, "type": "PRES_AUD", "word": "muffin", "wordID": 928, "conditions": [18, 1200, "a", 18000], "trial": 0, "serialpos": 3, "trial_type": "single-audio", "trial_index": 24, "time_elapsed": 206016, "internal_node_id": "0.0-15.0"}}, {"uniqueid": "MTK0922:3K5TEWLKGWIVG038GLCZNSARIHWVIK", "current_trial": 25, "dateTime": 1512882615859, "trialdata": {"rt": -1000, "stimulus": "/static/audio/wordpool/FEMALE.wav", "key_press": -1, "type": "PRES_AUD", "word": "female", "wordID": 558, "conditions": [18, 1200, "a", 18000], "trial": 0, "serialpos": 4, "trial_type": "single-audio", "trial_index": 25, "time_elapsed": 208137, "internal_node_id": "0.0-16.0"}}, {"uniqueid": "MTK0922:3K5TEWLKGWIVG038GLCZNSARIHWVIK", "current_trial": 26, "dateTime": 1512882618195, "trialdata": {"rt": -1000, "stimulus": "/static/audio/wordpool/WHISKERS.wav", "key_press": -1, "type": "PRES_AUD", "word": "whiskers", "wordID": 1604, "conditions": [18, 1200, "a", 18000], "trial": 0, "serialpos": 5, "trial_type": "single-audio", "trial_index": 26, "time_elapsed": 210474, "internal_node_id": "0.0-17.0"}}, {"uniqueid": "MTK0922:3K5TEWLKGWIVG038GLCZNSARIHWVIK", "current_trial": 27, "dateTime": 1512882620345, "trialdata": {"rt": -1000, "stimulus": "/static/audio/wordpool/SURVEY.wav", "key_press": -1, "type": "PRES_AUD", "word": "survey", "wordID": 1413, "conditions": [18, 1200, "a", 18000], "trial": 0, "serialpos": 6, "trial_type": "single-audio", "trial_index": 27, "time_elapsed": 212623, "internal_node_id": "0.0-18.0"}}, {"uniqueid": "MTK0922:3K5TEWLKGWIVG038GLCZNSARIHWVIK", "current_trial": 28, "dateTime": 1512882622597, "trialdata": {"rt": -1000, "stimulus": "/static/audio/wordpool/CABIN.wav", "key_press": -1, "type": "PRES_AUD", "word": "cabin", "wordID": 210, "conditions": [18, 1200, "a", 18000], "trial": 0, "serialpos": 7, "trial_type": "single-audio", "trial_index": 28, "time_elapsed": 214876, "internal_node_id": "0.0-19.0"}}, {"uniqueid": "MTK0922:3K5TEWLKGWIVG038GLCZNSARIHWVIK", "current_trial": 29, "dateTime": 1512882624933, "trialdata": {"rt": -1000, "stimulus": "/static/audio/wordpool/SHRUB.wav", "key_press": -1, "type": "PRES_AUD", "word": "shrub", "wordID": 1298, "conditions": [18, 1200, "a", 18000], "trial": 0, "serialpos": 8, "trial_type": "single-audio", "trial_index": 29, "time_elapsed": 217212, "internal_node_id": "0.0-20.0"}}, {"uniqueid": "MTK0922:3K5TEWLKGWIVG038GLCZNSARIHWVIK", "current_trial": 30, "dateTime": 1512882627314, "trialdata": {"rt": -1000, "stimulus": "/static/audio/wordpool/GIFT.wav", "key_press": -1, "type": "PRES_AUD", "word": "gift", "wordID": 634, "conditions": [18, 1200, "a", 18000], "trial": 0, "serialpos": 9, "trial_type": "single-audio", "trial_index": 30, "time_elapsed": 219592, "internal_node_id": "0.0-21.0"}}, {"uniqueid": "MTK0922:3K5TEWLKGWIVG038GLCZNSARIHWVIK", "current_trial": 31, "dateTime": 1512882629616, "trialdata": {"rt": -1000, "stimulus": "/static/audio/wordpool/JUNGLE.wav", "key_press": -1, "type": "PRES_AUD", "word": "jungle", "wordID": 763, "conditions": [18, 1200, "a", 18000], "trial": 0, "serialpos": 10, "trial_type": "single-audio", "trial_index": 31, "time_elapsed": 221894, "internal_node_id": "0.0-22.0"}}, {"uniqueid": "MTK0922:3K5TEWLKGWIVG038GLCZNSARIHWVIK", "current_trial": 32, "dateTime": 1512882631824, "trialdata": {"rt": -1000, "stimulus": "/static/audio/wordpool/NIGHTGOWN.wav", "key_press": -1, "type": "PRES_AUD", "word": "nightgown", "wordID": 952, "conditions": [18, 1200, "a", 18000], "trial": 0, "serialpos": 11, "trial_type": "single-audio", "trial_index": 32, "time_elapsed": 224103, "internal_node_id": "0.0-23.0"}}, {"uniqueid": "MTK0922:3K5TEWLKGWIVG038GLCZNSARIHWVIK", "current_trial": 33, "dateTime": 1512882634132, "trialdata": {"rt": -1000, "stimulus": "/static/audio/wordpool/BREAST.wav", "key_press": -1, "type": "PRES_AUD", "word": "breast", "wordID": 170, "conditions": [18, 1200, "a", 18000], "trial": 0, "serialpos": 12, "trial_type": "single-audio", "trial_index": 33, "time_elapsed": 226410, "internal_node_id": "0.0-24.0"}}, {"uniqueid": "MTK0922:3K5TEWLKGWIVG038GLCZNSARIHWVIK", "current_trial": 34, "dateTime": 1512882636296, "trialdata": {"rt": -1000, "stimulus": "/static/audio/wordpool/XEROX.wav", "key_press": -1, "type": "PRES_AUD", "word": "xerox", "wordID": 1627, "conditions": [18, 1200, "a", 18000], "trial": 0, "serialpos": 13, "trial_type": "single-audio", "trial_index": 34, "time_elapsed": 228574, "internal_node_id": "0.0-25.0"}}, {"uniqueid": "MTK0922:3K5TEWLKGWIVG038GLCZNSARIHWVIK", "current_trial": 35, "dateTime": 1512882638448, "trialdata": {"rt": -1000, "stimulus": "/static/audio/wordpool/STONE.wav", "key_press": -1, "type": "PRES_AUD", "word": "stone", "wordID": 1384, "conditions": [18, 1200, "a", 18000], "trial": 0, "serialpos": 14, "trial_type": "single-audio", "trial_index": 35, "time_elapsed": 230727, "internal_node_id": "0.0-26.0"}}, {"uniqueid": "MTK0922:3K5TEWLKGWIVG038GLCZNSARIHWVIK", "current_trial": 36, "dateTime": 1512882640628, "trialdata": {"rt": -1000, "stimulus": "/static/audio/wordpool/LOVER.wav", "key_press": -1, "type": "PRES_AUD", "word": "lover", "wordID": 845, "conditions": [18, 1200, "a", 18000], "trial": 0, "serialpos": 15, "trial_type": "single-audio", "trial_index": 36, "time_elapsed": 232906, "internal_node_id": "0.0-27.0"}}, {"uniqueid": "MTK0922:3K5TEWLKGWIVG038GLCZNSARIHWVIK", "current_trial": 37, "dateTime": 1512882642720, "trialdata": {"rt": -1000, "stimulus": "/static/audio/wordpool/HELMET.wav", "key_press": -1, "type": "PRES_AUD", "word": "helmet", "wordID": 701, "conditions": [18, 1200, "a", 18000], "trial": 0, "serialpos": 16, "trial_type": "single-audio", "trial_index": 37, "time_elapsed": 234999, "internal_node_id": "0.0-28.0"}}, {"uniqueid": "MTK0922:3K5TEWLKGWIVG038GLCZNSARIHWVIK", "current_trial": 38, "dateTime": 1512882644835, "trialdata": {"rt": -1000, "stimulus": "/static/audio/wordpool/LEOPARD.wav", "key_press": -1, "type": "PRES_AUD", "word": "leopard", "wordID": 811, "conditions": [18, 1200, "a", 18000], "trial": 0, "serialpos": 17, "trial_type": "single-audio", "trial_index": 38, "time_elapsed": 237114, "internal_node_id": "0.0-29.0"}}, {"uniqueid": "MTK0922:3K5TEWLKGWIVG038GLCZNSARIHWVIK", "current_trial": 39, "dateTime": 1512882646055, "trialdata": {"rt": -1, "stimulus": "", "key_press": -1, "type": "PRE_RECALL_DELAY", "trial_type": "single-stim", "trial_index": 39, "time_elapsed": 238334, "internal_node_id": "0.0-30.0-0.0"}}, {"uniqueid": "MTK0922:3K5TEWLKGWIVG038GLCZNSARIHWVIK", "current_trial": 40, "dateTime": 1512882646561, "trialdata": {"rt": -1000, "stimulus": "/static/audio/400Hz.wav", "key_press": -1, "type": "PRE_RECALL_ALERT", "trial_type": "single-audio", "trial_index": 40, "time_elapsed": 238839, "internal_node_id": "0.0-31.0"}}, {"uniqueid": "MTK0922:3K5TEWLKGWIVG038GLCZNSARIHWVIK", "current_trial": 41, "dateTime": 1512882706591, "trialdata": {"rt": [16867, 22751], "recwords": ["whisker", "helmit"], "type": "FREE_RECALL", "conditions": [18, 1200, "a", 18000], "trial": 0, "trial_type": "free-recall", "trial_index": 41, "time_elapsed": 298854, "internal_node_id": "0.0-32.0-0.0"}}, {"uniqueid": "MTK0922:3K5TEWLKGWIVG038GLCZNSARIHWVIK", "current_trial": 42, "dateTime": 1512882710797, "trialdata": {"rt": 2200, "key_press": 32, "type": "INSTRUCTIONS", "trial_type": "text", "trial_index": 42, "time_elapsed": 303076, "internal_node_id": "0.0-33.0"}}, {"uniqueid": "MTK0922:3K5TEWLKGWIVG038GLCZNSARIHWVIK", "current_trial": 43, "dateTime": 1512882730806, "trialdata": {"rt": [14067], "responses": ["18"], "num1": [8, 8], "num2": [8, 4], "num3": [2, 6], "type": "DISTRACTOR", "conditions": [18, 1200, "v", 18000], "trial": 1, "trial_type": "math-distractor", "trial_index": 43, "time_elapsed": 323081, "internal_node_id": "0.0-34.0"}}, {"uniqueid": "MTK0922:3K5TEWLKGWIVG038GLCZNSARIHWVIK", "current_trial": 44, "dateTime": 1512882733809, "trialdata": {"rt": -1, "stimulus": "<p id=\"stim\">10</p>", "key_press": -1, "trial_type": "single-stim", "trial_index": 44, "time_elapsed": 326088, "internal_node_id": "0.0-35.0-0.0"}}, {"uniqueid": "MTK0922:3K5TEWLKGWIVG038GLCZNSARIHWVIK", "current_trial": 45, "dateTime": 1512882734815, "trialdata": {"rt": -1, "stimulus": "<p id=\"stim\">9</p>", "key_press": -1, "trial_type": "single-stim", "trial_index": 45, "time_elapsed": 327094, "internal_node_id": "0.0-35.0-1.0"}}, {"uniqueid": "MTK0922:3K5TEWLKGWIVG038GLCZNSARIHWVIK", "current_trial": 46, "dateTime": 1512882735816, "trialdata": {"rt": -1, "stimulus": "<p id=\"stim\">8</p>", "key_press": -1, "trial_type": "single-stim", "trial_index": 46, "time_elapsed": 328095, "internal_node_id": "0.0-35.0-2.0"}}, {"uniqueid": "MTK0922:3K5TEWLKGWIVG038GLCZNSARIHWVIK", "current_trial": 47, "dateTime": 1512882736819, "trialdata": {"rt": -1, "stimulus": "<p id=\"stim\">7</p>", "key_press": -1, "trial_type": "single-stim", "trial_index": 47, "time_elapsed": 329098, "internal_node_id": "0.0-35.0-3.0"}}, {"uniqueid": "MTK0922:3K5TEWLKGWIVG038GLCZNSARIHWVIK", "current_trial": 48, "dateTime": 1512882737834, "trialdata": {"rt": -1, "stimulus": "<p id=\"stim\">6</p>", "key_press": -1, "trial_type": "single-stim", "trial_index": 48, "time_elapsed": 330113, "internal_node_id": "0.0-35.0-4.0"}}, {"uniqueid": "MTK0922:3K5TEWLKGWIVG038GLCZNSARIHWVIK", "current_trial": 49, "dateTime": 1512882738834, "trialdata": {"rt": -1, "stimulus": "<p id=\"stim\">5</p>", "key_press": -1, "trial_type": "single-stim", "trial_index": 49, "time_elapsed": 331113, "internal_node_id": "0.0-35.0-5.0"}}, {"uniqueid": "MTK0922:3K5TEWLKGWIVG038GLCZNSARIHWVIK", "current_trial": 50, "dateTime": 1512882739840, "trialdata": {"rt": -1, "stimulus": "<p id=\"stim\">4</p>", "key_press": -1, "trial_type": "single-stim", "trial_index": 50, "time_elapsed": 332119, "internal_node_id": "0.0-35.0-6.0"}}, {"uniqueid": "MTK0922:3K5TEWLKGWIVG038GLCZNSARIHWVIK", "current_trial": 51, "dateTime": 1512882740845, "trialdata": {"rt": -1, "stimulus": "<p id=\"stim\">3</p>", "key_press": -1, "trial_type": "single-stim", "trial_index": 51, "time_elapsed": 333124, "internal_node_id": "0.0-35.0-7.0"}}, {"uniqueid": "MTK0922:3K5TEWLKGWIVG038GLCZNSARIHWVIK", "current_trial": 52, "dateTime": 1512882741851, "trialdata": {"rt": -1, "stimulus": "<p id=\"stim\">2</p>", "key_press": -1, "trial_type": "single-stim", "trial_index": 52, "time_elapsed": 334130, "internal_node_id": "0.0-35.0-8.0"}}, {"uniqueid": "MTK0922:3K5TEWLKGWIVG038GLCZNSARIHWVIK", "current_trial": 53, "dateTime": 1512882742851, "trialdata": {"rt": -1, "stimulus": "<p id=\"stim\">1</p>", "key_press": -1, "trial_type": "single-stim", "trial_index": 53, "time_elapsed": 335130, "internal_node_id": "0.0-35.0-9.0"}}, {"uniqueid": "MTK0922:3K5TEWLKGWIVG038GLCZNSARIHWVIK", "current_trial": 54, "dateTime": 1512882744360, "trialdata": {"rt": -1, "stimulus": "<p id=\"stim\">+</p>", "key_press": -1, "type": "FIXATION", "trial_type": "single-stim", "trial_index": 54, "time_elapsed": 336639, "internal_node_id": "0.0-36.0-0.0"}}, {"uniqueid": "MTK0922:3K5TEWLKGWIVG038GLCZNSARIHWVIK", "current_trial": 55, "dateTime": 1512882745568, "trialdata": {"rt": -1, "stimulus": "<p id=\"stim\">YACHT</p>", "key_press": -1, "type": "PRES_VIS", "word": "yacht", "wordID": 1628, "conditions": [18, 1200, "v", 18000], "trial": 1, "serialpos": 0, "trial_type": "single-stim", "trial_index": 55, "time_elapsed": 337843, "internal_node_id": "0.0-37.0"}}, {"uniqueid": "MTK0922:3K5TEWLKGWIVG038GLCZNSARIHWVIK", "current_trial": 56, "dateTime": 1512882747665, "trialdata": {"rt": -1, "stimulus": "<p id=\"stim\">MISTER</p>", "key_press": -1, "type": "PRES_VIS", "word": "mister", "wordID": 900, "conditions": [18, 1200, "v", 18000], "trial": 1, "serialpos": 1, "trial_type": "single-stim", "trial_index": 56, "time_elapsed": 339944, "internal_node_id": "0.0-38.0"}}, {"uniqueid": "MTK0922:3K5TEWLKGWIVG038GLCZNSARIHWVIK", "current_trial": 57, "dateTime": 1512882749783, "trialdata": {"rt": -1, "stimulus": "<p id=\"stim\">THIEF</p>", "key_press": -1, "type": "PRES_VIS", "word": "thief", "wordID": 1455, "conditions": [18, 1200, "v", 18000], "trial": 1, "serialpos": 2, "trial_type": "single-stim", "trial_index": 57, "time_elapsed": 342062, "internal_node_id": "0.0-39.0"}}, {"uniqueid": "MTK0922:3K5TEWLKGWIVG038GLCZNSARIHWVIK", "current_trial": 58, "dateTime": 1512882751998, "trialdata": {"rt": -1, "stimulus": "<p id=\"stim\">JAPAN</p>", "key_press": -1, "type": "PRES_VIS", "word": "japan", "wordID": 748, "conditions": [18, 1200, "v", 18000], "trial": 1, "serialpos": 3, "trial_type": "single-stim", "trial_index": 58, "time_elapsed": 344277, "internal_node_id": "0.0-40.0"}}, {"uniqueid": "MTK0922:3K5TEWLKGWIVG038GLCZNSARIHWVIK", "current_trial": 59, "dateTime": 1512882754385, "trialdata": {"rt": -1, "stimulus": "<p id=\"stim\">VIRUS</p>", "key_press": -1, "type": "PRES_VIS", "word": "virus", "wordID": 1571, "conditions": [18, 1200, "v", 18000], "trial": 1, "serialpos": 4, "trial_type": "single-stim", "trial_index": 59, "time_elapsed": 346664, "internal_node_id": "0.0-41.0"}}, {"uniqueid": "MTK0922:3K5TEWLKGWIVG038GLCZNSARIHWVIK", "current_trial": 60, "dateTime": 1512882756733, "trialdata": {"rt": -1, "stimulus": "<p id=\"stim\">SCARF</p>", "key_press": -1, "type": "PRES_VIS", "word": "scarf", "wordID": 1245, "conditions": [18, 1200, "v", 18000], "trial": 1, "serialpos": 5, "trial_type": "single-stim", "trial_index": 60, "time_elapsed": 349012, "internal_node_id": "0.0-42.0"}}, {"uniqueid": "MTK0922:3K5TEWLKGWIVG038GLCZNSARIHWVIK", "current_trial": 61, "dateTime": 1512882759104, "trialdata": {"rt": -1, "stimulus": "<p id=\"stim\">PISTOL</p>", "key_press": -1, "type": "PRES_VIS", "word": "pistol", "wordID": 1074, "conditions": [18, 1200, "v", 18000], "trial": 1, "serialpos": 6, "trial_type": "single-stim", "trial_index": 61, "time_elapsed": 351383, "internal_node_id": "0.0-43.0"}}, {"uniqueid": "MTK0922:3K5TEWLKGWIVG038GLCZNSARIHWVIK", "current_trial": 62, "dateTime": 1512882761377, "trialdata": {"rt": -1, "stimulus": "<p id=\"stim\">BODY</p>", "key_press": -1, "type": "PRES_VIS", "word": "body", "wordID": 144, "conditions": [18, 1200, "v", 18000], "trial": 1, "serialpos": 7, "trial_type": "single-stim", "trial_index": 62, "time_elapsed": 353656, "internal_node_id": "0.0-44.0"}}, {"uniqueid": "MTK0922:3K5TEWLKGWIVG038GLCZNSARIHWVIK", "current_trial": 63, "dateTime": 1512882763469, "trialdata": {"rt": -1, "stimulus": "<p id=\"stim\">ROBBER</p>", "key_press": -1, "type": "PRES_VIS", "word": "robber", "wordID": 1196, "conditions": [18, 1200, "v", 18000], "trial": 1, "serialpos": 8, "trial_type": "single-stim", "trial_index": 63, "time_elapsed": 355748, "internal_node_id": "0.0-45.0"}}, {"uniqueid": "MTK0922:3K5TEWLKGWIVG038GLCZNSARIHWVIK", "current_trial": 64, "dateTime": 1512882765833, "trialdata": {"rt": -1, "stimulus": "<p id=\"stim\">BUBBLE</p>", "key_press": -1, "type": "PRES_VIS", "word": "bubble", "wordID": 182, "conditions": [18, 1200, "v", 18000], "trial": 1, "serialpos": 9, "trial_type": "single-stim", "trial_index": 64, "time_elapsed": 358112, "internal_node_id": "0.0-46.0"}}, {"uniqueid": "MTK0922:3K5TEWLKGWIVG038GLCZNSARIHWVIK", "current_trial": 65, "dateTime": 1512882768226, "trialdata": {"rt": -1, "stimulus": "<p id=\"stim\">VENUS</p>", "key_press": -1, "type": "PRES_VIS", "word": "venus", "wordID": 1556, "conditions": [18, 1200, "v", 18000], "trial": 1, "serialpos": 10, "trial_type": "single-stim", "trial_index": 65, "time_elapsed": 360505, "internal_node_id": "0.0-47.0"}}, {"uniqueid": "MTK0922:3K5TEWLKGWIVG038GLCZNSARIHWVIK", "current_trial": 66, "dateTime": 1512882770346, "trialdata": {"rt": -1, "stimulus": "<p id=\"stim\">LADY</p>", "key_press": -1, "type": "PRES_VIS", "word": "lady", "wordID": 793, "conditions": [18, 1200, "v", 18000], "trial": 1, "serialpos": 11, "trial_type": "single-stim", "trial_index": 66, "time_elapsed": 362625, "internal_node_id": "0.0-48.0"}}, {"uniqueid": "MTK0922:3K5TEWLKGWIVG038GLCZNSARIHWVIK", "current_trial": 67, "dateTime": 1512882772415, "trialdata": {"rt": -1, "stimulus": "<p id=\"stim\">PANTHER</p>", "key_press": -1, "type": "PRES_VIS", "word": "panther", "wordID": 1008, "conditions": [18, 1200, "v", 18000], "trial": 1, "serialpos": 12, "trial_type": "single-stim", "trial_index": 67, "time_elapsed": 364694, "internal_node_id": "0.0-49.0"}}, {"uniqueid": "MTK0922:3K5TEWLKGWIVG038GLCZNSARIHWVIK", "current_trial": 68, "dateTime": 1512882774672, "trialdata": {"rt": -1, "stimulus": "<p id=\"stim\">TUBA</p>", "key_press": -1, "type": "PRES_VIS", "word": "tuba", "wordID": 1514, "conditions": [18, 1200, "v", 18000], "trial": 1, "serialpos": 13, "trial_type": "single-stim", "trial_index": 68, "time_elapsed": 366943, "internal_node_id": "0.0-50.0"}}, {"uniqueid": "MTK0922:3K5TEWLKGWIVG038GLCZNSARIHWVIK", "current_trial": 69, "dateTime": 1512882776726, "trialdata": {"rt": -1, "stimulus": "<p id=\"stim\">WORLD</p>", "key_press": -1, "type": "PRES_VIS", "word": "world", "wordID": 1621, "conditions": [18, 1200, "v", 18000], "trial": 1, "serialpos": 14, "trial_type": "single-stim", "trial_index": 69, "time_elapsed": 369004, "internal_node_id": "0.0-51.0"}}, {"uniqueid": "MTK0922:3K5TEWLKGWIVG038GLCZNSARIHWVIK", "current_trial": 70, "dateTime": 1512882779090, "trialdata": {"rt": -1, "stimulus": "<p id=\"stim\">CASHIER</p>", "key_press": -1, "type": "PRES_VIS", "word": "cashier", "wordID": 253, "conditions": [18, 1200, "v", 18000], "trial": 1, "serialpos": 15, "trial_type": "single-stim", "trial_index": 70, "time_elapsed": 371369, "internal_node_id": "0.0-52.0"}}, {"uniqueid": "MTK0922:3K5TEWLKGWIVG038GLCZNSARIHWVIK", "current_trial": 71, "dateTime": 1512882781254, "trialdata": {"rt": -1, "stimulus": "<p id=\"stim\">TURNIP</p>", "key_press": -1, "type": "PRES_VIS", "word": "turnip", "wordID": 1520, "conditions": [18, 1200, "v", 18000], "trial": 1, "serialpos": 16, "trial_type": "single-stim", "trial_index": 71, "time_elapsed": 373533, "internal_node_id": "0.0-53.0"}}, {"uniqueid": "MTK0922:3K5TEWLKGWIVG038GLCZNSARIHWVIK", "current_trial": 72, "dateTime": 1512882783614, "trialdata": {"rt": -1, "stimulus": "<p id=\"stim\">MARROW</p>", "key_press": -1, "type": "PRES_VIS", "word": "marrow", "wordID": 871, "conditions": [18, 1200, "v", 18000], "trial": 1, "serialpos": 17, "trial_type": "single-stim", "trial_index": 72, "time_elapsed": 375893, "internal_node_id": "0.0-54.0"}}, {"uniqueid": "MTK0922:3K5TEWLKGWIVG038GLCZNSARIHWVIK", "current_trial": 73, "dateTime": 1512882785757, "trialdata": {"rt": -1, "stimulus": "", "key_press": -1, "type": "PRE_RECALL_DELAY", "trial_type": "single-stim", "trial_index": 73, "time_elapsed": 378036, "internal_node_id": "0.0-55.0-0.0"}}, {"uniqueid": "MTK0922:3K5TEWLKGWIVG038GLCZNSARIHWVIK", "current_trial": 74, "dateTime": 1512882786299, "trialdata": {"rt": -1000, "stimulus": "/static/audio/400Hz.wav", "key_press": -1, "type": "PRE_RECALL_ALERT", "trial_type": "single-audio", "trial_index": 74, "time_elapsed": 378578, "internal_node_id": "0.0-56.0"}}, {"uniqueid": "MTK0922:3K5TEWLKGWIVG038GLCZNSARIHWVIK", "current_trial": 75, "dateTime": 1512882846323, "trialdata": {"rt": [4784, 21134], "recwords": ["marrow", "turnip"], "type": "FREE_RECALL", "conditions": [18, 1200, "v", 18000], "trial": 1, "trial_type": "free-recall", "trial_index": 75, "time_elapsed": 438590, "internal_node_id": "0.0-57.0-0.0"}}, {"uniqueid": "MTK0922:3K5TEWLKGWIVG038GLCZNSARIHWVIK", "current_trial": 76, "dateTime": 1512882854200, "trialdata": {"rt": 5847, "key_press": 32, "type": "INSTRUCTIONS", "trial_type": "text", "trial_index": 76, "time_elapsed": 446455, "internal_node_id": "0.0-58.0"}}, {"uniqueid": "MTK0922:3K5TEWLKGWIVG038GLCZNSARIHWVIK", "current_trial": 77, "dateTime": 1512882867213, "trialdata": {"rt": [], "responses": [], "num1": [8], "num2": [6], "num3": [4], "type": "DISTRACTOR", "conditions": [12, 800, "a", 12000], "trial": 2, "trial_type": "math-distractor", "trial_index": 77, "time_elapsed": 459492, "internal_node_id": "0.0-59.0"}}, {"uniqueid": "MTK0922:3K5TEWLKGWIVG038GLCZNSARIHWVIK", "current_trial": 78, "dateTime": 1512882870223, "trialdata": {"rt": -1, "stimulus": "<p id=\"stim\">10</p>", "key_press": -1, "trial_type": "single-stim", "trial_index": 78, "time_elapsed": 462494, "internal_node_id": "0.0-60.0-0.0"}}, {"uniqueid": "MTK0922:3K5TEWLKGWIVG038GLCZNSARIHWVIK", "current_trial": 79, "dateTime": 1512882871223, "trialdata": {"rt": -1, "stimulus": "<p id=\"stim\">9</p>", "key_press": -1, "trial_type": "single-stim", "trial_index": 79, "time_elapsed": 463502, "internal_node_id": "0.0-60.0-1.0"}}, {"uniqueid": "MTK0922:3K5TEWLKGWIVG038GLCZNSARIHWVIK", "current_trial": 80, "dateTime": 1512882872226, "trialdata": {"rt": -1, "stimulus": "<p id=\"stim\">8</p>", "key_press": -1, "trial_type": "single-stim", "trial_index": 80, "time_elapsed": 464505, "internal_node_id": "0.0-60.0-2.0"}}, {"uniqueid": "MTK0922:3K5TEWLKGWIVG038GLCZNSARIHWVIK", "current_trial": 81, "dateTime": 1512882873234, "trialdata": {"rt": -1, "stimulus": "<p id=\"stim\">7</p>", "key_press": -1, "trial_type": "single-stim", "trial_index": 81, "time_elapsed": 465513, "internal_node_id": "0.0-60.0-3.0"}}, {"uniqueid": "MTK0922:3K5TEWLKGWIVG038GLCZNSARIHWVIK", "current_trial": 82, "dateTime": 1512882874240, "trialdata": {"rt": -1, "stimulus": "<p id=\"stim\">6</p>", "key_press": -1, "trial_type": "single-stim", "trial_index": 82, "time_elapsed": 466519, "internal_node_id": "0.0-60.0-4.0"}}, {"uniqueid": "MTK0922:3K5TEWLKGWIVG038GLCZNSARIHWVIK", "current_trial": 83, "dateTime": 1512882875245, "trialdata": {"rt": -1, "stimulus": "<p id=\"stim\">5</p>", "key_press": -1, "trial_type": "single-stim", "trial_index": 83, "time_elapsed": 467524, "internal_node_id": "0.0-60.0-5.0"}}, {"uniqueid": "MTK0922:3K5TEWLKGWIVG038GLCZNSARIHWVIK", "current_trial": 84, "dateTime": 1512882876250, "trialdata": {"rt": -1, "stimulus": "<p id=\"stim\">4</p>", "key_press": -1, "trial_type": "single-stim", "trial_index": 84, "time_elapsed": 468529, "internal_node_id": "0.0-60.0-6.0"}}, {"uniqueid": "MTK0922:3K5TEWLKGWIVG038GLCZNSARIHWVIK", "current_trial": 85, "dateTime": 1512882877258, "trialdata": {"rt": -1, "stimulus": "<p id=\"stim\">3</p>", "key_press": -1, "trial_type": "single-stim", "trial_index": 85, "time_elapsed": 469537, "internal_node_id": "0.0-60.0-7.0"}}, {"uniqueid": "MTK0922:3K5TEWLKGWIVG038GLCZNSARIHWVIK", "current_trial": 86, "dateTime": 1512882878258, "trialdata": {"rt": -1, "stimulus": "<p id=\"stim\">2</p>", "key_press": -1, "trial_type": "single-stim", "trial_index": 86, "time_elapsed": 470537, "internal_node_id": "0.0-60.0-8.0"}}, {"uniqueid": "MTK0922:3K5TEWLKGWIVG038GLCZNSARIHWVIK", "current_trial": 87, "dateTime": 1512882879261, "trialdata": {"rt": -1, "stimulus": "<p id=\"stim\">1</p>", "key_press": -1, "trial_type": "single-stim", "trial_index": 87, "time_elapsed": 471540, "internal_node_id": "0.0-60.0-9.0"}}, {"uniqueid": "MTK0922:3K5TEWLKGWIVG038GLCZNSARIHWVIK", "current_trial": 88, "dateTime": 1512882880761, "trialdata": {"rt": -1, "stimulus": "<p id=\"stim\">+</p>", "key_press": -1, "type": "FIXATION", "trial_type": "single-stim", "trial_index": 88, "time_elapsed": 473040, "internal_node_id": "0.0-61.0-0.0"}}, {"uniqueid": "MTK0922:3K5TEWLKGWIVG038GLCZNSARIHWVIK", "current_trial": 89, "dateTime": 1512882882399, "trialdata": {"rt": -1000, "stimulus": "/static/audio/wordpool/TWISTER.wav", "key_press": -1, "type": "PRES_AUD", "word": "twister", "wordID": 1529, "conditions": [12, 800, "a", 12000], "trial": 2, "serialpos": 0, "trial_type": "single-audio", "trial_index": 89, "time_elapsed": 474678, "internal_node_id": "0.0-62.0"}}, {"uniqueid": "MTK0922:3K5TEWLKGWIVG038GLCZNSARIHWVIK", "current_trial": 90, "dateTime": 1512882884247, "trialdata": {"rt": -1000, "stimulus": "/static/audio/wordpool/WAGON.wav", "key_press": -1, "type": "PRES_AUD", "word": "wagon", "wordID": 1577, "conditions": [12, 800, "a", 12000], "trial": 2, "serialpos": 1, "trial_type": "single-audio", "trial_index": 90, "time_elapsed": 476525, "internal_node_id": "0.0-63.0"}}, {"uniqueid": "MTK0922:3K5TEWLKGWIVG038GLCZNSARIHWVIK", "current_trial": 91, "dateTime": 1512882886219, "trialdata": {"rt": -1000, "stimulus": "/static/audio/wordpool/EGYPT.wav", "key_press": -1, "type": "PRES_AUD", "word": "egypt", "wordID": 518, "conditions": [12, 800, "a", 12000], "trial": 2, "serialpos": 2, "trial_type": "single-audio", "trial_index": 91, "time_elapsed": 478497, "internal_node_id": "0.0-64.0"}}, {"uniqueid": "MTK0922:3K5TEWLKGWIVG038GLCZNSARIHWVIK", "current_trial": 92, "dateTime": 1512882887985, "trialdata": {"rt": -1000, "stimulus": "/static/audio/wordpool/DONKEY.wav", "key_press": -1, "type": "PRES_AUD", "word": "donkey", "wordID": 483, "conditions": [12, 800, "a", 12000], "trial": 2, "serialpos": 3, "trial_type": "single-audio", "trial_index": 92, "time_elapsed": 480263, "internal_node_id": "0.0-65.0"}}, {"uniqueid": "MTK0922:3K5TEWLKGWIVG038GLCZNSARIHWVIK", "current_trial": 93, "dateTime": 1512882889601, "trialdata": {"rt": -1000, "stimulus": "/static/audio/wordpool/CARROT.wav", "key_press": -1, "type": "PRES_AUD", "word": "carrot", "wordID": 248, "conditions": [12, 800, "a", 12000], "trial": 2, "serialpos": 4, "trial_type": "single-audio", "trial_index": 93, "time_elapsed": 481880, "internal_node_id": "0.0-66.0"}}, {"uniqueid": "MTK0922:3K5TEWLKGWIVG038GLCZNSARIHWVIK", "current_trial": 94, "dateTime": 1512882891374, "trialdata": {"rt": -1000, "stimulus": "/static/audio/wordpool/TRUCK.wav", "key_press": -1, "type": "PRES_AUD", "word": "truck", "wordID": 1511, "conditions": [12, 800, "a", 12000], "trial": 2, "serialpos": 5, "trial_type": "single-audio", "trial_index": 94, "time_elapsed": 483653, "internal_node_id": "0.0-67.0"}}, {"uniqueid": "MTK0922:3K5TEWLKGWIVG038GLCZNSARIHWVIK", "current_trial": 95, "dateTime": 1512882893330, "trialdata": {"rt": -1000, "stimulus": "/static/audio/wordpool/BANJO.wav", "key_press": -1, "type": "PRES_AUD", "word": "banjo", "wordID": 81, "conditions": [12, 800, "a", 12000], "trial": 2, "serialpos": 6, "trial_type": "single-audio", "trial_index": 95, "time_elapsed": 485608, "internal_node_id": "0.0-68.0"}}, {"uniqueid": "MTK0922:3K5TEWLKGWIVG038GLCZNSARIHWVIK", "current_trial": 96, "dateTime": 1512882895057, "trialdata": {"rt": -1000, "stimulus": "/static/audio/wordpool/SISTER.wav", "key_press": -1, "type": "PRES_AUD", "word": "sister", "wordID": 1311, "conditions": [12, 800, "a", 12000], "trial": 2, "serialpos": 7, "trial_type": "single-audio", "trial_index": 96, "time_elapsed": 487336, "internal_node_id": "0.0-69.0"}}, {"uniqueid": "MTK0922:3K5TEWLKGWIVG038GLCZNSARIHWVIK", "current_trial": 97, "dateTime": 1512882896881, "trialdata": {"rt": -1000, "stimulus": "/static/audio/wordpool/WRIST.wav", "key_press": -1, "type": "PRES_AUD", "word": "wrist", "wordID": 1625, "conditions": [12, 800, "a", 12000], "trial": 2, "serialpos": 8, "trial_type": "single-audio", "trial_index": 97, "time_elapsed": 489159, "internal_node_id": "0.0-70.0"}}, {"uniqueid": "MTK0922:3K5TEWLKGWIVG038GLCZNSARIHWVIK", "current_trial": 98, "dateTime": 1512882898847, "trialdata": {"rt": -1000, "stimulus": "/static/audio/wordpool/BULLET.wav", "key_press": -1, "type": "PRES_AUD", "word": "bullet", "wordID": 193, "conditions": [12, 800, "a", 12000], "trial": 2, "serialpos": 9, "trial_type": "single-audio", "trial_index": 98, "time_elapsed": 491126, "internal_node_id": "0.0-71.0"}}, {"uniqueid": "MTK0922:3K5TEWLKGWIVG038GLCZNSARIHWVIK", "current_trial": 99, "dateTime": 1512882900787, "trialdata": {"rt": -1000, "stimulus": "/static/audio/wordpool/PEANUT.wav", "key_press": -1, "type": "PRES_AUD", "word": "peanut", "wordID": 1031, "conditions": [12, 800, "a", 12000], "trial": 2, "serialpos": 10, "trial_type": "single-audio", "trial_index": 99, "time_elapsed": 493066, "internal_node_id": "0.0-72.0"}}, {"uniqueid": "MTK0922:3K5TEWLKGWIVG038GLCZNSARIHWVIK", "current_trial": 100, "dateTime": 1512882902777, "trialdata": {"rt": -1000, "stimulus": "/static/audio/wordpool/PECAN.wav", "key_press": -1, "type": "PRES_AUD", "word": "pecan", "wordID": 1035, "conditions": [12, 800, "a", 12000], "trial": 2, "serialpos": 11, "trial_type": "single-audio", "trial_index": 100, "time_elapsed": 495055, "internal_node_id": "0.0-73.0"}}, {"uniqueid": "MTK0922:3K5TEWLKGWIVG038GLCZNSARIHWVIK", "current_trial": 101, "dateTime": 1512882904179, "trialdata": {"rt": -1, "stimulus": "", "key_press": -1, "type": "PRE_RECALL_DELAY", "trial_type": "single-stim", "trial_index": 101, "time_elapsed": 496457, "internal_node_id": "0.0-74.0-0.0"}}, {"uniqueid": "MTK0922:3K5TEWLKGWIVG038GLCZNSARIHWVIK", "current_trial": 102, "dateTime": 1512882904683, "trialdata": {"rt": -1000, "stimulus": "/static/audio/400Hz.wav", "key_press": -1, "type": "PRE_RECALL_ALERT", "trial_type": "single-audio", "trial_index": 102, "time_elapsed": 496962, "internal_node_id": "0.0-75.0"}}, {"uniqueid": "MTK0922:3K5TEWLKGWIVG038GLCZNSARIHWVIK", "current_trial": 103, "dateTime": 1512882964702, "trialdata": {"rt": [6212, 10002, 13726, 18545, 24238], "recwords": ["twister", "carrot", "egypt", "donkey", "sister"], "type": "FREE_RECALL", "conditions": [12, 800, "a", 12000], "trial": 2, "trial_type": "free-recall", "trial_index": 103, "time_elapsed": 556973, "internal_node_id": "0.0-76.0-0.0"}}, {"uniqueid": "MTK0922:3K5TEWLKGWIVG038GLCZNSARIHWVIK", "current_trial": 104, "dateTime": 1512882967779, "trialdata": {"rt": 1070, "key_press": 32, "type": "INSTRUCTIONS", "trial_type": "text", "trial_index": 104, "time_elapsed": 560058, "internal_node_id": "0.0-77.0"}}, {"uniqueid": "MTK0922:3K5TEWLKGWIVG038GLCZNSARIHWVIK", "current_trial": 105, "dateTime": 1512882993791, "trialdata": {"rt": [6369, 12086, 15825, 22230], "responses": ["11", "17", "5", "16"], "num1": [4, 5, 2, 9, 3], "num2": [6, 6, 1, 6, 9], "num3": [1, 6, 2, 1, 2], "type": "DISTRACTOR", "conditions": [12, 800, "v", 24000], "trial": 3, "trial_type": "math-distractor", "trial_index": 105, "time_elapsed": 586070, "internal_node_id": "0.0-78.0"}}, {"uniqueid": "MTK0922:3K5TEWLKGWIVG038GLCZNSARIHWVIK", "current_trial": 106, "dateTime": 1512882996798, "trialdata": {"rt": -1, "stimulus": "<p id=\"stim\">10</p>", "key_press": -1, "trial_type": "single-stim", "trial_index": 106, "time_elapsed": 589077, "internal_node_id": "0.0-79.0-0.0"}}, {"uniqueid": "MTK0922:3K5TEWLKGWIVG038GLCZNSARIHWVIK", "current_trial": 107, "dateTime": 1512882997811, "trialdata": {"rt": -1, "stimulus": "<p id=\"stim\">9</p>", "key_press": -1, "trial_type": "single-stim", "trial_index": 107, "time_elapsed": 590090, "internal_node_id": "0.0-79.0-1.0"}}, {"uniqueid": "MTK0922:3K5TEWLKGWIVG038GLCZNSARIHWVIK", "current_trial": 108, "dateTime": 1512882998841, "trialdata": {"rt": -1, "stimulus": "<p id=\"stim\">8</p>", "key_press": -1, "trial_type": "single-stim", "trial_index": 108, "time_elapsed": 591120, "internal_node_id": "0.0-79.0-2.0"}}, {"uniqueid": "MTK0922:3K5TEWLKGWIVG038GLCZNSARIHWVIK", "current_trial": 109, "dateTime": 1512882999843, "trialdata": {"rt": -1, "stimulus": "<p id=\"stim\">7</p>", "key_press": -1, "trial_type": "single-stim", "trial_index": 109, "time_elapsed": 592122, "internal_node_id": "0.0-79.0-3.0"}}, {"uniqueid": "MTK0922:3K5TEWLKGWIVG038GLCZNSARIHWVIK", "current_trial": 110, "dateTime": 1512883000867, "trialdata": {"rt": -1, "stimulus": "<p id=\"stim\">6</p>", "key_press": -1, "trial_type": "single-stim", "trial_index": 110, "time_elapsed": 593146, "internal_node_id": "0.0-79.0-4.0"}}, {"uniqueid": "MTK0922:3K5TEWLKGWIVG038GLCZNSARIHWVIK", "current_trial": 111, "dateTime": 1512883001873, "trialdata": {"rt": -1, "stimulus": "<p id=\"stim\">5</p>", "key_press": -1, "trial_type": "single-stim", "trial_index": 111, "time_elapsed": 594152, "internal_node_id": "0.0-79.0-5.0"}}, {"uniqueid": "MTK0922:3K5TEWLKGWIVG038GLCZNSARIHWVIK", "current_trial": 112, "dateTime": 1512883002876, "trialdata": {"rt": -1, "stimulus": "<p id=\"stim\">4</p>", "key_press": -1, "trial_type": "single-stim", "trial_index": 112, "time_elapsed": 595155, "internal_node_id": "0.0-79.0-6.0"}}, {"uniqueid": "MTK0922:3K5TEWLKGWIVG038GLCZNSARIHWVIK", "current_trial": 113, "dateTime": 1512883003886, "trialdata": {"rt": -1, "stimulus": "<p id=\"stim\">3</p>", "key_press": -1, "trial_type": "single-stim", "trial_index": 113, "time_elapsed": 596165, "internal_node_id": "0.0-79.0-7.0"}}, {"uniqueid": "MTK0922:3K5TEWLKGWIVG038GLCZNSARIHWVIK", "current_trial": 114, "dateTime": 1512883004889, "trialdata": {"rt": -1, "stimulus": "<p id=\"stim\">2</p>", "key_press": -1, "trial_type": "single-stim", "trial_index": 114, "time_elapsed": 597168, "internal_node_id": "0.0-79.0-8.0"}}, {"uniqueid": "MTK0922:3K5TEWLKGWIVG038GLCZNSARIHWVIK", "current_trial": 115, "dateTime": 1512883005896, "trialdata": {"rt": -1, "stimulus": "<p id=\"stim\">1</p>", "key_press": -1, "trial_type": "single-stim", "trial_index": 115, "time_elapsed": 598175, "internal_node_id": "0.0-79.0-9.0"}}, {"uniqueid": "MTK0922:3K5TEWLKGWIVG038GLCZNSARIHWVIK", "current_trial": 116, "dateTime": 1512883007403, "trialdata": {"rt": -1, "stimulus": "<p id=\"stim\">+</p>", "key_press": -1, "type": "FIXATION", "trial_type": "single-stim", "trial_index": 116, "time_elapsed": 599682, "internal_node_id": "0.0-80.0-0.0"}}, {"uniqueid": "MTK0922:3K5TEWLKGWIVG038GLCZNSARIHWVIK", "current_trial": 117, "dateTime": 1512883008205, "trialdata": {"rt": -1, "stimulus": "<p id=\"stim\">PADDING</p>", "key_press": -1, "type": "PRES_VIS", "word": "padding", "wordID": 998, "conditions": [12, 800, "v", 24000], "trial": 3, "serialpos": 0, "trial_type": "single-stim", "trial_index": 117, "time_elapsed": 600484, "internal_node_id": "0.0-81.0"}}, {"uniqueid": "MTK0922:3K5TEWLKGWIVG038GLCZNSARIHWVIK", "current_trial": 118, "dateTime": 1512883010012, "trialdata": {"rt": -1, "stimulus": "<p id=\"stim\">OYSTER</p>", "key_press": -1, "type": "PRES_VIS", "word": "oyster", "wordID": 994, "conditions": [12, 800, "v", 24000], "trial": 3, "serialpos": 1, "trial_type": "single-stim", "trial_index": 118, "time_elapsed": 602291, "internal_node_id": "0.0-82.0"}}, {"uniqueid": "MTK0922:3K5TEWLKGWIVG038GLCZNSARIHWVIK", "current_trial": 119, "dateTime": 1512883011857, "trialdata": {"rt": -1, "stimulus": "<p id=\"stim\">SHIRT</p>", "key_press": -1, "type": "PRES_VIS", "word": "shirt", "wordID": 1286, "conditions": [12, 800, "v", 24000], "trial": 3, "serialpos": 2, "trial_type": "single-stim", "trial_index": 119, "time_elapsed": 604135, "internal_node_id": "0.0-83.0"}}, {"uniqueid": "MTK0922:3K5TEWLKGWIVG038GLCZNSARIHWVIK", "current_trial": 120, "dateTime": 1512883013736, "trialdata": {"rt": -1, "stimulus": "<p id=\"stim\">CHIPMUNK</p>", "key_press": -1, "type": "PRES_VIS", "word": "chipmunk", "wordID": 303, "conditions": [12, 800, "v", 24000], "trial": 3, "serialpos": 3, "trial_type": "single-stim", "trial_index": 120, "time_elapsed": 606011, "internal_node_id": "0.0-84.0"}}, {"uniqueid": "MTK0922:3K5TEWLKGWIVG038GLCZNSARIHWVIK", "current_trial": 121, "dateTime": 1512883015640, "trialdata": {"rt": -1, "stimulus": "<p id=\"stim\">POSSUM</p>", "key_press": -1, "type": "PRES_VIS", "word": "possum", "wordID": 1111, "conditions": [12, 800, "v", 24000], "trial": 3, "serialpos": 4, "trial_type": "single-stim", "trial_index": 121, "time_elapsed": 607919, "internal_node_id": "0.0-85.0"}}, {"uniqueid": "MTK0922:3K5TEWLKGWIVG038GLCZNSARIHWVIK", "current_trial": 122, "dateTime": 1512883017323, "trialdata": {"rt": -1, "stimulus": "<p id=\"stim\">HOOD</p>", "key_press": -1, "type": "PRES_VIS", "word": "hood", "wordID": 713, "conditions": [12, 800, "v", 24000], "trial": 3, "serialpos": 5, "trial_type": "single-stim", "trial_index": 122, "time_elapsed": 609602, "internal_node_id": "0.0-86.0"}}, {"uniqueid": "MTK0922:3K5TEWLKGWIVG038GLCZNSARIHWVIK", "current_trial": 123, "dateTime": 1512883019316, "trialdata": {"rt": -1, "stimulus": "<p id=\"stim\">FLOWER</p>", "key_press": -1, "type": "PRES_VIS", "word": "flower", "wordID": 583, "conditions": [12, 800, "v", 24000], "trial": 3, "serialpos": 6, "trial_type": "single-stim", "trial_index": 123, "time_elapsed": 611595, "internal_node_id": "0.0-87.0"}}, {"uniqueid": "MTK0922:3K5TEWLKGWIVG038GLCZNSARIHWVIK", "current_trial": 124, "dateTime": 1512883020955, "trialdata": {"rt": -1, "stimulus": "<p id=\"stim\">STAPLE</p>", "key_press": -1, "type": "PRES_VIS", "word": "staple", "wordID": 1370, "conditions": [12, 800, "v", 24000], "trial": 3, "serialpos": 7, "trial_type": "single-stim", "trial_index": 124, "time_elapsed": 613230, "internal_node_id": "0.0-88.0"}}, {"uniqueid": "MTK0922:3K5TEWLKGWIVG038GLCZNSARIHWVIK", "current_trial": 125, "dateTime": 1512883022843, "trialdata": {"rt": -1, "stimulus": "<p id=\"stim\">KITCHEN</p>", "key_press": -1, "type": "PRES_VIS", "word": "kitchen", "wordID": 777, "conditions": [12, 800, "v", 24000], "trial": 3, "serialpos": 8, "trial_type": "single-stim", "trial_index": 125, "time_elapsed": 615122, "internal_node_id": "0.0-89.0"}}, {"uniqueid": "MTK0922:3K5TEWLKGWIVG038GLCZNSARIHWVIK", "current_trial": 126, "dateTime": 1512883024665, "trialdata": {"rt": -1, "stimulus": "<p id=\"stim\">CUPBOARD</p>", "key_press": -1, "type": "PRES_VIS", "word": "cupboard", "wordID": 424, "conditions": [12, 800, "v", 24000], "trial": 3, "serialpos": 9, "trial_type": "single-stim", "trial_index": 126, "time_elapsed": 616944, "internal_node_id": "0.0-90.0"}}, {"uniqueid": "MTK0922:3K5TEWLKGWIVG038GLCZNSARIHWVIK", "current_trial": 127, "dateTime": 1512883026625, "trialdata": {"rt": -1, "stimulus": "<p id=\"stim\">SCALLOP</p>", "key_press": -1, "type": "PRES_VIS", "word": "scallop", "wordID": 1241, "conditions": [12, 800, "v", 24000], "trial": 3, "serialpos": 10, "trial_type": "single-stim", "trial_index": 127, "time_elapsed": 618904, "internal_node_id": "0.0-91.0"}}, {"uniqueid": "MTK0922:3K5TEWLKGWIVG038GLCZNSARIHWVIK", "current_trial": 128, "dateTime": 1512883028483, "trialdata": {"rt": -1, "stimulus": "<p id=\"stim\">HORNET</p>", "key_press": -1, "type": "PRES_VIS", "word": "hornet", "wordID": 717, "conditions": [12, 800, "v", 24000], "trial": 3, "serialpos": 11, "trial_type": "single-stim", "trial_index": 128, "time_elapsed": 620762, "internal_node_id": "0.0-92.0"}}, {"uniqueid": "MTK0922:3K5TEWLKGWIVG038GLCZNSARIHWVIK", "current_trial": 129, "dateTime": 1512883030666, "trialdata": {"rt": -1, "stimulus": "", "key_press": -1, "type": "PRE_RECALL_DELAY", "trial_type": "single-stim", "trial_index": 129, "time_elapsed": 622945, "internal_node_id": "0.0-93.0-0.0"}}, {"uniqueid": "MTK0922:3K5TEWLKGWIVG038GLCZNSARIHWVIK", "current_trial": 130, "dateTime": 1512883031199, "trialdata": {"rt": -1000, "stimulus": "/static/audio/400Hz.wav", "key_press": -1, "type": "PRE_RECALL_ALERT", "trial_type": "single-audio", "trial_index": 130, "time_elapsed": 623478, "internal_node_id": "0.0-94.0"}}, {"uniqueid": "MTK0922:3K5TEWLKGWIVG038GLCZNSARIHWVIK", "current_trial": 131, "dateTime": 1512883091219, "trialdata": {"rt": [3972, 6749, 12280], "recwords": ["hood", "scallop", "cupboard"], "type": "FREE_RECALL", "conditions": [12, 800, "v", 24000], "trial": 3, "trial_type": "free-recall", "trial_index": 131, "time_elapsed": 683486, "internal_node_id": "0.0-95.0-0.0"}}, {"uniqueid": "MTK0922:3K5TEWLKGWIVG038GLCZNSARIHWVIK", "current_trial": 132, "dateTime": 1512883119180, "trialdata": {"rt": 25957, "key_press": 32, "type": "INSTRUCTIONS", "trial_type": "text", "trial_index": 132, "time_elapsed": 711459, "internal_node_id": "0.0-96.0"}}, {"uniqueid": "MTK0922:3K5TEWLKGWIVG038GLCZNSARIHWVIK", "current_trial": 133, "dateTime": 1512883145189, "trialdata": {"rt": [9376, 14200, 18647, 23740], "responses": ["26", "12", "13", "20"], "num1": [9, 8, 1, 9, 9], "num2": [9, 3, 9, 2, 3], "num3": [7, 1, 3, 9, 6], "type": "DISTRACTOR", "conditions": [12, 1600, "v", 24000], "trial": 4, "trial_type": "math-distractor", "trial_index": 133, "time_elapsed": 737468, "internal_node_id": "0.0-97.0"}}, {"uniqueid": "MTK0922:3K5TEWLKGWIVG038GLCZNSARIHWVIK", "current_trial": 134, "dateTime": 1512883148192, "trialdata": {"rt": -1, "stimulus": "<p id=\"stim\">10</p>", "key_press": -1, "trial_type": "single-stim", "trial_index": 134, "time_elapsed": 740471, "internal_node_id": "0.0-98.0-0.0"}}, {"uniqueid": "MTK0922:3K5TEWLKGWIVG038GLCZNSARIHWVIK", "current_trial": 135, "dateTime": 1512883149197, "trialdata": {"rt": -1, "stimulus": "<p id=\"stim\">9</p>", "key_press": -1, "trial_type": "single-stim", "trial_index": 135, "time_elapsed": 741472, "internal_node_id": "0.0-98.0-1.0"}}, {"uniqueid": "MTK0922:3K5TEWLKGWIVG038GLCZNSARIHWVIK", "current_trial": 136, "dateTime": 1512883150199, "trialdata": {"rt": -1, "stimulus": "<p id=\"stim\">8</p>", "key_press": -1, "trial_type": "single-stim", "trial_index": 136, "time_elapsed": 742478, "internal_node_id": "0.0-98.0-2.0"}}, {"uniqueid": "MTK0922:3K5TEWLKGWIVG038GLCZNSARIHWVIK", "current_trial": 137, "dateTime": 1512883151204, "trialdata": {"rt": -1, "stimulus": "<p id=\"stim\">7</p>", "key_press": -1, "trial_type": "single-stim", "trial_index": 137, "time_elapsed": 743483, "internal_node_id": "0.0-98.0-3.0"}}, {"uniqueid": "MTK0922:3K5TEWLKGWIVG038GLCZNSARIHWVIK", "current_trial": 138, "dateTime": 1512883152205, "trialdata": {"rt": -1, "stimulus": "<p id=\"stim\">6</p>", "key_press": -1, "trial_type": "single-stim", "trial_index": 138, "time_elapsed": 744484, "internal_node_id": "0.0-98.0-4.0"}}, {"uniqueid": "MTK0922:3K5TEWLKGWIVG038GLCZNSARIHWVIK", "current_trial": 139, "dateTime": 1512883153206, "trialdata": {"rt": -1, "stimulus": "<p id=\"stim\">5</p>", "key_press": -1, "trial_type": "single-stim", "trial_index": 139, "time_elapsed": 745485, "internal_node_id": "0.0-98.0-5.0"}}, {"uniqueid": "MTK0922:3K5TEWLKGWIVG038GLCZNSARIHWVIK", "current_trial": 140, "dateTime": 1512883154227, "trialdata": {"rt": -1, "stimulus": "<p id=\"stim\">4</p>", "key_press": -1, "trial_type": "single-stim", "trial_index": 140, "time_elapsed": 746503, "internal_node_id": "0.0-98.0-6.0"}}, {"uniqueid": "MTK0922:3K5TEWLKGWIVG038GLCZNSARIHWVIK", "current_trial": 141, "dateTime": 1512883155236, "trialdata": {"rt": -1, "stimulus": "<p id=\"stim\">3</p>", "key_press": -1, "trial_type": "single-stim", "trial_index": 141, "time_elapsed": 747514, "internal_node_id": "0.0-98.0-7.0"}}, {"uniqueid": "MTK0922:3K5TEWLKGWIVG038GLCZNSARIHWVIK", "current_trial": 142, "dateTime": 1512883156241, "trialdata": {"rt": -1, "stimulus": "<p id=\"stim\">2</p>", "key_press": -1, "trial_type": "single-stim", "trial_index": 142, "time_elapsed": 748520, "internal_node_id": "0.0-98.0-8.0"}}, {"uniqueid": "MTK0922:3K5TEWLKGWIVG038GLCZNSARIHWVIK", "current_trial": 143, "dateTime": 1512883157246, "trialdata": {"rt": -1, "stimulus": "<p id=\"stim\">1</p>", "key_press": -1, "trial_type": "single-stim", "trial_index": 143, "time_elapsed": 749525, "internal_node_id": "0.0-98.0-9.0"}}, {"uniqueid": "MTK0922:3K5TEWLKGWIVG038GLCZNSARIHWVIK", "current_trial": 144, "dateTime": 1512883158751, "trialdata": {"rt": -1, "stimulus": "<p id=\"stim\">+</p>", "key_press": -1, "type": "FIXATION", "trial_type": "single-stim", "trial_index": 144, "time_elapsed": 751030, "internal_node_id": "0.0-99.0-0.0"}}, {"uniqueid": "MTK0922:3K5TEWLKGWIVG038GLCZNSARIHWVIK", "current_trial": 145, "dateTime": 1512883160355, "trialdata": {"rt": -1, "stimulus": "<p id=\"stim\">FLASHLIGHT</p>", "key_press": -1, "type": "PRES_VIS", "word": "flashlight", "wordID": 574, "conditions": [12, 1600, "v", 24000], "trial": 4, "serialpos": 0, "trial_type": "single-stim", "trial_index": 145, "time_elapsed": 752633, "internal_node_id": "0.0-100.0"}}, {"uniqueid": "MTK0922:3K5TEWLKGWIVG038GLCZNSARIHWVIK", "current_trial": 146, "dateTime": 1512883163091, "trialdata": {"rt": -1, "stimulus": "<p id=\"stim\">ACTRESS</p>", "key_press": -1, "type": "PRES_VIS", "word": "actress", "wordID": 5, "conditions": [12, 1600, "v", 24000], "trial": 4, "serialpos": 1, "trial_type": "single-stim", "trial_index": 146, "time_elapsed": 755370, "internal_node_id": "0.0-101.0"}}, {"uniqueid": "MTK0922:3K5TEWLKGWIVG038GLCZNSARIHWVIK", "current_trial": 147, "dateTime": 1512883165859, "trialdata": {"rt": -1, "stimulus": "<p id=\"stim\">STAMP</p>", "key_press": -1, "type": "PRES_VIS", "word": "stamp", "wordID": 1369, "conditions": [12, 1600, "v", 24000], "trial": 4, "serialpos": 2, "trial_type": "single-stim", "trial_index": 147, "time_elapsed": 758138, "internal_node_id": "0.0-102.0"}}, {"uniqueid": "MTK0922:3K5TEWLKGWIVG038GLCZNSARIHWVIK", "current_trial": 148, "dateTime": 1512883168504, "trialdata": {"rt": -1, "stimulus": "<p id=\"stim\">CLAMP</p>", "key_press": -1, "type": "PRES_VIS", "word": "clamp", "wordID": 315, "conditions": [12, 1600, "v", 24000], "trial": 4, "serialpos": 3, "trial_type": "single-stim", "trial_index": 148, "time_elapsed": 760783, "internal_node_id": "0.0-103.0"}}, {"uniqueid": "MTK0922:3K5TEWLKGWIVG038GLCZNSARIHWVIK", "current_trial": 149, "dateTime": 1512883170955, "trialdata": {"rt": -1, "stimulus": "<p id=\"stim\">SUPPER</p>", "key_press": -1, "type": "PRES_VIS", "word": "supper", "wordID": 1410, "conditions": [12, 1600, "v", 24000], "trial": 4, "serialpos": 4, "trial_type": "single-stim", "trial_index": 149, "time_elapsed": 763234, "internal_node_id": "0.0-104.0"}}, {"uniqueid": "MTK0922:3K5TEWLKGWIVG038GLCZNSARIHWVIK", "current_trial": 150, "dateTime": 1512883173631, "trialdata": {"rt": -1, "stimulus": "<p id=\"stim\">TILE</p>", "key_press": -1, "type": "PRES_VIS", "word": "tile", "wordID": 1467, "conditions": [12, 1600, "v", 24000], "trial": 4, "serialpos": 5, "trial_type": "single-stim", "trial_index": 150, "time_elapsed": 765910, "internal_node_id": "0.0-105.0"}}, {"uniqueid": "MTK0922:3K5TEWLKGWIVG038GLCZNSARIHWVIK", "current_trial": 151, "dateTime": 1512883176194, "trialdata": {"rt": -1, "stimulus": "<p id=\"stim\">POET</p>", "key_press": -1, "type": "PRES_VIS", "word": "poet", "wordID": 1094, "conditions": [12, 1600, "v", 24000], "trial": 4, "serialpos": 6, "trial_type": "single-stim", "trial_index": 151, "time_elapsed": 768473, "internal_node_id": "0.0-106.0"}}, {"uniqueid": "MTK0922:3K5TEWLKGWIVG038GLCZNSARIHWVIK", "current_trial": 152, "dateTime": 1512883178829, "trialdata": {"rt": -1, "stimulus": "<p id=\"stim\">FLASK</p>", "key_press": -1, "type": "PRES_VIS", "word": "flask", "wordID": 575, "conditions": [12, 1600, "v", 24000], "trial": 4, "serialpos": 7, "trial_type": "single-stim", "trial_index": 152, "time_elapsed": 771108, "internal_node_id": "0.0-107.0"}}, {"uniqueid": "MTK0922:3K5TEWLKGWIVG038GLCZNSARIHWVIK", "current_trial": 153, "dateTime": 1512883181258, "trialdata": {"rt": -1, "stimulus": "<p id=\"stim\">BEAKER</p>", "key_press": -1, "type": "PRES_VIS", "word": "beaker", "wordID": 103, "conditions": [12, 1600, "v", 24000], "trial": 4, "serialpos": 8, "trial_type": "single-stim", "trial_index": 153, "time_elapsed": 773536, "internal_node_id": "0.0-108.0"}}, {"uniqueid": "MTK0922:3K5TEWLKGWIVG038GLCZNSARIHWVIK", "current_trial": 154, "dateTime": 1512883184012, "trialdata": {"rt": -1, "stimulus": "<p id=\"stim\">CHURCH</p>", "key_press": -1, "type": "PRES_VIS", "word": "church", "wordID": 306, "conditions": [12, 1600, "v", 24000], "trial": 4, "serialpos": 9, "trial_type": "single-stim", "trial_index": 154, "time_elapsed": 776291, "internal_node_id": "0.0-109.0"}}, {"uniqueid": "MTK0922:3K5TEWLKGWIVG038GLCZNSARIHWVIK", "current_trial": 155, "dateTime": 1512883186628, "trialdata": {"rt": -1, "stimulus": "<p id=\"stim\">QUEEN</p>", "key_press": -1, "type": "PRES_VIS", "word": "queen", "wordID": 1148, "conditions": [12, 1600, "v", 24000], "trial": 4, "serialpos": 10, "trial_type": "single-stim", "trial_index": 155, "time_elapsed": 778907, "internal_node_id": "0.0-110.0"}}, {"uniqueid": "MTK0922:3K5TEWLKGWIVG038GLCZNSARIHWVIK", "current_trial": 156, "dateTime": 1512883189172, "trialdata": {"rt": -1, "stimulus": "<p id=\"stim\">PICNIC</p>", "key_press": -1, "type": "PRES_VIS", "word": "picnic", "wordID": 1059, "conditions": [12, 1600, "v", 24000], "trial": 4, "serialpos": 11, "trial_type": "single-stim", "trial_index": 156, "time_elapsed": 781425, "internal_node_id": "0.0-111.0"}}, {"uniqueid": "MTK0922:3K5TEWLKGWIVG038GLCZNSARIHWVIK", "current_trial": 157, "dateTime": 1512883191585, "trialdata": {"rt": -1, "stimulus": "", "key_press": -1, "type": "PRE_RECALL_DELAY", "trial_type": "single-stim", "trial_index": 157, "time_elapsed": 783864, "internal_node_id": "0.0-112.0-0.0"}}, {"uniqueid": "MTK0922:3K5TEWLKGWIVG038GLCZNSARIHWVIK", "current_trial": 158, "dateTime": 1512883192114, "trialdata": {"rt": -1000, "stimulus": "/static/audio/400Hz.wav", "key_press": -1, "type": "PRE_RECALL_ALERT", "trial_type": "single-audio", "trial_index": 158, "time_elapsed": 784392, "internal_node_id": "0.0-113.0"}}, {"uniqueid": "MTK0922:3K5TEWLKGWIVG038GLCZNSARIHWVIK", "current_trial": 159, "dateTime": 1512883252132, "trialdata": {"rt": [3520, 5669, 8469, 11572, 15044, 20413, 24776, 27503], "recwords": ["actress", "poet", "church", "queen", "picnic", "supper", "stamp", "clamp"], "type": "FREE_RECALL", "conditions": [12, 1600, "v", 24000], "trial": 4, "trial_type": "free-recall", "trial_index": 159, "time_elapsed": 844399, "internal_node_id": "0.0-114.0-0.0"}}, {"uniqueid": "MTK0922:3K5TEWLKGWIVG038GLCZNSARIHWVIK", "current_trial": 160, "dateTime": 1512883270214, "trialdata": {"rt": 16074, "key_press": 32, "type": "INSTRUCTIONS", "trial_type": "text", "trial_index": 160, "time_elapsed": 862493, "internal_node_id": "0.0-115.0"}}, {"uniqueid": "MTK0922:3K5TEWLKGWIVG038GLCZNSARIHWVIK", "current_trial": 161, "dateTime": 1512883284224, "trialdata": {"rt": [11481], "responses": ["16"], "num1": [5, 1], "num2": [3, 8], "num3": [8, 3], "type": "DISTRACTOR", "conditions": [24, 1600, "v", 12000], "trial": 5, "trial_type": "math-distractor", "trial_index": 161, "time_elapsed": 876503, "internal_node_id": "0.0-116.0"}}, {"uniqueid": "MTK0922:3K5TEWLKGWIVG038GLCZNSARIHWVIK", "current_trial": 162, "dateTime": 1512883287228, "trialdata": {"rt": -1, "stimulus": "<p id=\"stim\">10</p>", "key_press": -1, "trial_type": "single-stim", "trial_index": 162, "time_elapsed": 879507, "internal_node_id": "0.0-117.0-0.0"}}, {"uniqueid": "MTK0922:3K5TEWLKGWIVG038GLCZNSARIHWVIK", "current_trial": 163, "dateTime": 1512883288228, "trialdata": {"rt": -1, "stimulus": "<p id=\"stim\">9</p>", "key_press": -1, "trial_type": "single-stim", "trial_index": 163, "time_elapsed": 880507, "internal_node_id": "0.0-117.0-1.0"}}, {"uniqueid": "MTK0922:3K5TEWLKGWIVG038GLCZNSARIHWVIK", "current_trial": 164, "dateTime": 1512883289229, "trialdata": {"rt": -1, "stimulus": "<p id=\"stim\">8</p>", "key_press": -1, "trial_type": "single-stim", "trial_index": 164, "time_elapsed": 881508, "internal_node_id": "0.0-117.0-2.0"}}, {"uniqueid": "MTK0922:3K5TEWLKGWIVG038GLCZNSARIHWVIK", "current_trial": 165, "dateTime": 1512883290230, "trialdata": {"rt": -1, "stimulus": "<p id=\"stim\">7</p>", "key_press": -1, "trial_type": "single-stim", "trial_index": 165, "time_elapsed": 882509, "internal_node_id": "0.0-117.0-3.0"}}, {"uniqueid": "MTK0922:3K5TEWLKGWIVG038GLCZNSARIHWVIK", "current_trial": 166, "dateTime": 1512883291239, "trialdata": {"rt": -1, "stimulus": "<p id=\"stim\">6</p>", "key_press": -1, "trial_type": "single-stim", "trial_index": 166, "time_elapsed": 883518, "internal_node_id": "0.0-117.0-4.0"}}, {"uniqueid": "MTK0922:3K5TEWLKGWIVG038GLCZNSARIHWVIK", "current_trial": 167, "dateTime": 1512883292240, "trialdata": {"rt": -1, "stimulus": "<p id=\"stim\">5</p>", "key_press": -1, "trial_type": "single-stim", "trial_index": 167, "time_elapsed": 884519, "internal_node_id": "0.0-117.0-5.0"}}, {"uniqueid": "MTK0922:3K5TEWLKGWIVG038GLCZNSARIHWVIK", "current_trial": 168, "dateTime": 1512883293245, "trialdata": {"rt": -1, "stimulus": "<p id=\"stim\">4</p>", "key_press": -1, "trial_type": "single-stim", "trial_index": 168, "time_elapsed": 885524, "internal_node_id": "0.0-117.0-6.0"}}, {"uniqueid": "MTK0922:3K5TEWLKGWIVG038GLCZNSARIHWVIK", "current_trial": 169, "dateTime": 1512883294245, "trialdata": {"rt": -1, "stimulus": "<p id=\"stim\">3</p>", "key_press": -1, "trial_type": "single-stim", "trial_index": 169, "time_elapsed": 886524, "internal_node_id": "0.0-117.0-7.0"}}, {"uniqueid": "MTK0922:3K5TEWLKGWIVG038GLCZNSARIHWVIK", "current_trial": 170, "dateTime": 1512883295247, "trialdata": {"rt": -1, "stimulus": "<p id=\"stim\">2</p>", "key_press": -1, "trial_type": "single-stim", "trial_index": 170, "time_elapsed": 887526, "internal_node_id": "0.0-117.0-8.0"}}, {"uniqueid": "MTK0922:3K5TEWLKGWIVG038GLCZNSARIHWVIK", "current_trial": 171, "dateTime": 1512883296252, "trialdata": {"rt": -1, "stimulus": "<p id=\"stim\">1</p>", "key_press": -1, "trial_type": "single-stim", "trial_index": 171, "time_elapsed": 888531, "internal_node_id": "0.0-117.0-9.0"}}, {"uniqueid": "MTK0922:3K5TEWLKGWIVG038GLCZNSARIHWVIK", "current_trial": 172, "dateTime": 1512883297759, "trialdata": {"rt": -1, "stimulus": "<p id=\"stim\">+</p>", "key_press": -1, "type": "FIXATION", "trial_type": "single-stim", "trial_index": 172, "time_elapsed": 890038, "internal_node_id": "0.0-118.0-0.0"}}, {"uniqueid": "MTK0922:3K5TEWLKGWIVG038GLCZNSARIHWVIK", "current_trial": 173, "dateTime": 1512883299372, "trialdata": {"rt": -1, "stimulus": "<p id=\"stim\">MONSTER</p>", "key_press": -1, "type": "PRES_VIS", "word": "monster", "wordID": 911, "conditions": [24, 1600, "v", 12000], "trial": 5, "serialpos": 0, "trial_type": "single-stim", "trial_index": 173, "time_elapsed": 891643, "internal_node_id": "0.0-119.0"}}, {"uniqueid": "MTK0922:3K5TEWLKGWIVG038GLCZNSARIHWVIK", "current_trial": 174, "dateTime": 1512883301824, "trialdata": {"rt": -1, "stimulus": "<p id=\"stim\">CHEST</p>", "key_press": -1, "type": "PRES_VIS", "word": "chest", "wordID": 294, "conditions": [24, 1600, "v", 12000], "trial": 5, "serialpos": 1, "trial_type": "single-stim", "trial_index": 174, "time_elapsed": 894103, "internal_node_id": "0.0-120.0"}}, {"uniqueid": "MTK0922:3K5TEWLKGWIVG038GLCZNSARIHWVIK", "current_trial": 175, "dateTime": 1512883304496, "trialdata": {"rt": -1, "stimulus": "<p id=\"stim\">STOMACH</p>", "key_press": -1, "type": "PRES_VIS", "word": "stomach", "wordID": 1383, "conditions": [24, 1600, "v", 12000], "trial": 5, "serialpos": 2, "trial_type": "single-stim", "trial_index": 175, "time_elapsed": 896775, "internal_node_id": "0.0-121.0"}}, {"uniqueid": "MTK0922:3K5TEWLKGWIVG038GLCZNSARIHWVIK", "current_trial": 176, "dateTime": 1512883307081, "trialdata": {"rt": -1, "stimulus": "<p id=\"stim\">MACHINE</p>", "key_press": -1, "type": "PRES_VIS", "word": "machine", "wordID": 851, "conditions": [24, 1600, "v", 12000], "trial": 5, "serialpos": 3, "trial_type": "single-stim", "trial_index": 176, "time_elapsed": 899360, "internal_node_id": "0.0-122.0"}}, {"uniqueid": "MTK0922:3K5TEWLKGWIVG038GLCZNSARIHWVIK", "current_trial": 177, "dateTime": 1512883309813, "trialdata": {"rt": -1, "stimulus": "<p id=\"stim\">BLOCKADE</p>", "key_press": -1, "type": "PRES_VIS", "word": "blockade", "wordID": 136, "conditions": [24, 1600, "v", 12000], "trial": 5, "serialpos": 4, "trial_type": "single-stim", "trial_index": 177, "time_elapsed": 902092, "internal_node_id": "0.0-123.0"}}, {"uniqueid": "MTK0922:3K5TEWLKGWIVG038GLCZNSARIHWVIK", "current_trial": 178, "dateTime": 1512883312401, "trialdata": {"rt": -1, "stimulus": "<p id=\"stim\">BEAST</p>", "key_press": -1, "type": "PRES_VIS", "word": "beast", "wordID": 107, "conditions": [24, 1600, "v", 12000], "trial": 5, "serialpos": 5, "trial_type": "single-stim", "trial_index": 178, "time_elapsed": 904680, "internal_node_id": "0.0-124.0"}}, {"uniqueid": "MTK0922:3K5TEWLKGWIVG038GLCZNSARIHWVIK", "current_trial": 179, "dateTime": 1512883315121, "trialdata": {"rt": -1, "stimulus": "<p id=\"stim\">DRINK</p>", "key_press": -1, "type": "PRES_VIS", "word": "drink", "wordID": 497, "conditions": [24, 1600, "v", 12000], "trial": 5, "serialpos": 6, "trial_type": "single-stim", "trial_index": 179, "time_elapsed": 907400, "internal_node_id": "0.0-125.0"}}, {"uniqueid": "MTK0922:3K5TEWLKGWIVG038GLCZNSARIHWVIK", "current_trial": 180, "dateTime": 1512883317578, "trialdata": {"rt": -1, "stimulus": "<p id=\"stim\">BLENDER</p>", "key_press": -1, "type": "PRES_VIS", "word": "blender", "wordID": 135, "conditions": [24, 1600, "v", 12000], "trial": 5, "serialpos": 7, "trial_type": "single-stim", "trial_index": 180, "time_elapsed": 909857, "internal_node_id": "0.0-126.0"}}, {"uniqueid": "MTK0922:3K5TEWLKGWIVG038GLCZNSARIHWVIK", "current_trial": 181, "dateTime": 1512883320030, "trialdata": {"rt": -1, "stimulus": "<p id=\"stim\">PAPER</p>", "key_press": -1, "type": "PRES_VIS", "word": "paper", "wordID": 1010, "conditions": [24, 1600, "v", 12000], "trial": 5, "serialpos": 8, "trial_type": "single-stim", "trial_index": 181, "time_elapsed": 912309, "internal_node_id": "0.0-127.0"}}, {"uniqueid": "MTK0922:3K5TEWLKGWIVG038GLCZNSARIHWVIK", "current_trial": 182, "dateTime": 1512883322607, "trialdata": {"rt": -1, "stimulus": "<p id=\"stim\">ANTLER</p>", "key_press": -1, "type": "PRES_VIS", "word": "antler", "wordID": 28, "conditions": [24, 1600, "v", 12000], "trial": 5, "serialpos": 9, "trial_type": "single-stim", "trial_index": 182, "time_elapsed": 914886, "internal_node_id": "0.0-128.0"}}, {"uniqueid": "MTK0922:3K5TEWLKGWIVG038GLCZNSARIHWVIK", "current_trial": 183, "dateTime": 1512883325075, "trialdata": {"rt": -1, "stimulus": "<p id=\"stim\">ROD</p>", "key_press": -1, "type": "PRES_VIS", "word": "rod", "wordID": 1202, "conditions": [24, 1600, "v", 12000], "trial": 5, "serialpos": 10, "trial_type": "single-stim", "trial_index": 183, "time_elapsed": 917354, "internal_node_id": "0.0-129.0"}}, {"uniqueid": "MTK0922:3K5TEWLKGWIVG038GLCZNSARIHWVIK", "current_trial": 184, "dateTime": 1512883327521, "trialdata": {"rt": -1, "stimulus": "<p id=\"stim\">RADISH</p>", "key_press": -1, "type": "PRES_VIS", "word": "radish", "wordID": 1157, "conditions": [24, 1600, "v", 12000], "trial": 5, "serialpos": 11, "trial_type": "single-stim", "trial_index": 184, "time_elapsed": 919800, "internal_node_id": "0.0-130.0"}}, {"uniqueid": "MTK0922:3K5TEWLKGWIVG038GLCZNSARIHWVIK", "current_trial": 185, "dateTime": 1512883330104, "trialdata": {"rt": -1, "stimulus": "<p id=\"stim\">TURTLE</p>", "key_press": -1, "type": "PRES_VIS", "word": "turtle", "wordID": 1521, "conditions": [24, 1600, "v", 12000], "trial": 5, "serialpos": 12, "trial_type": "single-stim", "trial_index": 185, "time_elapsed": 922383, "internal_node_id": "0.0-131.0"}}, {"uniqueid": "MTK0922:3K5TEWLKGWIVG038GLCZNSARIHWVIK", "current_trial": 186, "dateTime": 1512883332719, "trialdata": {"rt": -1, "stimulus": "<p id=\"stim\">HUMAN</p>", "key_press": -1, "type": "PRES_VIS", "word": "human", "wordID": 725, "conditions": [24, 1600, "v", 12000], "trial": 5, "serialpos": 13, "trial_type": "single-stim", "trial_index": 186, "time_elapsed": 924998, "internal_node_id": "0.0-132.0"}}, {"uniqueid": "MTK0922:3K5TEWLKGWIVG038GLCZNSARIHWVIK", "current_trial": 187, "dateTime": 1512883335363, "trialdata": {"rt": -1, "stimulus": "<p id=\"stim\">BRANDY</p>", "key_press": -1, "type": "PRES_VIS", "word": "brandy", "wordID": 168, "conditions": [24, 1600, "v", 12000], "trial": 5, "serialpos": 14, "trial_type": "single-stim", "trial_index": 187, "time_elapsed": 927639, "internal_node_id": "0.0-133.0"}}, {"uniqueid": "MTK0922:3K5TEWLKGWIVG038GLCZNSARIHWVIK", "current_trial": 188, "dateTime": 1512883337884, "trialdata": {"rt": -1, "stimulus": "<p id=\"stim\">BATHTUB</p>", "key_press": -1, "type": "PRES_VIS", "word": "bathtub", "wordID": 99, "conditions": [24, 1600, "v", 12000], "trial": 5, "serialpos": 15, "trial_type": "single-stim", "trial_index": 188, "time_elapsed": 930163, "internal_node_id": "0.0-134.0"}}, {"uniqueid": "MTK0922:3K5TEWLKGWIVG038GLCZNSARIHWVIK", "current_trial": 189, "dateTime": 1512883340558, "trialdata": {"rt": -1, "stimulus": "<p id=\"stim\">CHILD</p>", "key_press": -1, "type": "PRES_VIS", "word": "child", "wordID": 298, "conditions": [24, 1600, "v", 12000], "trial": 5, "serialpos": 16, "trial_type": "single-stim", "trial_index": 189, "time_elapsed": 932837, "internal_node_id": "0.0-135.0"}}, {"uniqueid": "MTK0922:3K5TEWLKGWIVG038GLCZNSARIHWVIK", "current_trial": 190, "dateTime": 1512883343107, "trialdata": {"rt": -1, "stimulus": "<p id=\"stim\">GLOBE</p>", "key_press": -1, "type": "PRES_VIS", "word": "globe", "wordID": 640, "conditions": [24, 1600, "v", 12000], "trial": 5, "serialpos": 17, "trial_type": "single-stim", "trial_index": 190, "time_elapsed": 935386, "internal_node_id": "0.0-136.0"}}, {"uniqueid": "MTK0922:3K5TEWLKGWIVG038GLCZNSARIHWVIK", "current_trial": 191, "dateTime": 1512883345572, "trialdata": {"rt": -1, "stimulus": "<p id=\"stim\">CASHEW</p>", "key_press": -1, "type": "PRES_VIS", "word": "cashew", "wordID": 252, "conditions": [24, 1600, "v", 12000], "trial": 5, "serialpos": 18, "trial_type": "single-stim", "trial_index": 191, "time_elapsed": 937851, "internal_node_id": "0.0-137.0"}}, {"uniqueid": "MTK0922:3K5TEWLKGWIVG038GLCZNSARIHWVIK", "current_trial": 192, "dateTime": 1512883348291, "trialdata": {"rt": -1, "stimulus": "<p id=\"stim\">FILM</p>", "key_press": -1, "type": "PRES_VIS", "word": "film", "wordID": 564, "conditions": [24, 1600, "v", 12000], "trial": 5, "serialpos": 19, "trial_type": "single-stim", "trial_index": 192, "time_elapsed": 940569, "internal_node_id": "0.0-138.0"}}, {"uniqueid": "MTK0922:3K5TEWLKGWIVG038GLCZNSARIHWVIK", "current_trial": 193, "dateTime": 1512883350940, "trialdata": {"rt": -1, "stimulus": "<p id=\"stim\">ACTOR</p>", "key_press": -1, "type": "PRES_VIS", "word": "actor", "wordID": 4, "conditions": [24, 1600, "v", 12000], "trial": 5, "serialpos": 20, "trial_type": "single-stim", "trial_index": 193, "time_elapsed": 943215, "internal_node_id": "0.0-139.0"}}, {"uniqueid": "MTK0922:3K5TEWLKGWIVG038GLCZNSARIHWVIK", "current_trial": 194, "dateTime": 1512883353519, "trialdata": {"rt": -1, "stimulus": "<p id=\"stim\">FIREPLACE</p>", "key_press": -1, "type": "PRES_VIS", "word": "fireplace", "wordID": 569, "conditions": [24, 1600, "v", 12000], "trial": 5, "serialpos": 21, "trial_type": "single-stim", "trial_index": 194, "time_elapsed": 945798, "internal_node_id": "0.0-140.0"}}, {"uniqueid": "MTK0922:3K5TEWLKGWIVG038GLCZNSARIHWVIK", "current_trial": 195, "dateTime": 1512883356119, "trialdata": {"rt": -1, "stimulus": "<p id=\"stim\">DOLPHIN</p>", "key_press": -1, "type": "PRES_VIS", "word": "dolphin", "wordID": 482, "conditions": [24, 1600, "v", 12000], "trial": 5, "serialpos": 22, "trial_type": "single-stim", "trial_index": 195, "time_elapsed": 948397, "internal_node_id": "0.0-141.0"}}, {"uniqueid": "MTK0922:3K5TEWLKGWIVG038GLCZNSARIHWVIK", "current_trial": 196, "dateTime": 1512883358588, "trialdata": {"rt": -1, "stimulus": "<p id=\"stim\">JURY</p>", "key_press": -1, "type": "PRES_VIS", "word": "jury", "wordID": 765, "conditions": [24, 1600, "v", 12000], "trial": 5, "serialpos": 23, "trial_type": "single-stim", "trial_index": 196, "time_elapsed": 950867, "internal_node_id": "0.0-142.0"}}, {"uniqueid": "MTK0922:3K5TEWLKGWIVG038GLCZNSARIHWVIK", "current_trial": 197, "dateTime": 1512883360744, "trialdata": {"rt": -1, "stimulus": "", "key_press": -1, "type": "PRE_RECALL_DELAY", "trial_type": "single-stim", "trial_index": 197, "time_elapsed": 953023, "internal_node_id": "0.0-143.0-0.0"}}, {"uniqueid": "MTK0922:3K5TEWLKGWIVG038GLCZNSARIHWVIK", "current_trial": 198, "dateTime": 1512883361249, "trialdata": {"rt": -1000, "stimulus": "/static/audio/400Hz.wav", "key_press": -1, "type": "PRE_RECALL_ALERT", "trial_type": "single-audio", "trial_index": 198, "time_elapsed": 953527, "internal_node_id": "0.0-144.0"}}, {"uniqueid": "MTK0922:3K5TEWLKGWIVG038GLCZNSARIHWVIK", "current_trial": 199, "dateTime": 1512883421317, "trialdata": {"rt": [3536, 6011, 8671, 14315], "recwords": ["globe", "actor", "cashew", "fireplace"], "type": "FREE_RECALL", "conditions": [24, 1600, "v", 12000], "trial": 5, "trial_type": "free-recall", "trial_index": 199, "time_elapsed": 1013544, "internal_node_id": "0.0-145.0-0.0"}}, {"uniqueid": "MTK0922:3K5TEWLKGWIVG038GLCZNSARIHWVIK", "current_trial": 200, "dateTime": 1512883434992, "trialdata": {"rt": 11668, "key_press": 32, "type": "INSTRUCTIONS", "trial_type": "text", "trial_index": 200, "time_elapsed": 1027267, "internal_node_id": "0.0-146.0"}}, {"uniqueid": "MTK0922:3K5TEWLKGWIVG038GLCZNSARIHWVIK", "current_trial": 201, "dateTime": 1512883449007, "trialdata": {"rt": [8166], "responses": ["12"], "num1": [7, 5], "num2": [2, 8], "num3": [3, 8], "type": "DISTRACTOR", "conditions": [12, 1600, "a", 12000], "trial": 6, "trial_type": "math-distractor", "trial_index": 201, "time_elapsed": 1041286, "internal_node_id": "0.0-147.0"}}, {"uniqueid": "MTK0922:3K5TEWLKGWIVG038GLCZNSARIHWVIK", "current_trial": 202, "dateTime": 1512883452008, "trialdata": {"rt": -1, "stimulus": "<p id=\"stim\">10</p>", "key_press": -1, "trial_type": "single-stim", "trial_index": 202, "time_elapsed": 1044287, "internal_node_id": "0.0-148.0-0.0"}}, {"uniqueid": "MTK0922:3K5TEWLKGWIVG038GLCZNSARIHWVIK", "current_trial": 203, "dateTime": 1512883453015, "trialdata": {"rt": -1, "stimulus": "<p id=\"stim\">9</p>", "key_press": -1, "trial_type": "single-stim", "trial_index": 203, "time_elapsed": 1045294, "internal_node_id": "0.0-148.0-1.0"}}, {"uniqueid": "MTK0922:3K5TEWLKGWIVG038GLCZNSARIHWVIK", "current_trial": 204, "dateTime": 1512883454020, "trialdata": {"rt": -1, "stimulus": "<p id=\"stim\">8</p>", "key_press": -1, "trial_type": "single-stim", "trial_index": 204, "time_elapsed": 1046299, "internal_node_id": "0.0-148.0-2.0"}}, {"uniqueid": "MTK0922:3K5TEWLKGWIVG038GLCZNSARIHWVIK", "current_trial": 205, "dateTime": 1512883455026, "trialdata": {"rt": -1, "stimulus": "<p id=\"stim\">7</p>", "key_press": -1, "trial_type": "single-stim", "trial_index": 205, "time_elapsed": 1047305, "internal_node_id": "0.0-148.0-3.0"}}, {"uniqueid": "MTK0922:3K5TEWLKGWIVG038GLCZNSARIHWVIK", "current_trial": 206, "dateTime": 1512883456033, "trialdata": {"rt": -1, "stimulus": "<p id=\"stim\">6</p>", "key_press": -1, "trial_type": "single-stim", "trial_index": 206, "time_elapsed": 1048312, "internal_node_id": "0.0-148.0-4.0"}}, {"uniqueid": "MTK0922:3K5TEWLKGWIVG038GLCZNSARIHWVIK", "current_trial": 207, "dateTime": 1512883457044, "trialdata": {"rt": -1, "stimulus": "<p id=\"stim\">5</p>", "key_press": -1, "trial_type": "single-stim", "trial_index": 207, "time_elapsed": 1049319, "internal_node_id": "0.0-148.0-5.0"}}, {"uniqueid": "MTK0922:3K5TEWLKGWIVG038GLCZNSARIHWVIK", "current_trial": 208, "dateTime": 1512883458045, "trialdata": {"rt": -1, "stimulus": "<p id=\"stim\">4</p>", "key_press": -1, "trial_type": "single-stim", "trial_index": 208, "time_elapsed": 1050324, "internal_node_id": "0.0-148.0-6.0"}}, {"uniqueid": "MTK0922:3K5TEWLKGWIVG038GLCZNSARIHWVIK", "current_trial": 209, "dateTime": 1512883459053, "trialdata": {"rt": -1, "stimulus": "<p id=\"stim\">3</p>", "key_press": -1, "trial_type": "single-stim", "trial_index": 209, "time_elapsed": 1051332, "internal_node_id": "0.0-148.0-7.0"}}, {"uniqueid": "MTK0922:3K5TEWLKGWIVG038GLCZNSARIHWVIK", "current_trial": 210, "dateTime": 1512883460058, "trialdata": {"rt": -1, "stimulus": "<p id=\"stim\">2</p>", "key_press": -1, "trial_type": "single-stim", "trial_index": 210, "time_elapsed": 1052337, "internal_node_id": "0.0-148.0-8.0"}}, {"uniqueid": "MTK0922:3K5TEWLKGWIVG038GLCZNSARIHWVIK", "current_trial": 211, "dateTime": 1512883461058, "trialdata": {"rt": -1, "stimulus": "<p id=\"stim\">1</p>", "key_press": -1, "trial_type": "single-stim", "trial_index": 211, "time_elapsed": 1053337, "internal_node_id": "0.0-148.0-9.0"}}, {"uniqueid": "MTK0922:3K5TEWLKGWIVG038GLCZNSARIHWVIK", "current_trial": 212, "dateTime": 1512883462567, "trialdata": {"rt": -1, "stimulus": "<p id=\"stim\">+</p>", "key_press": -1, "type": "FIXATION", "trial_type": "single-stim", "trial_index": 212, "time_elapsed": 1054845, "internal_node_id": "0.0-149.0-0.0"}}, {"uniqueid": "MTK0922:3K5TEWLKGWIVG038GLCZNSARIHWVIK", "current_trial": 213, "dateTime": 1512883465076, "trialdata": {"rt": -1000, "stimulus": "/static/audio/wordpool/SCOTCH.wav", "key_press": -1, "type": "PRES_AUD", "word": "scotch", "wordID": 1250, "conditions": [12, 1600, "a", 12000], "trial": 6, "serialpos": 0, "trial_type": "single-audio", "trial_index": 213, "time_elapsed": 1057354, "internal_node_id": "0.0-150.0"}}, {"uniqueid": "MTK0922:3K5TEWLKGWIVG038GLCZNSARIHWVIK", "current_trial": 214, "dateTime": 1512883467782, "trialdata": {"rt": -1000, "stimulus": "/static/audio/wordpool/KNAPSACK.wav", "key_press": -1, "type": "PRES_AUD", "word": "knapsack", "wordID": 782, "conditions": [12, 1600, "a", 12000], "trial": 6, "serialpos": 1, "trial_type": "single-audio", "trial_index": 214, "time_elapsed": 1060061, "internal_node_id": "0.0-151.0"}}, {"uniqueid": "MTK0922:3K5TEWLKGWIVG038GLCZNSARIHWVIK", "current_trial": 215, "dateTime": 1512883470208, "trialdata": {"rt": -1000, "stimulus": "/static/audio/wordpool/MILK.wav", "key_press": -1, "type": "PRES_AUD", "word": "milk", "wordID": 894, "conditions": [12, 1600, "a", 12000], "trial": 6, "serialpos": 2, "trial_type": "single-audio", "trial_index": 215, "time_elapsed": 1062486, "internal_node_id": "0.0-152.0"}}, {"uniqueid": "MTK0922:3K5TEWLKGWIVG038GLCZNSARIHWVIK", "current_trial": 216, "dateTime": 1512883472826, "trialdata": {"rt": -1000, "stimulus": "/static/audio/wordpool/GARLIC.wav", "key_press": -1, "type": "PRES_AUD", "word": "garlic", "wordID": 623, "conditions": [12, 1600, "a", 12000], "trial": 6, "serialpos": 3, "trial_type": "single-audio", "trial_index": 216, "time_elapsed": 1065104, "internal_node_id": "0.0-153.0"}}, {"uniqueid": "MTK0922:3K5TEWLKGWIVG038GLCZNSARIHWVIK", "current_trial": 217, "dateTime": 1512883475566, "trialdata": {"rt": -1000, "stimulus": "/static/audio/wordpool/PASSAGE.wav", "key_press": -1, "type": "PRES_AUD", "word": "passage", "wordID": 1018, "conditions": [12, 1600, "a", 12000], "trial": 6, "serialpos": 4, "trial_type": "single-audio", "trial_index": 217, "time_elapsed": 1067844, "internal_node_id": "0.0-154.0"}}, {"uniqueid": "MTK0922:3K5TEWLKGWIVG038GLCZNSARIHWVIK", "current_trial": 218, "dateTime": 1512883478244, "trialdata": {"rt": -1000, "stimulus": "/static/audio/wordpool/DOUGHNUT.wav", "key_press": -1, "type": "PRES_AUD", "word": "doughnut", "wordID": 489, "conditions": [12, 1600, "a", 12000], "trial": 6, "serialpos": 5, "trial_type": "single-audio", "trial_index": 218, "time_elapsed": 1070523, "internal_node_id": "0.0-155.0"}}, {"uniqueid": "MTK0922:3K5TEWLKGWIVG038GLCZNSARIHWVIK", "current_trial": 219, "dateTime": 1512883480851, "trialdata": {"rt": -1000, "stimulus": "/static/audio/wordpool/NURSE.wav", "key_press": -1, "type": "PRES_AUD", "word": "nurse", "wordID": 962, "conditions": [12, 1600, "a", 12000], "trial": 6, "serialpos": 6, "trial_type": "single-audio", "trial_index": 219, "time_elapsed": 1073128, "internal_node_id": "0.0-156.0"}}, {"uniqueid": "MTK0922:3K5TEWLKGWIVG038GLCZNSARIHWVIK", "current_trial": 220, "dateTime": 1512883483540, "trialdata": {"rt": -1000, "stimulus": "/static/audio/wordpool/BRIEFCASE.wav", "key_press": -1, "type": "PRES_AUD", "word": "briefcase", "wordID": 174, "conditions": [12, 1600, "a", 12000], "trial": 6, "serialpos": 7, "trial_type": "single-audio", "trial_index": 220, "time_elapsed": 1075818, "internal_node_id": "0.0-157.0"}}, {"uniqueid": "MTK0922:3K5TEWLKGWIVG038GLCZNSARIHWVIK", "current_trial": 221, "dateTime": 1512883485988, "trialdata": {"rt": -1000, "stimulus": "/static/audio/wordpool/POISON.wav", "key_press": -1, "type": "PRES_AUD", "word": "poison", "wordID": 1095, "conditions": [12, 1600, "a", 12000], "trial": 6, "serialpos": 8, "trial_type": "single-audio", "trial_index": 221, "time_elapsed": 1078266, "internal_node_id": "0.0-158.0"}}, {"uniqueid": "MTK0922:3K5TEWLKGWIVG038GLCZNSARIHWVIK", "current_trial": 222, "dateTime": 1512883488727, "trialdata": {"rt": -1000, "stimulus": "/static/audio/wordpool/PADDLE.wav", "key_press": -1, "type": "PRES_AUD", "word": "paddle", "wordID": 999, "conditions": [12, 1600, "a", 12000], "trial": 6, "serialpos": 9, "trial_type": "single-audio", "trial_index": 222, "time_elapsed": 1081006, "internal_node_id": "0.0-159.0"}}, {"uniqueid": "MTK0922:3K5TEWLKGWIVG038GLCZNSARIHWVIK", "current_trial": 223, "dateTime": 1512883491165, "trialdata": {"rt": -1000, "stimulus": "/static/audio/wordpool/LEG.wav", "key_press": -1, "type": "PRES_AUD", "word": "leg", "wordID": 808, "conditions": [12, 1600, "a", 12000], "trial": 6, "serialpos": 10, "trial_type": "single-audio", "trial_index": 223, "time_elapsed": 1083443, "internal_node_id": "0.0-160.0"}}, {"uniqueid": "MTK0922:3K5TEWLKGWIVG038GLCZNSARIHWVIK", "current_trial": 224, "dateTime": 1512883493585, "trialdata": {"rt": -1000, "stimulus": "/static/audio/wordpool/SHOULDER.wav", "key_press": -1, "type": "PRES_AUD", "word": "shoulder", "wordID": 1293, "conditions": [12, 1600, "a", 12000], "trial": 6, "serialpos": 11, "trial_type": "single-audio", "trial_index": 224, "time_elapsed": 1085864, "internal_node_id": "0.0-161.0"}}, {"uniqueid": "MTK0922:3K5TEWLKGWIVG038GLCZNSARIHWVIK", "current_trial": 225, "dateTime": 1512883494902, "trialdata": {"rt": -1, "stimulus": "", "key_press": -1, "type": "PRE_RECALL_DELAY", "trial_type": "single-stim", "trial_index": 225, "time_elapsed": 1087180, "internal_node_id": "0.0-162.0-0.0"}}, {"uniqueid": "MTK0922:3K5TEWLKGWIVG038GLCZNSARIHWVIK", "current_trial": 226, "dateTime": 1512883495408, "trialdata": {"rt": -1000, "stimulus": "/static/audio/400Hz.wav", "key_press": -1, "type": "PRE_RECALL_ALERT", "trial_type": "single-audio", "trial_index": 226, "time_elapsed": 1087687, "internal_node_id": "0.0-163.0"}}, {"uniqueid": "MTK0922:3K5TEWLKGWIVG038GLCZNSARIHWVIK", "current_trial": 227, "dateTime": 1512883555453, "trialdata": {"rt": [3634, 8001, 10616], "recwords": ["scotch", "briefcase", "package"], "type": "FREE_RECALL", "conditions": [12, 1600, "a", 12000], "trial": 6, "trial_type": "free-recall", "trial_index": 227, "time_elapsed": 1147704, "internal_node_id": "0.0-164.0-0.0"}}, {"uniqueid": "MTK0922:3K5TEWLKGWIVG038GLCZNSARIHWVIK", "current_trial": 228, "dateTime": 1512883573614, "trialdata": {"rt": 16159, "key_press": 32, "type": "INSTRUCTIONS", "trial_type": "text", "trial_index": 228, "time_elapsed": 1165893, "internal_node_id": "0.0-165.0"}}, {"uniqueid": "MTK0922:3K5TEWLKGWIVG038GLCZNSARIHWVIK", "current_trial": 229, "dateTime": 1512883599630, "trialdata": {"rt": [4952, 10902, 14578], "responses": ["13", "12", "5"], "num1": [3, 3, 1, 7], "num2": [5, 7, 2, 1], "num3": [5, 2, 2, 9], "type": "DISTRACTOR", "conditions": [12, 1600, "a", 24000], "trial": 7, "trial_type": "math-distractor", "trial_index": 229, "time_elapsed": 1191909, "internal_node_id": "0.0-166.0"}}, {"uniqueid": "MTK0922:3K5TEWLKGWIVG038GLCZNSARIHWVIK", "current_trial": 230, "dateTime": 1512883602635, "trialdata": {"rt": -1, "stimulus": "<p id=\"stim\">10</p>", "key_press": -1, "trial_type": "single-stim", "trial_index": 230, "time_elapsed": 1194914, "internal_node_id": "0.0-167.0-0.0"}}, {"uniqueid": "MTK0922:3K5TEWLKGWIVG038GLCZNSARIHWVIK", "current_trial": 231, "dateTime": 1512883603639, "trialdata": {"rt": -1, "stimulus": "<p id=\"stim\">9</p>", "key_press": -1, "trial_type": "single-stim", "trial_index": 231, "time_elapsed": 1195918, "internal_node_id": "0.0-167.0-1.0"}}, {"uniqueid": "MTK0922:3K5TEWLKGWIVG038GLCZNSARIHWVIK", "current_trial": 232, "dateTime": 1512883604644, "trialdata": {"rt": -1, "stimulus": "<p id=\"stim\">8</p>", "key_press": -1, "trial_type": "single-stim", "trial_index": 232, "time_elapsed": 1196923, "internal_node_id": "0.0-167.0-2.0"}}, {"uniqueid": "MTK0922:3K5TEWLKGWIVG038GLCZNSARIHWVIK", "current_trial": 233, "dateTime": 1512883605650, "trialdata": {"rt": -1, "stimulus": "<p id=\"stim\">7</p>", "key_press": -1, "trial_type": "single-stim", "trial_index": 233, "time_elapsed": 1197929, "internal_node_id": "0.0-167.0-3.0"}}, {"uniqueid": "MTK0922:3K5TEWLKGWIVG038GLCZNSARIHWVIK", "current_trial": 234, "dateTime": 1512883606653, "trialdata": {"rt": -1, "stimulus": "<p id=\"stim\">6</p>", "key_press": -1, "trial_type": "single-stim", "trial_index": 234, "time_elapsed": 1198932, "internal_node_id": "0.0-167.0-4.0"}}, {"uniqueid": "MTK0922:3K5TEWLKGWIVG038GLCZNSARIHWVIK", "current_trial": 235, "dateTime": 1512883607662, "trialdata": {"rt": -1, "stimulus": "<p id=\"stim\">5</p>", "key_press": -1, "trial_type": "single-stim", "trial_index": 235, "time_elapsed": 1199941, "internal_node_id": "0.0-167.0-5.0"}}, {"uniqueid": "MTK0922:3K5TEWLKGWIVG038GLCZNSARIHWVIK", "current_trial": 236, "dateTime": 1512883608665, "trialdata": {"rt": -1, "stimulus": "<p id=\"stim\">4</p>", "key_press": -1, "trial_type": "single-stim", "trial_index": 236, "time_elapsed": 1200944, "internal_node_id": "0.0-167.0-6.0"}}, {"uniqueid": "MTK0922:3K5TEWLKGWIVG038GLCZNSARIHWVIK", "current_trial": 237, "dateTime": 1512883609672, "trialdata": {"rt": -1, "stimulus": "<p id=\"stim\">3</p>", "key_press": -1, "trial_type": "single-stim", "trial_index": 237, "time_elapsed": 1201951, "internal_node_id": "0.0-167.0-7.0"}}, {"uniqueid": "MTK0922:3K5TEWLKGWIVG038GLCZNSARIHWVIK", "current_trial": 238, "dateTime": 1512883610678, "trialdata": {"rt": -1, "stimulus": "<p id=\"stim\">2</p>", "key_press": -1, "trial_type": "single-stim", "trial_index": 238, "time_elapsed": 1202957, "internal_node_id": "0.0-167.0-8.0"}}, {"uniqueid": "MTK0922:3K5TEWLKGWIVG038GLCZNSARIHWVIK", "current_trial": 239, "dateTime": 1512883611681, "trialdata": {"rt": -1, "stimulus": "<p id=\"stim\">1</p>", "key_press": -1, "trial_type": "single-stim", "trial_index": 239, "time_elapsed": 1203960, "internal_node_id": "0.0-167.0-9.0"}}, {"uniqueid": "MTK0922:3K5TEWLKGWIVG038GLCZNSARIHWVIK", "current_trial": 240, "dateTime": 1512883613189, "trialdata": {"rt": -1, "stimulus": "<p id=\"stim\">+</p>", "key_press": -1, "type": "FIXATION", "trial_type": "single-stim", "trial_index": 240, "time_elapsed": 1205464, "internal_node_id": "0.0-168.0-0.0"}}, {"uniqueid": "MTK0922:3K5TEWLKGWIVG038GLCZNSARIHWVIK", "current_trial": 241, "dateTime": 1512883615932, "trialdata": {"rt": -1000, "stimulus": "/static/audio/wordpool/SUMMIT.wav", "key_press": -1, "type": "PRES_AUD", "word": "summit", "wordID": 1404, "conditions": [12, 1600, "a", 24000], "trial": 7, "serialpos": 0, "trial_type": "single-audio", "trial_index": 241, "time_elapsed": 1208210, "internal_node_id": "0.0-169.0"}}, {"uniqueid": "MTK0922:3K5TEWLKGWIVG038GLCZNSARIHWVIK", "current_trial": 242, "dateTime": 1512883618571, "trialdata": {"rt": -1000, "stimulus": "/static/audio/wordpool/CLIMBER.wav", "key_press": -1, "type": "PRES_AUD", "word": "climber", "wordID": 322, "conditions": [12, 1600, "a", 24000], "trial": 7, "serialpos": 1, "trial_type": "single-audio", "trial_index": 242, "time_elapsed": 1210850, "internal_node_id": "0.0-170.0"}}, {"uniqueid": "MTK0922:3K5TEWLKGWIVG038GLCZNSARIHWVIK", "current_trial": 243, "dateTime": 1512883621300, "trialdata": {"rt": -1000, "stimulus": "/static/audio/wordpool/GIRL.wav", "key_press": -1, "type": "PRES_AUD", "word": "girl", "wordID": 636, "conditions": [12, 1600, "a", 24000], "trial": 7, "serialpos": 2, "trial_type": "single-audio", "trial_index": 243, "time_elapsed": 1213578, "internal_node_id": "0.0-171.0"}}, {"uniqueid": "MTK0922:3K5TEWLKGWIVG038GLCZNSARIHWVIK", "current_trial": 244, "dateTime": 1512883623748, "trialdata": {"rt": -1000, "stimulus": "/static/audio/wordpool/COUCH.wav", "key_press": -1, "type": "PRES_AUD", "word": "couch", "wordID": 385, "conditions": [12, 1600, "a", 24000], "trial": 7, "serialpos": 3, "trial_type": "single-audio", "trial_index": 244, "time_elapsed": 1216026, "internal_node_id": "0.0-172.0"}}, {"uniqueid": "MTK0922:3K5TEWLKGWIVG038GLCZNSARIHWVIK", "current_trial": 245, "dateTime": 1512883626161, "trialdata": {"rt": -1000, "stimulus": "/static/audio/wordpool/DRUG.wav", "key_press": -1, "type": "PRES_AUD", "word": "drug", "wordID": 500, "conditions": [12, 1600, "a", 24000], "trial": 7, "serialpos": 4, "trial_type": "single-audio", "trial_index": 245, "time_elapsed": 1218439, "internal_node_id": "0.0-173.0"}}, {"uniqueid": "MTK0922:3K5TEWLKGWIVG038GLCZNSARIHWVIK", "current_trial": 246, "dateTime": 1512883628689, "trialdata": {"rt": -1000, "stimulus": "/static/audio/wordpool/COFFEE.wav", "key_press": -1, "type": "PRES_AUD", "word": "coffee", "wordID": 340, "conditions": [12, 1600, "a", 24000], "trial": 7, "serialpos": 5, "trial_type": "single-audio", "trial_index": 246, "time_elapsed": 1220967, "internal_node_id": "0.0-174.0"}}, {"uniqueid": "MTK0922:3K5TEWLKGWIVG038GLCZNSARIHWVIK", "current_trial": 247, "dateTime": 1512883631328, "trialdata": {"rt": -1000, "stimulus": "/static/audio/wordpool/HIKER.wav", "key_press": -1, "type": "PRES_AUD", "word": "hiker", "wordID": 707, "conditions": [12, 1600, "a", 24000], "trial": 7, "serialpos": 6, "trial_type": "single-audio", "trial_index": 247, "time_elapsed": 1223607, "internal_node_id": "0.0-175.0"}}, {"uniqueid": "MTK0922:3K5TEWLKGWIVG038GLCZNSARIHWVIK", "current_trial": 248, "dateTime": 1512883634133, "trialdata": {"rt": -1000, "stimulus": "/static/audio/wordpool/PIMPLE.wav", "key_press": -1, "type": "PRES_AUD", "word": "pimple", "wordID": 1070, "conditions": [12, 1600, "a", 24000], "trial": 7, "serialpos": 7, "trial_type": "single-audio", "trial_index": 248, "time_elapsed": 1226411, "internal_node_id": "0.0-176.0"}}, {"uniqueid": "MTK0922:3K5TEWLKGWIVG038GLCZNSARIHWVIK", "current_trial": 249, "dateTime": 1512883636758, "trialdata": {"rt": -1000, "stimulus": "/static/audio/wordpool/MATTRESS.wav", "key_press": -1, "type": "PRES_AUD", "word": "mattress", "wordID": 878, "conditions": [12, 1600, "a", 24000], "trial": 7, "serialpos": 8, "trial_type": "single-audio", "trial_index": 249, "time_elapsed": 1229037, "internal_node_id": "0.0-177.0"}}, {"uniqueid": "MTK0922:3K5TEWLKGWIVG038GLCZNSARIHWVIK", "current_trial": 250, "dateTime": 1512883639233, "trialdata": {"rt": -1000, "stimulus": "/static/audio/wordpool/FRAGRANCE.wav", "key_press": -1, "type": "PRES_AUD", "word": "fragrance", "wordID": 598, "conditions": [12, 1600, "a", 24000], "trial": 7, "serialpos": 9, "trial_type": "single-audio", "trial_index": 250, "time_elapsed": 1231512, "internal_node_id": "0.0-178.0"}}, {"uniqueid": "MTK0922:3K5TEWLKGWIVG038GLCZNSARIHWVIK", "current_trial": 251, "dateTime": 1512883641895, "trialdata": {"rt": -1000, "stimulus": "/static/audio/wordpool/PERFUME.wav", "key_press": -1, "type": "PRES_AUD", "word": "perfume", "wordID": 1048, "conditions": [12, 1600, "a", 24000], "trial": 7, "serialpos": 10, "trial_type": "single-audio", "trial_index": 251, "time_elapsed": 1234174, "internal_node_id": "0.0-179.0"}}, {"uniqueid": "MTK0922:3K5TEWLKGWIVG038GLCZNSARIHWVIK", "current_trial": 252, "dateTime": 1512883644478, "trialdata": {"rt": -1000, "stimulus": "/static/audio/wordpool/BROOK.wav", "key_press": -1, "type": "PRES_AUD", "word": "brook", "wordID": 176, "conditions": [12, 1600, "a", 24000], "trial": 7, "serialpos": 11, "trial_type": "single-audio", "trial_index": 252, "time_elapsed": 1236756, "internal_node_id": "0.0-180.0"}}, {"uniqueid": "MTK0922:3K5TEWLKGWIVG038GLCZNSARIHWVIK", "current_trial": 253, "dateTime": 1512883645828, "trialdata": {"rt": -1, "stimulus": "", "key_press": -1, "type": "PRE_RECALL_DELAY", "trial_type": "single-stim", "trial_index": 253, "time_elapsed": 1238107, "internal_node_id": "0.0-181.0-0.0"}}, {"uniqueid": "MTK0922:3K5TEWLKGWIVG038GLCZNSARIHWVIK", "current_trial": 254, "dateTime": 1512883646333, "trialdata": {"rt": -1000, "stimulus": "/static/audio/400Hz.wav", "key_press": -1, "type": "PRE_RECALL_ALERT", "trial_type": "single-audio", "trial_index": 254, "time_elapsed": 1238612, "internal_node_id": "0.0-182.0"}}, {"uniqueid": "MTK0922:3K5TEWLKGWIVG038GLCZNSARIHWVIK", "current_trial": 255, "dateTime": 1512883706421, "trialdata": {"rt": [3430, 6092, 8492, 11439, 22424, 26381, 29202, 32331], "recwords": ["summit", "climer", "broook", "brook", "fragrence", "purfuem", "girl", "hiker"], "type": "FREE_RECALL", "conditions": [12, 1600, "a", 24000], "trial": 7, "trial_type": "free-recall", "trial_index": 255, "time_elapsed": 1298624, "internal_node_id": "0.0-183.0-0.0"}}, {"uniqueid": "MTK0922:3K5TEWLKGWIVG038GLCZNSARIHWVIK", "current_trial": 256, "dateTime": 1512883709247, "trialdata": {"rt": 821, "key_press": 32, "type": "INSTRUCTIONS", "trial_type": "text", "trial_index": 256, "time_elapsed": 1301526, "internal_node_id": "0.0-184.0"}}, {"uniqueid": "MTK0922:3K5TEWLKGWIVG038GLCZNSARIHWVIK", "current_trial": 257, "dateTime": 1512883735261, "trialdata": {"rt": [7953, 17931, 23278], "responses": ["13", "16", "17"], "num1": [2, 4, 7, 5], "num2": [7, 5, 7, 6], "num3": [4, 7, 3, 1], "type": "DISTRACTOR", "conditions": [24, 1600, "a", 24000], "trial": 8, "trial_type": "math-distractor", "trial_index": 257, "time_elapsed": 1327540, "internal_node_id": "0.0-185.0"}}, {"uniqueid": "MTK0922:3K5TEWLKGWIVG038GLCZNSARIHWVIK", "current_trial": 258, "dateTime": 1512883738270, "trialdata": {"rt": -1, "stimulus": "<p id=\"stim\">10</p>", "key_press": -1, "trial_type": "single-stim", "trial_index": 258, "time_elapsed": 1330549, "internal_node_id": "0.0-186.0-0.0"}}, {"uniqueid": "MTK0922:3K5TEWLKGWIVG038GLCZNSARIHWVIK", "current_trial": 259, "dateTime": 1512883739273, "trialdata": {"rt": -1, "stimulus": "<p id=\"stim\">9</p>", "key_press": -1, "trial_type": "single-stim", "trial_index": 259, "time_elapsed": 1331552, "internal_node_id": "0.0-186.0-1.0"}}, {"uniqueid": "MTK0922:3K5TEWLKGWIVG038GLCZNSARIHWVIK", "current_trial": 260, "dateTime": 1512883740283, "trialdata": {"rt": -1, "stimulus": "<p id=\"stim\">8</p>", "key_press": -1, "trial_type": "single-stim", "trial_index": 260, "time_elapsed": 1332562, "internal_node_id": "0.0-186.0-2.0"}}, {"uniqueid": "MTK0922:3K5TEWLKGWIVG038GLCZNSARIHWVIK", "current_trial": 261, "dateTime": 1512883741290, "trialdata": {"rt": -1, "stimulus": "<p id=\"stim\">7</p>", "key_press": -1, "trial_type": "single-stim", "trial_index": 261, "time_elapsed": 1333569, "internal_node_id": "0.0-186.0-3.0"}}, {"uniqueid": "MTK0922:3K5TEWLKGWIVG038GLCZNSARIHWVIK", "current_trial": 262, "dateTime": 1512883742294, "trialdata": {"rt": -1, "stimulus": "<p id=\"stim\">6</p>", "key_press": -1, "trial_type": "single-stim", "trial_index": 262, "time_elapsed": 1334573, "internal_node_id": "0.0-186.0-4.0"}}, {"uniqueid": "MTK0922:3K5TEWLKGWIVG038GLCZNSARIHWVIK", "current_trial": 263, "dateTime": 1512883743295, "trialdata": {"rt": -1, "stimulus": "<p id=\"stim\">5</p>", "key_press": -1, "trial_type": "single-stim", "trial_index": 263, "time_elapsed": 1335574, "internal_node_id": "0.0-186.0-5.0"}}, {"uniqueid": "MTK0922:3K5TEWLKGWIVG038GLCZNSARIHWVIK", "current_trial": 264, "dateTime": 1512883744298, "trialdata": {"rt": -1, "stimulus": "<p id=\"stim\">4</p>", "key_press": -1, "trial_type": "single-stim", "trial_index": 264, "time_elapsed": 1336577, "internal_node_id": "0.0-186.0-6.0"}}, {"uniqueid": "MTK0922:3K5TEWLKGWIVG038GLCZNSARIHWVIK", "current_trial": 265, "dateTime": 1512883745300, "trialdata": {"rt": -1, "stimulus": "<p id=\"stim\">3</p>", "key_press": -1, "trial_type": "single-stim", "trial_index": 265, "time_elapsed": 1337579, "internal_node_id": "0.0-186.0-7.0"}}, {"uniqueid": "MTK0922:3K5TEWLKGWIVG038GLCZNSARIHWVIK", "current_trial": 266, "dateTime": 1512883746301, "trialdata": {"rt": -1, "stimulus": "<p id=\"stim\">2</p>", "key_press": -1, "trial_type": "single-stim", "trial_index": 266, "time_elapsed": 1338580, "internal_node_id": "0.0-186.0-8.0"}}, {"uniqueid": "MTK0922:3K5TEWLKGWIVG038GLCZNSARIHWVIK", "current_trial": 267, "dateTime": 1512883747306, "trialdata": {"rt": -1, "stimulus": "<p id=\"stim\">1</p>", "key_press": -1, "trial_type": "single-stim", "trial_index": 267, "time_elapsed": 1339585, "internal_node_id": "0.0-186.0-9.0"}}, {"uniqueid": "MTK0922:3K5TEWLKGWIVG038GLCZNSARIHWVIK", "current_trial": 268, "dateTime": 1512883748810, "trialdata": {"rt": -1, "stimulus": "<p id=\"stim\">+</p>", "key_press": -1, "type": "FIXATION", "trial_type": "single-stim", "trial_index": 268, "time_elapsed": 1341089, "internal_node_id": "0.0-187.0-0.0"}}, {"uniqueid": "MTK0922:3K5TEWLKGWIVG038GLCZNSARIHWVIK", "current_trial": 269, "dateTime": 1512883751506, "trialdata": {"rt": -1000, "stimulus": "/static/audio/wordpool/DAUGHTER.wav", "key_press": -1, "type": "PRES_AUD", "word": "daughter", "wordID": 441, "conditions": [24, 1600, "a", 24000], "trial": 8, "serialpos": 0, "trial_type": "single-audio", "trial_index": 269, "time_elapsed": 1343785, "internal_node_id": "0.0-188.0"}}, {"uniqueid": "MTK0922:3K5TEWLKGWIVG038GLCZNSARIHWVIK", "current_trial": 270, "dateTime": 1512883754152, "trialdata": {"rt": 692.3809523811997, "stimulus": "/static/audio/wordpool/GLOVE.wav", "key_press": 45, "type": "PRES_AUD", "word": "glove", "wordID": 641, "conditions": [24, 1600, "a", 24000], "trial": 8, "serialpos": 1, "trial_type": "single-audio", "trial_index": 270, "time_elapsed": 1346431, "internal_node_id": "0.0-189.0"}}, {"uniqueid": "MTK0922:3K5TEWLKGWIVG038GLCZNSARIHWVIK", "current_trial": 271, "dateTime": 1512883756767, "trialdata": {"rt": -1000, "stimulus": "/static/audio/wordpool/VELVET.wav", "key_press": -1, "type": "PRES_AUD", "word": "velvet", "wordID": 1554, "conditions": [24, 1600, "a", 24000], "trial": 8, "serialpos": 2, "trial_type": "single-audio", "trial_index": 271, "time_elapsed": 1349046, "internal_node_id": "0.0-190.0"}}, {"uniqueid": "MTK0922:3K5TEWLKGWIVG038GLCZNSARIHWVIK", "current_trial": 272, "dateTime": 1512883759433, "trialdata": {"rt": -1000, "stimulus": "/static/audio/wordpool/ORANGE.wav", "key_press": -1, "type": "PRES_AUD", "word": "orange", "wordID": 979, "conditions": [24, 1600, "a", 24000], "trial": 8, "serialpos": 3, "trial_type": "single-audio", "trial_index": 272, "time_elapsed": 1351711, "internal_node_id": "0.0-191.0"}}, {"uniqueid": "MTK0922:3K5TEWLKGWIVG038GLCZNSARIHWVIK", "current_trial": 273, "dateTime": 1512883761885, "trialdata": {"rt": -1000, "stimulus": "/static/audio/wordpool/LAPEL.wav", "key_press": -1, "type": "PRES_AUD", "word": "lapel", "wordID": 799, "conditions": [24, 1600, "a", 24000], "trial": 8, "serialpos": 4, "trial_type": "single-audio", "trial_index": 273, "time_elapsed": 1354159, "internal_node_id": "0.0-192.0"}}, {"uniqueid": "MTK0922:3K5TEWLKGWIVG038GLCZNSARIHWVIK", "current_trial": 274, "dateTime": 1512883764688, "trialdata": {"rt": -1000, "stimulus": "/static/audio/wordpool/BLOUSE.wav", "key_press": -1, "type": "PRES_AUD", "word": "blouse", "wordID": 138, "conditions": [24, 1600, "a", 24000], "trial": 8, "serialpos": 5, "trial_type": "single-audio", "trial_index": 274, "time_elapsed": 1356967, "internal_node_id": "0.0-193.0"}}, {"uniqueid": "MTK0922:3K5TEWLKGWIVG038GLCZNSARIHWVIK", "current_trial": 275, "dateTime": 1512883767199, "trialdata": {"rt": -1000, "stimulus": "/static/audio/wordpool/BRICK.wav", "key_press": -1, "type": "PRES_AUD", "word": "brick", "wordID": 171, "conditions": [24, 1600, "a", 24000], "trial": 8, "serialpos": 6, "trial_type": "single-audio", "trial_index": 275, "time_elapsed": 1359478, "internal_node_id": "0.0-194.0"}}, {"uniqueid": "MTK0922:3K5TEWLKGWIVG038GLCZNSARIHWVIK", "current_trial": 276, "dateTime": 1512883769830, "trialdata": {"rt": -1000, "stimulus": "/static/audio/wordpool/LONDON.wav", "key_press": -1, "type": "PRES_AUD", "word": "london", "wordID": 842, "conditions": [24, 1600, "a", 24000], "trial": 8, "serialpos": 7, "trial_type": "single-audio", "trial_index": 276, "time_elapsed": 1362108, "internal_node_id": "0.0-195.0"}}, {"uniqueid": "MTK0922:3K5TEWLKGWIVG038GLCZNSARIHWVIK", "current_trial": 277, "dateTime": 1512883772461, "trialdata": {"rt": -1000, "stimulus": "/static/audio/wordpool/FIDDLE.wav", "key_press": -1, "type": "PRES_AUD", "word": "fiddle", "wordID": 560, "conditions": [24, 1600, "a", 24000], "trial": 8, "serialpos": 8, "trial_type": "single-audio", "trial_index": 277, "time_elapsed": 1364739, "internal_node_id": "0.0-196.0"}}, {"uniqueid": "MTK0922:3K5TEWLKGWIVG038GLCZNSARIHWVIK", "current_trial": 278, "dateTime": 1512883775256, "trialdata": {"rt": -1000, "stimulus": "/static/audio/wordpool/TROMBONE.wav", "key_press": -1, "type": "PRES_AUD", "word": "trombon