{"condition": 0, "counterbalance": 705, "assignmentId": "32AT8R96GMGKXZH4G7W8V8EVBSZUSY", "workerId": "MTK0577", "hitId": "3R868ACW4SJW694T1SWXY2ENBU5GZB", "currenttrial": 500, "bonus": 0, "data": [{"uniqueid": "MTK0577:32AT8R96GMGKXZH4G7W8V8EVBSZUSY", "current_trial": 0, "dateTime": 1511217127342, "trialdata": {"rt": 1762, "key_press": 32, "type": "INSTRUCTIONS", "trial_type": "text", "trial_index": 0, "time_elapsed": 1771, "internal_node_id": "0.0-0.0"}}, {"uniqueid": "MTK0577:32AT8R96GMGKXZH4G7W8V8EVBSZUSY", "current_trial": 1, "dateTime": 1511217131038, "trialdata": {"rt": 3692, "key_press": 32, "type": "INSTRUCTIONS", "trial_type": "text", "trial_index": 1, "time_elapsed": 5470, "internal_node_id": "0.0-1.0"}}, {"uniqueid": "MTK0577:32AT8R96GMGKXZH4G7W8V8EVBSZUSY", "current_trial": 2, "dateTime": 1511217145848, "trialdata": {"rt": [14787], "responses": ["ocean"], "type": "AUDIO_TEST", "trial_type": "audio-test", "trial_index": 2, "time_elapsed": 20280, "internal_node_id": "0.0-2.0"}}, {"uniqueid": "MTK0577:32AT8R96GMGKXZH4G7W8V8EVBSZUSY", "current_trial": 3, "dateTime": 1511217149984, "trialdata": {"rt": [4123], "responses": ["crystal"], "type": "AUDIO_TEST", "trial_type": "audio-test", "trial_index": 3, "time_elapsed": 24417, "internal_node_id": "0.0-3.0"}}, {"uniqueid": "MTK0577:32AT8R96GMGKXZH4G7W8V8EVBSZUSY", "current_trial": 4, "dateTime": 1511217154118, "trialdata": {"rt": [4121], "responses": ["spice"], "type": "AUDIO_TEST", "trial_type": "audio-test", "trial_index": 4, "time_elapsed": 28551, "internal_node_id": "0.0-4.0"}}, {"uniqueid": "MTK0577:32AT8R96GMGKXZH4G7W8V8EVBSZUSY", "current_trial": 5, "dateTime": 1511217173207, "trialdata": {"rt": 18333, "responses": "{\"Q0\":\"10 pm\",\"Q1\":\"6:30 am\",\"Q2\":\"5\"}", "type": "SLEEP_SURVEY", "trial_type": "survey-text", "trial_index": 5, "time_elapsed": 47639, "internal_node_id": "0.0-5.0"}}, {"uniqueid": "MTK0577:32AT8R96GMGKXZH4G7W8V8EVBSZUSY", "current_trial": 6, "dateTime": 1511217188798, "trialdata": {"rt": 14588, "key_press": 32, "type": "INSTRUCTIONS", "trial_type": "text", "trial_index": 6, "time_elapsed": 63230, "internal_node_id": "0.0-6.0"}}, {"uniqueid": "MTK0577:32AT8R96GMGKXZH4G7W8V8EVBSZUSY", "current_trial": 7, "dateTime": 1511217195405, "trialdata": {"rt": 6105, "key_press": 32, "type": "INSTRUCTIONS", "trial_type": "text", "trial_index": 7, "time_elapsed": 69838, "internal_node_id": "0.0-7.0"}}, {"uniqueid": "MTK0577:32AT8R96GMGKXZH4G7W8V8EVBSZUSY", "current_trial": 8, "dateTime": 1511217198454, "trialdata": {"rt": 2548, "key_press": 32, "type": "INSTRUCTIONS", "trial_type": "text", "trial_index": 8, "time_elapsed": 72887, "internal_node_id": "0.0-8.0"}}, {"uniqueid": "MTK0577:32AT8R96GMGKXZH4G7W8V8EVBSZUSY", "current_trial": 9, "dateTime": 1511217217475, "trialdata": {"rt": [3730, 6107, 8206, 9923, 12915, 15387, 17371], "responses": ["18", "20", "12", "16", "23", "14", "15"], "num1": [3, 9, 4, 5, 8, 3, 3, 2], "num2": [6, 3, 7, 9, 9, 4, 3, 8], "num3": [9, 8, 1, 2, 7, 7, 9, 3], "type": "DISTRACTOR", "conditions": [18, 1200, "v", 18000], "trial": 0, "trial_type": "math-distractor", "trial_index": 9, "time_elapsed": 91907, "internal_node_id": "0.0-9.0"}}, {"uniqueid": "MTK0577:32AT8R96GMGKXZH4G7W8V8EVBSZUSY", "current_trial": 10, "dateTime": 1511217220480, "trialdata": {"rt": -1, "stimulus": "<p id=\"stim\">10</p>", "key_press": -1, "trial_type": "single-stim", "trial_index": 10, "time_elapsed": 94913, "internal_node_id": "0.0-10.0-0.0"}}, {"uniqueid": "MTK0577:32AT8R96GMGKXZH4G7W8V8EVBSZUSY", "current_trial": 11, "dateTime": 1511217221483, "trialdata": {"rt": -1, "stimulus": "<p id=\"stim\">9</p>", "key_press": -1, "trial_type": "single-stim", "trial_index": 11, "time_elapsed": 95915, "internal_node_id": "0.0-10.0-1.0"}}, {"uniqueid": "MTK0577:32AT8R96GMGKXZH4G7W8V8EVBSZUSY", "current_trial": 12, "dateTime": 1511217222484, "trialdata": {"rt": -1, "stimulus": "<p id=\"stim\">8</p>", "key_press": -1, "trial_type": "single-stim", "trial_index": 12, "time_elapsed": 96917, "internal_node_id": "0.0-10.0-2.0"}}, {"uniqueid": "MTK0577:32AT8R96GMGKXZH4G7W8V8EVBSZUSY", "current_trial": 13, "dateTime": 1511217223485, "trialdata": {"rt": -1, "stimulus": "<p id=\"stim\">7</p>", "key_press": -1, "trial_type": "single-stim", "trial_index": 13, "time_elapsed": 97917, "internal_node_id": "0.0-10.0-3.0"}}, {"uniqueid": "MTK0577:32AT8R96GMGKXZH4G7W8V8EVBSZUSY", "current_trial": 14, "dateTime": 1511217224486, "trialdata": {"rt": -1, "stimulus": "<p id=\"stim\">6</p>", "key_press": -1, "trial_type": "single-stim", "trial_index": 14, "time_elapsed": 98918, "internal_node_id": "0.0-10.0-4.0"}}, {"uniqueid": "MTK0577:32AT8R96GMGKXZH4G7W8V8EVBSZUSY", "current_trial": 15, "dateTime": 1511217225488, "trialdata": {"rt": -1, "stimulus": "<p id=\"stim\">5</p>", "key_press": -1, "trial_type": "single-stim", "trial_index": 15, "time_elapsed": 99921, "internal_node_id": "0.0-10.0-5.0"}}, {"uniqueid": "MTK0577:32AT8R96GMGKXZH4G7W8V8EVBSZUSY", "current_trial": 16, "dateTime": 1511217226491, "trialdata": {"rt": -1, "stimulus": "<p id=\"stim\">4</p>", "key_press": -1, "trial_type": "single-stim", "trial_index": 16, "time_elapsed": 100923, "internal_node_id": "0.0-10.0-6.0"}}, {"uniqueid": "MTK0577:32AT8R96GMGKXZH4G7W8V8EVBSZUSY", "current_trial": 17, "dateTime": 1511217227499, "trialdata": {"rt": -1, "stimulus": "<p id=\"stim\">3</p>", "key_press": -1, "trial_type": "single-stim", "trial_index": 17, "time_elapsed": 101931, "internal_node_id": "0.0-10.0-7.0"}}, {"uniqueid": "MTK0577:32AT8R96GMGKXZH4G7W8V8EVBSZUSY", "current_trial": 18, "dateTime": 1511217228501, "trialdata": {"rt": -1, "stimulus": "<p id=\"stim\">2</p>", "key_press": -1, "trial_type": "single-stim", "trial_index": 18, "time_elapsed": 102933, "internal_node_id": "0.0-10.0-8.0"}}, {"uniqueid": "MTK0577:32AT8R96GMGKXZH4G7W8V8EVBSZUSY", "current_trial": 19, "dateTime": 1511217229502, "trialdata": {"rt": -1, "stimulus": "<p id=\"stim\">1</p>", "key_press": -1, "trial_type": "single-stim", "trial_index": 19, "time_elapsed": 103935, "internal_node_id": "0.0-10.0-9.0"}}, {"uniqueid": "MTK0577:32AT8R96GMGKXZH4G7W8V8EVBSZUSY", "current_trial": 20, "dateTime": 1511217231004, "trialdata": {"rt": -1, "stimulus": "<p id=\"stim\">+</p>", "key_press": -1, "type": "FIXATION", "trial_type": "single-stim", "trial_index": 20, "time_elapsed": 105437, "internal_node_id": "0.0-11.0-0.0"}}, {"uniqueid": "MTK0577:32AT8R96GMGKXZH4G7W8V8EVBSZUSY", "current_trial": 21, "dateTime": 1511217232206, "trialdata": {"rt": -1, "stimulus": "<p id=\"stim\">SPOON</p>", "key_press": -1, "type": "PRES_VIS", "word": "spoon", "wordID": 1356, "conditions": [18, 1200, "v", 18000], "trial": 0, "serialpos": 0, "trial_type": "single-stim", "trial_index": 21, "time_elapsed": 106639, "internal_node_id": "0.0-12.0"}}, {"uniqueid": "MTK0577:32AT8R96GMGKXZH4G7W8V8EVBSZUSY", "current_trial": 22, "dateTime": 1511217234546, "trialdata": {"rt": -1, "stimulus": "<p id=\"stim\">STAR</p>", "key_press": -1, "type": "PRES_VIS", "word": "star", "wordID": 1372, "conditions": [18, 1200, "v", 18000], "trial": 0, "serialpos": 1, "trial_type": "single-stim", "trial_index": 22, "time_elapsed": 108979, "internal_node_id": "0.0-13.0"}}, {"uniqueid": "MTK0577:32AT8R96GMGKXZH4G7W8V8EVBSZUSY", "current_trial": 23, "dateTime": 1511217236676, "trialdata": {"rt": -1, "stimulus": "<p id=\"stim\">XEROX</p>", "key_press": -1, "type": "PRES_VIS", "word": "xerox", "wordID": 1627, "conditions": [18, 1200, "v", 18000], "trial": 0, "serialpos": 2, "trial_type": "single-stim", "trial_index": 23, "time_elapsed": 111108, "internal_node_id": "0.0-14.0"}}, {"uniqueid": "MTK0577:32AT8R96GMGKXZH4G7W8V8EVBSZUSY", "current_trial": 24, "dateTime": 1511217239007, "trialdata": {"rt": -1, "stimulus": "<p id=\"stim\">RIFLE</p>", "key_press": -1, "type": "PRES_VIS", "word": "rifle", "wordID": 1191, "conditions": [18, 1200, "v", 18000], "trial": 0, "serialpos": 3, "trial_type": "single-stim", "trial_index": 24, "time_elapsed": 113439, "internal_node_id": "0.0-15.0"}}, {"uniqueid": "MTK0577:32AT8R96GMGKXZH4G7W8V8EVBSZUSY", "current_trial": 25, "dateTime": 1511217241010, "trialdata": {"rt": -1, "stimulus": "<p id=\"stim\">POSTAGE</p>", "key_press": -1, "type": "PRES_VIS", "word": "postage", "wordID": 1112, "conditions": [18, 1200, "v", 18000], "trial": 0, "serialpos": 4, "trial_type": "single-stim", "trial_index": 25, "time_elapsed": 115443, "internal_node_id": "0.0-16.0"}}, {"uniqueid": "MTK0577:32AT8R96GMGKXZH4G7W8V8EVBSZUSY", "current_trial": 26, "dateTime": 1511217243258, "trialdata": {"rt": -1, "stimulus": "<p id=\"stim\">TWISTER</p>", "key_press": -1, "type": "PRES_VIS", "word": "twister", "wordID": 1529, "conditions": [18, 1200, "v", 18000], "trial": 0, "serialpos": 5, "trial_type": "single-stim", "trial_index": 26, "time_elapsed": 117691, "internal_node_id": "0.0-17.0"}}, {"uniqueid": "MTK0577:32AT8R96GMGKXZH4G7W8V8EVBSZUSY", "current_trial": 27, "dateTime": 1511217245559, "trialdata": {"rt": -1, "stimulus": "<p id=\"stim\">CLIMBER</p>", "key_press": -1, "type": "PRES_VIS", "word": "climber", "wordID": 322, "conditions": [18, 1200, "v", 18000], "trial": 0, "serialpos": 6, "trial_type": "single-stim", "trial_index": 27, "time_elapsed": 119992, "internal_node_id": "0.0-18.0"}}, {"uniqueid": "MTK0577:32AT8R96GMGKXZH4G7W8V8EVBSZUSY", "current_trial": 28, "dateTime": 1511217247837, "trialdata": {"rt": -1, "stimulus": "<p id=\"stim\">SHRUB</p>", "key_press": -1, "type": "PRES_VIS", "word": "shrub", "wordID": 1298, "conditions": [18, 1200, "v", 18000], "trial": 0, "serialpos": 7, "trial_type": "single-stim", "trial_index": 28, "time_elapsed": 122270, "internal_node_id": "0.0-19.0"}}, {"uniqueid": "MTK0577:32AT8R96GMGKXZH4G7W8V8EVBSZUSY", "current_trial": 29, "dateTime": 1511217250145, "trialdata": {"rt": -1, "stimulus": "<p id=\"stim\">PECAN</p>", "key_press": -1, "type": "PRES_VIS", "word": "pecan", "wordID": 1035, "conditions": [18, 1200, "v", 18000], "trial": 0, "serialpos": 8, "trial_type": "single-stim", "trial_index": 29, "time_elapsed": 124577, "internal_node_id": "0.0-20.0"}}, {"uniqueid": "MTK0577:32AT8R96GMGKXZH4G7W8V8EVBSZUSY", "current_trial": 30, "dateTime": 1511217252365, "trialdata": {"rt": -1, "stimulus": "<p id=\"stim\">SILK</p>", "key_press": -1, "type": "PRES_VIS", "word": "silk", "wordID": 1306, "conditions": [18, 1200, "v", 18000], "trial": 0, "serialpos": 9, "trial_type": "single-stim", "trial_index": 30, "time_elapsed": 126797, "internal_node_id": "0.0-21.0"}}, {"uniqueid": "MTK0577:32AT8R96GMGKXZH4G7W8V8EVBSZUSY", "current_trial": 31, "dateTime": 1511217254626, "trialdata": {"rt": -1, "stimulus": "<p id=\"stim\">NIGHTGOWN</p>", "key_press": -1, "type": "PRES_VIS", "word": "nightgown", "wordID": 952, "conditions": [18, 1200, "v", 18000], "trial": 0, "serialpos": 10, "trial_type": "single-stim", "trial_index": 31, "time_elapsed": 129059, "internal_node_id": "0.0-22.0"}}, {"uniqueid": "MTK0577:32AT8R96GMGKXZH4G7W8V8EVBSZUSY", "current_trial": 32, "dateTime": 1511217256938, "trialdata": {"rt": -1, "stimulus": "<p id=\"stim\">CUPBOARD</p>", "key_press": -1, "type": "PRES_VIS", "word": "cupboard", "wordID": 424, "conditions": [18, 1200, "v", 18000], "trial": 0, "serialpos": 11, "trial_type": "single-stim", "trial_index": 32, "time_elapsed": 131370, "internal_node_id": "0.0-23.0"}}, {"uniqueid": "MTK0577:32AT8R96GMGKXZH4G7W8V8EVBSZUSY", "current_trial": 33, "dateTime": 1511217259090, "trialdata": {"rt": -1, "stimulus": "<p id=\"stim\">BRANCH</p>", "key_press": -1, "type": "PRES_VIS", "word": "branch", "wordID": 167, "conditions": [18, 1200, "v", 18000], "trial": 0, "serialpos": 12, "trial_type": "single-stim", "trial_index": 33, "time_elapsed": 133522, "internal_node_id": "0.0-24.0"}}, {"uniqueid": "MTK0577:32AT8R96GMGKXZH4G7W8V8EVBSZUSY", "current_trial": 34, "dateTime": 1511217261327, "trialdata": {"rt": -1, "stimulus": "<p id=\"stim\">GAZELLE</p>", "key_press": -1, "type": "PRES_VIS", "word": "gazelle", "wordID": 627, "conditions": [18, 1200, "v", 18000], "trial": 0, "serialpos": 13, "trial_type": "single-stim", "trial_index": 34, "time_elapsed": 135760, "internal_node_id": "0.0-25.0"}}, {"uniqueid": "MTK0577:32AT8R96GMGKXZH4G7W8V8EVBSZUSY", "current_trial": 35, "dateTime": 1511217263653, "trialdata": {"rt": -1, "stimulus": "<p id=\"stim\">SNAIL</p>", "key_press": -1, "type": "PRES_VIS", "word": "snail", "wordID": 1331, "conditions": [18, 1200, "v", 18000], "trial": 0, "serialpos": 14, "trial_type": "single-stim", "trial_index": 35, "time_elapsed": 138086, "internal_node_id": "0.0-26.0"}}, {"uniqueid": "MTK0577:32AT8R96GMGKXZH4G7W8V8EVBSZUSY", "current_trial": 36, "dateTime": 1511217265926, "trialdata": {"rt": -1, "stimulus": "<p id=\"stim\">REPORT</p>", "key_press": -1, "type": "PRES_VIS", "word": "report", "wordID": 1183, "conditions": [18, 1200, "v", 18000], "trial": 0, "serialpos": 15, "trial_type": "single-stim", "trial_index": 36, "time_elapsed": 140359, "internal_node_id": "0.0-27.0"}}, {"uniqueid": "MTK0577:32AT8R96GMGKXZH4G7W8V8EVBSZUSY", "current_trial": 37, "dateTime": 1511217268034, "trialdata": {"rt": -1, "stimulus": "<p id=\"stim\">NOTEBOOK</p>", "key_press": -1, "type": "PRES_VIS", "word": "notebook", "wordID": 958, "conditions": [18, 1200, "v", 18000], "trial": 0, "serialpos": 16, "trial_type": "single-stim", "trial_index": 37, "time_elapsed": 142466, "internal_node_id": "0.0-28.0"}}, {"uniqueid": "MTK0577:32AT8R96GMGKXZH4G7W8V8EVBSZUSY", "current_trial": 38, "dateTime": 1511217270056, "trialdata": {"rt": -1, "stimulus": "<p id=\"stim\">WIFE</p>", "key_press": -1, "type": "PRES_VIS", "word": "wife", "wordID": 1608, "conditions": [18, 1200, "v", 18000], "trial": 0, "serialpos": 17, "trial_type": "single-stim", "trial_index": 38, "time_elapsed": 144489, "internal_node_id": "0.0-29.0"}}, {"uniqueid": "MTK0577:32AT8R96GMGKXZH4G7W8V8EVBSZUSY", "current_trial": 39, "dateTime": 1511217272402, "trialdata": {"rt": -1, "stimulus": "", "key_press": -1, "type": "PRE_RECALL_DELAY", "trial_type": "single-stim", "trial_index": 39, "time_elapsed": 146834, "internal_node_id": "0.0-30.0-0.0"}}, {"uniqueid": "MTK0577:32AT8R96GMGKXZH4G7W8V8EVBSZUSY", "current_trial": 40, "dateTime": 1511217272919, "trialdata": {"rt": -1000, "stimulus": "/static/audio/400Hz.wav", "key_press": -1, "type": "PRE_RECALL_ALERT", "trial_type": "single-audio", "trial_index": 40, "time_elapsed": 147352, "internal_node_id": "0.0-31.0"}}, {"uniqueid": "MTK0577:32AT8R96GMGKXZH4G7W8V8EVBSZUSY", "current_trial": 41, "dateTime": 1511217332942, "trialdata": {"rt": [10313, 15826, 19936, 23552, 33633, 41889, 46552, 48377, 54667, 59025], "recwords": ["spoon", "silver", "gazelle", "nightgown", "action", "xerox", "sun", "heat", "nightgown", "clothes"], "type": "FREE_RECALL", "conditions": [18, 1200, "v", 18000], "trial": 0, "trial_type": "free-recall", "trial_index": 41, "time_elapsed": 207359, "internal_node_id": "0.0-32.0-0.0"}}, {"uniqueid": "MTK0577:32AT8R96GMGKXZH4G7W8V8EVBSZUSY", "current_trial": 42, "dateTime": 1511217336444, "trialdata": {"rt": 1500, "key_press": 32, "type": "INSTRUCTIONS", "trial_type": "text", "trial_index": 42, "time_elapsed": 210877, "internal_node_id": "0.0-33.0"}}, {"uniqueid": "MTK0577:32AT8R96GMGKXZH4G7W8V8EVBSZUSY", "current_trial": 43, "dateTime": 1511217356452, "trialdata": {"rt": [3202, 5490, 7746, 9539, 12499, 14386, 15947], "responses": ["22", "12", "8", "2", "7", "14", "17"], "num1": [7, 8, 2, 4, 1, 2, 8, 4], "num2": [7, 3, 1, 2, 2, 8, 8, 8], "num3": [8, 1, 5, 6, 4, 4, 1, 7], "type": "DISTRACTOR", "conditions": [18, 1200, "a", 18000], "trial": 1, "trial_type": "math-distractor", "trial_index": 43, "time_elapsed": 230885, "internal_node_id": "0.0-34.0"}}, {"uniqueid": "MTK0577:32AT8R96GMGKXZH4G7W8V8EVBSZUSY", "current_trial": 44, "dateTime": 1511217359453, "trialdata": {"rt": -1, "stimulus": "<p id=\"stim\">10</p>", "key_press": -1, "trial_type": "single-stim", "trial_index": 44, "time_elapsed": 233885, "internal_node_id": "0.0-35.0-0.0"}}, {"uniqueid": "MTK0577:32AT8R96GMGKXZH4G7W8V8EVBSZUSY", "current_trial": 45, "dateTime": 1511217360455, "trialdata": {"rt": -1, "stimulus": "<p id=\"stim\">9</p>", "key_press": -1, "trial_type": "single-stim", "trial_index": 45, "time_elapsed": 234887, "internal_node_id": "0.0-35.0-1.0"}}, {"uniqueid": "MTK0577:32AT8R96GMGKXZH4G7W8V8EVBSZUSY", "current_trial": 46, "dateTime": 1511217361458, "trialdata": {"rt": -1, "stimulus": "<p id=\"stim\">8</p>", "key_press": -1, "trial_type": "single-stim", "trial_index": 46, "time_elapsed": 235891, "internal_node_id": "0.0-35.0-2.0"}}, {"uniqueid": "MTK0577:32AT8R96GMGKXZH4G7W8V8EVBSZUSY", "current_trial": 47, "dateTime": 1511217362460, "trialdata": {"rt": -1, "stimulus": "<p id=\"stim\">7</p>", "key_press": -1, "trial_type": "single-stim", "trial_index": 47, "time_elapsed": 236892, "internal_node_id": "0.0-35.0-3.0"}}, {"uniqueid": "MTK0577:32AT8R96GMGKXZH4G7W8V8EVBSZUSY", "current_trial": 48, "dateTime": 1511217363461, "trialdata": {"rt": -1, "stimulus": "<p id=\"stim\">6</p>", "key_press": -1, "trial_type": "single-stim", "trial_index": 48, "time_elapsed": 237893, "internal_node_id": "0.0-35.0-4.0"}}, {"uniqueid": "MTK0577:32AT8R96GMGKXZH4G7W8V8EVBSZUSY", "current_trial": 49, "dateTime": 1511217364464, "trialdata": {"rt": -1, "stimulus": "<p id=\"stim\">5</p>", "key_press": -1, "trial_type": "single-stim", "trial_index": 49, "time_elapsed": 238897, "internal_node_id": "0.0-35.0-5.0"}}, {"uniqueid": "MTK0577:32AT8R96GMGKXZH4G7W8V8EVBSZUSY", "current_trial": 50, "dateTime": 1511217365466, "trialdata": {"rt": -1, "stimulus": "<p id=\"stim\">4</p>", "key_press": -1, "trial_type": "single-stim", "trial_index": 50, "time_elapsed": 239898, "internal_node_id": "0.0-35.0-6.0"}}, {"uniqueid": "MTK0577:32AT8R96GMGKXZH4G7W8V8EVBSZUSY", "current_trial": 51, "dateTime": 1511217366468, "trialdata": {"rt": -1, "stimulus": "<p id=\"stim\">3</p>", "key_press": -1, "trial_type": "single-stim", "trial_index": 51, "time_elapsed": 240901, "internal_node_id": "0.0-35.0-7.0"}}, {"uniqueid": "MTK0577:32AT8R96GMGKXZH4G7W8V8EVBSZUSY", "current_trial": 52, "dateTime": 1511217367470, "trialdata": {"rt": -1, "stimulus": "<p id=\"stim\">2</p>", "key_press": -1, "trial_type": "single-stim", "trial_index": 52, "time_elapsed": 241902, "internal_node_id": "0.0-35.0-8.0"}}, {"uniqueid": "MTK0577:32AT8R96GMGKXZH4G7W8V8EVBSZUSY", "current_trial": 53, "dateTime": 1511217368472, "trialdata": {"rt": -1, "stimulus": "<p id=\"stim\">1</p>", "key_press": -1, "trial_type": "single-stim", "trial_index": 53, "time_elapsed": 242904, "internal_node_id": "0.0-35.0-9.0"}}, {"uniqueid": "MTK0577:32AT8R96GMGKXZH4G7W8V8EVBSZUSY", "current_trial": 54, "dateTime": 1511217369974, "trialdata": {"rt": -1, "stimulus": "<p id=\"stim\">+</p>", "key_press": -1, "type": "FIXATION", "trial_type": "single-stim", "trial_index": 54, "time_elapsed": 244406, "internal_node_id": "0.0-36.0-0.0"}}, {"uniqueid": "MTK0577:32AT8R96GMGKXZH4G7W8V8EVBSZUSY", "current_trial": 55, "dateTime": 1511217372294, "trialdata": {"rt": -1000, "stimulus": "/static/audio/wordpool/STOVE.wav", "key_press": -1, "type": "PRES_AUD", "word": "stove", "wordID": 1387, "conditions": [18, 1200, "a", 18000], "trial": 1, "serialpos": 0, "trial_type": "single-audio", "trial_index": 55, "time_elapsed": 246727, "internal_node_id": "0.0-37.0"}}, {"uniqueid": "MTK0577:32AT8R96GMGKXZH4G7W8V8EVBSZUSY", "current_trial": 56, "dateTime": 1511217374622, "trialdata": {"rt": -1000, "stimulus": "/static/audio/wordpool/HAMPER.wav", "key_press": -1, "type": "PRES_AUD", "word": "hamper", "wordID": 681, "conditions": [18, 1200, "a", 18000], "trial": 1, "serialpos": 1, "trial_type": "single-audio", "trial_index": 56, "time_elapsed": 249054, "internal_node_id": "0.0-38.0"}}, {"uniqueid": "MTK0577:32AT8R96GMGKXZH4G7W8V8EVBSZUSY", "current_trial": 57, "dateTime": 1511217376798, "trialdata": {"rt": -1000, "stimulus": "/static/audio/wordpool/COBRA.wav", "key_press": -1, "type": "PRES_AUD", "word": "cobra", "wordID": 335, "conditions": [18, 1200, "a", 18000], "trial": 1, "serialpos": 2, "trial_type": "single-audio", "trial_index": 57, "time_elapsed": 251231, "internal_node_id": "0.0-39.0"}}, {"uniqueid": "MTK0577:32AT8R96GMGKXZH4G7W8V8EVBSZUSY", "current_trial": 58, "dateTime": 1511217378855, "trialdata": {"rt": -1000, "stimulus": "/static/audio/wordpool/PILOT.wav", "key_press": -1, "type": "PRES_AUD", "word": "pilot", "wordID": 1069, "conditions": [18, 1200, "a", 18000], "trial": 1, "serialpos": 3, "trial_type": "single-audio", "trial_index": 58, "time_elapsed": 253288, "internal_node_id": "0.0-40.0"}}, {"uniqueid": "MTK0577:32AT8R96GMGKXZH4G7W8V8EVBSZUSY", "current_trial": 59, "dateTime": 1511217380857, "trialdata": {"rt": -1000, "stimulus": "/static/audio/wordpool/FOREHEAD.wav", "key_press": -1, "type": "PRES_AUD", "word": "forehead", "wordID": 591, "conditions": [18, 1200, "a", 18000], "trial": 1, "serialpos": 4, "trial_type": "single-audio", "trial_index": 59, "time_elapsed": 255290, "internal_node_id": "0.0-41.0"}}, {"uniqueid": "MTK0577:32AT8R96GMGKXZH4G7W8V8EVBSZUSY", "current_trial": 60, "dateTime": 1511217383101, "trialdata": {"rt": -1000, "stimulus": "/static/audio/wordpool/TERMITE.wav", "key_press": -1, "type": "PRES_AUD", "word": "termite", "wordID": 1450, "conditions": [18, 1200, "a", 18000], "trial": 1, "serialpos": 5, "trial_type": "single-audio", "trial_index": 60, "time_elapsed": 257534, "internal_node_id": "0.0-42.0"}}, {"uniqueid": "MTK0577:32AT8R96GMGKXZH4G7W8V8EVBSZUSY", "current_trial": 61, "dateTime": 1511217385448, "trialdata": {"rt": -1000, "stimulus": "/static/audio/wordpool/LASER.wav", "key_press": -1, "type": "PRES_AUD", "word": "laser", "wordID": 800, "conditions": [18, 1200, "a", 18000], "trial": 1, "serialpos": 6, "trial_type": "single-audio", "trial_index": 61, "time_elapsed": 259881, "internal_node_id": "0.0-43.0"}}, {"uniqueid": "MTK0577:32AT8R96GMGKXZH4G7W8V8EVBSZUSY", "current_trial": 62, "dateTime": 1511217387487, "trialdata": {"rt": -1000, "stimulus": "/static/audio/wordpool/SCISSORS.wav", "key_press": -1, "type": "PRES_AUD", "word": "scissors", "wordID": 1249, "conditions": [18, 1200, "a", 18000], "trial": 1, "serialpos": 7, "trial_type": "single-audio", "trial_index": 62, "time_elapsed": 261920, "internal_node_id": "0.0-44.0"}}, {"uniqueid": "MTK0577:32AT8R96GMGKXZH4G7W8V8EVBSZUSY", "current_trial": 63, "dateTime": 1511217389788, "trialdata": {"rt": -1000, "stimulus": "/static/audio/wordpool/CURTAIN.wav", "key_press": -1, "type": "PRES_AUD", "word": "curtain", "wordID": 426, "conditions": [18, 1200, "a", 18000], "trial": 1, "serialpos": 8, "trial_type": "single-audio", "trial_index": 63, "time_elapsed": 264221, "internal_node_id": "0.0-45.0"}}, {"uniqueid": "MTK0577:32AT8R96GMGKXZH4G7W8V8EVBSZUSY", "current_trial": 64, "dateTime": 1511217392093, "trialdata": {"rt": -1000, "stimulus": "/static/audio/wordpool/PLATE.wav", "key_press": -1, "type": "PRES_AUD", "word": "plate", "wordID": 1085, "conditions": [18, 1200, "a", 18000], "trial": 1, "serialpos": 9, "trial_type": "single-audio", "trial_index": 64, "time_elapsed": 266526, "internal_node_id": "0.0-46.0"}}, {"uniqueid": "MTK0577:32AT8R96GMGKXZH4G7W8V8EVBSZUSY", "current_trial": 65, "dateTime": 1511217394190, "trialdata": {"rt": -1000, "stimulus": "/static/audio/wordpool/EUROPE.wav", "key_press": -1, "type": "PRES_AUD", "word": "europe", "wordID": 540, "conditions": [18, 1200, "a", 18000], "trial": 1, "serialpos": 10, "trial_type": "single-audio", "trial_index": 65, "time_elapsed": 268622, "internal_node_id": "0.0-47.0"}}, {"uniqueid": "MTK0577:32AT8R96GMGKXZH4G7W8V8EVBSZUSY", "current_trial": 66, "dateTime": 1511217396296, "trialdata": {"rt": -1000, "stimulus": "/static/audio/wordpool/PRIMATE.wav", "key_press": -1, "type": "PRES_AUD", "word": "primate", "wordID": 1122, "conditions": [18, 1200, "a", 18000], "trial": 1, "serialpos": 11, "trial_type": "single-audio", "trial_index": 66, "time_elapsed": 270728, "internal_node_id": "0.0-48.0"}}, {"uniqueid": "MTK0577:32AT8R96GMGKXZH4G7W8V8EVBSZUSY", "current_trial": 67, "dateTime": 1511217398502, "trialdata": {"rt": -1000, "stimulus": "/static/audio/wordpool/SHOVEL.wav", "key_press": -1, "type": "PRES_AUD", "word": "shovel", "wordID": 1294, "conditions": [18, 1200, "a", 18000], "trial": 1, "serialpos": 12, "trial_type": "single-audio", "trial_index": 67, "time_elapsed": 272935, "internal_node_id": "0.0-49.0"}}, {"uniqueid": "MTK0577:32AT8R96GMGKXZH4G7W8V8EVBSZUSY", "current_trial": 68, "dateTime": 1511217400523, "trialdata": {"rt": -1000, "stimulus": "/static/audio/wordpool/CARRIAGE.wav", "key_press": -1, "type": "PRES_AUD", "word": "carriage", "wordID": 247, "conditions": [18, 1200, "a", 18000], "trial": 1, "serialpos": 13, "trial_type": "single-audio", "trial_index": 68, "time_elapsed": 274950, "internal_node_id": "0.0-50.0"}}, {"uniqueid": "MTK0577:32AT8R96GMGKXZH4G7W8V8EVBSZUSY", "current_trial": 69, "dateTime": 1511217402910, "trialdata": {"rt": -1000, "stimulus": "/static/audio/wordpool/HIKER.wav", "key_press": -1, "type": "PRES_AUD", "word": "hiker", "wordID": 707, "conditions": [18, 1200, "a", 18000], "trial": 1, "serialpos": 14, "trial_type": "single-audio", "trial_index": 69, "time_elapsed": 277342, "internal_node_id": "0.0-51.0"}}, {"uniqueid": "MTK0577:32AT8R96GMGKXZH4G7W8V8EVBSZUSY", "current_trial": 70, "dateTime": 1511217405091, "trialdata": {"rt": -1000, "stimulus": "/static/audio/wordpool/TUTU.wav", "key_press": -1, "type": "PRES_AUD", "word": "tutu", "wordID": 1523, "conditions": [18, 1200, "a", 18000], "trial": 1, "serialpos": 15, "trial_type": "single-audio", "trial_index": 70, "time_elapsed": 279524, "internal_node_id": "0.0-52.0"}}, {"uniqueid": "MTK0577:32AT8R96GMGKXZH4G7W8V8EVBSZUSY", "current_trial": 71, "dateTime": 1511217407216, "trialdata": {"rt": -1000, "stimulus": "/static/audio/wordpool/BATHTUB.wav", "key_press": -1, "type": "PRES_AUD", "word": "bathtub", "wordID": 99, "conditions": [18, 1200, "a", 18000], "trial": 1, "serialpos": 16, "trial_type": "single-audio", "trial_index": 71, "time_elapsed": 281648, "internal_node_id": "0.0-53.0"}}, {"uniqueid": "MTK0577:32AT8R96GMGKXZH4G7W8V8EVBSZUSY", "current_trial": 72, "dateTime": 1511217409350, "trialdata": {"rt": -1000, "stimulus": "/static/audio/wordpool/FRAGRANCE.wav", "key_press": -1, "type": "PRES_AUD", "word": "fragrance", "wordID": 598, "conditions": [18, 1200, "a", 18000], "trial": 1, "serialpos": 17, "trial_type": "single-audio", "trial_index": 72, "time_elapsed": 283783, "internal_node_id": "0.0-54.0"}}, {"uniqueid": "MTK0577:32AT8R96GMGKXZH4G7W8V8EVBSZUSY", "current_trial": 73, "dateTime": 1511217410667, "trialdata": {"rt": -1, "stimulus": "", "key_press": -1, "type": "PRE_RECALL_DELAY", "trial_type": "single-stim", "trial_index": 73, "time_elapsed": 285100, "internal_node_id": "0.0-55.0-0.0"}}, {"uniqueid": "MTK0577:32AT8R96GMGKXZH4G7W8V8EVBSZUSY", "current_trial": 74, "dateTime": 1511217411169, "trialdata": {"rt": -1000, "stimulus": "/static/audio/400Hz.wav", "key_press": -1, "type": "PRE_RECALL_ALERT", "trial_type": "single-audio", "trial_index": 74, "time_elapsed": 285602, "internal_node_id": "0.0-56.0"}}, {"uniqueid": "MTK0577:32AT8R96GMGKXZH4G7W8V8EVBSZUSY", "current_trial": 75, "dateTime": 1511217471180, "trialdata": {"rt": [7144, 11536, 13435, 14328, 15496, 16671, 17274, 21727, 23800, 29919, 33232, 37599, 39479, 40199, 41592, 42263, 43376, 44343, 50007, 51336, 52432, 55048], "recwords": ["*****", "there", "was", "no", "words", "it", "was", "nightgown", "xerox", "rifle", "clothes", "the", "screen", "was", "black", "the", "second", "round", "there", "was", "no", "words"], "type": "FREE_RECALL", "conditions": [18, 1200, "a", 18000], "trial": 1, "trial_type": "free-recall", "trial_index": 75, "time_elapsed": 345608, "internal_node_id": "0.0-57.0-0.0"}}, {"uniqueid": "MTK0577:32AT8R96GMGKXZH4G7W8V8EVBSZUSY", "current_trial": 76, "dateTime": 1511217474646, "trialdata": {"rt": 1457, "key_press": 32, "type": "INSTRUCTIONS", "trial_type": "text", "trial_index": 76, "time_elapsed": 349071, "internal_node_id": "0.0-58.0"}}, {"uniqueid": "MTK0577:32AT8R96GMGKXZH4G7W8V8EVBSZUSY", "current_trial": 77, "dateTime": 1511217499649, "trialdata": {"rt": [2028, 3843, 5083, 6957, 9181, 11131, 12740, 14435, 16308, 18957, 22563], "responses": ["10", "20", "11", "22", "19", "13", "18", "10", "11", "10", "14"], "num1": [5, 7, 8, 9, 9, 4, 8, 4, 1, 4, 9, 6], "num2": [1, 5, 2, 6, 2, 4, 9, 3, 5, 1, 2, 2], "num3": [4, 8, 1, 7, 8, 5, 1, 3, 5, 5, 3, 8], "type": "DISTRACTOR", "conditions": [24, 1600, "a", 24000], "trial": 2, "trial_type": "math-distractor", "trial_index": 77, "time_elapsed": 374082, "internal_node_id": "0.0-59.0"}}, {"uniqueid": "MTK0577:32AT8R96GMGKXZH4G7W8V8EVBSZUSY", "current_trial": 78, "dateTime": 1511217502651, "trialdata": {"rt": -1, "stimulus": "<p id=\"stim\">10</p>", "key_press": -1, "trial_type": "single-stim", "trial_index": 78, "time_elapsed": 377084, "internal_node_id": "0.0-60.0-0.0"}}, {"uniqueid": "MTK0577:32AT8R96GMGKXZH4G7W8V8EVBSZUSY", "current_trial": 79, "dateTime": 1511217503654, "trialdata": {"rt": -1, "stimulus": "<p id=\"stim\">9</p>", "key_press": -1, "trial_type": "single-stim", "trial_index": 79, "time_elapsed": 378086, "internal_node_id": "0.0-60.0-1.0"}}, {"uniqueid": "MTK0577:32AT8R96GMGKXZH4G7W8V8EVBSZUSY", "current_trial": 80, "dateTime": 1511217504655, "trialdata": {"rt": -1, "stimulus": "<p id=\"stim\">8</p>", "key_press": -1, "trial_type": "single-stim", "trial_index": 80, "time_elapsed": 379088, "internal_node_id": "0.0-60.0-2.0"}}, {"uniqueid": "MTK0577:32AT8R96GMGKXZH4G7W8V8EVBSZUSY", "current_trial": 81, "dateTime": 1511217505657, "trialdata": {"rt": -1, "stimulus": "<p id=\"stim\">7</p>", "key_press": -1, "trial_type": "single-stim", "trial_index": 81, "time_elapsed": 380089, "internal_node_id": "0.0-60.0-3.0"}}, {"uniqueid": "MTK0577:32AT8R96GMGKXZH4G7W8V8EVBSZUSY", "current_trial": 82, "dateTime": 1511217506658, "trialdata": {"rt": -1, "stimulus": "<p id=\"stim\">6</p>", "key_press": -1, "trial_type": "single-stim", "trial_index": 82, "time_elapsed": 381090, "internal_node_id": "0.0-60.0-4.0"}}, {"uniqueid": "MTK0577:32AT8R96GMGKXZH4G7W8V8EVBSZUSY", "current_trial": 83, "dateTime": 1511217507659, "trialdata": {"rt": -1, "stimulus": "<p id=\"stim\">5</p>", "key_press": -1, "trial_type": "single-stim", "trial_index": 83, "time_elapsed": 382092, "internal_node_id": "0.0-60.0-5.0"}}, {"uniqueid": "MTK0577:32AT8R96GMGKXZH4G7W8V8EVBSZUSY", "current_trial": 84, "dateTime": 1511217508661, "trialdata": {"rt": -1, "stimulus": "<p id=\"stim\">4</p>", "key_press": -1, "trial_type": "single-stim", "trial_index": 84, "time_elapsed": 383094, "internal_node_id": "0.0-60.0-6.0"}}, {"uniqueid": "MTK0577:32AT8R96GMGKXZH4G7W8V8EVBSZUSY", "current_trial": 85, "dateTime": 1511217509664, "trialdata": {"rt": -1, "stimulus": "<p id=\"stim\">3</p>", "key_press": -1, "trial_type": "single-stim", "trial_index": 85, "time_elapsed": 384097, "internal_node_id": "0.0-60.0-7.0"}}, {"uniqueid": "MTK0577:32AT8R96GMGKXZH4G7W8V8EVBSZUSY", "current_trial": 86, "dateTime": 1511217510666, "trialdata": {"rt": -1, "stimulus": "<p id=\"stim\">2</p>", "key_press": -1, "trial_type": "single-stim", "trial_index": 86, "time_elapsed": 385099, "internal_node_id": "0.0-60.0-8.0"}}, {"uniqueid": "MTK0577:32AT8R96GMGKXZH4G7W8V8EVBSZUSY", "current_trial": 87, "dateTime": 1511217511669, "trialdata": {"rt": -1, "stimulus": "<p id=\"stim\">1</p>", "key_press": -1, "trial_type": "single-stim", "trial_index": 87, "time_elapsed": 386102, "internal_node_id": "0.0-60.0-9.0"}}, {"uniqueid": "MTK0577:32AT8R96GMGKXZH4G7W8V8EVBSZUSY", "current_trial": 88, "dateTime": 1511217513171, "trialdata": {"rt": -1, "stimulus": "<p id=\"stim\">+</p>", "key_press": -1, "type": "FIXATION", "trial_type": "single-stim", "trial_index": 88, "time_elapsed": 387604, "internal_node_id": "0.0-61.0-0.0"}}, {"uniqueid": "MTK0577:32AT8R96GMGKXZH4G7W8V8EVBSZUSY", "current_trial": 89, "dateTime": 1511217515813, "trialdata": {"rt": -1000, "stimulus": "/static/audio/wordpool/LAPEL.wav", "key_press": -1, "type": "PRES_AUD", "word": "lapel", "wordID": 799, "conditions": [24, 1600, "a", 24000], "trial": 2, "serialpos": 0, "trial_type": "single-audio", "trial_index": 89, "time_elapsed": 390246, "internal_node_id": "0.0-62.0"}}, {"uniqueid": "MTK0577:32AT8R96GMGKXZH4G7W8V8EVBSZUSY", "current_trial": 90, "dateTime": 1511217518389, "trialdata": {"rt": -1000, "stimulus": "/static/audio/wordpool/TRENCH.wav", "key_press": -1, "type": "PRES_AUD", "word": "trench", "wordID": 1502, "conditions": [24, 1600, "a", 24000], "trial": 2, "serialpos": 1, "trial_type": "single-audio", "trial_index": 90, "time_elapsed": 392822, "internal_node_id": "0.0-63.0"}}, {"uniqueid": "MTK0577:32AT8R96GMGKXZH4G7W8V8EVBSZUSY", "current_trial": 91, "dateTime": 1511217521159, "trialdata": {"rt": -1000, "stimulus": "/static/audio/wordpool/GAVEL.wav", "key_press": -1, "type": "PRES_AUD", "word": "gavel", "wordID": 626, "conditions": [24, 1600, "a", 24000], "trial": 2, "serialpos": 2, "trial_type": "single-audio", "trial_index": 91, "time_elapsed": 395591, "internal_node_id": "0.0-64.0"}}, {"uniqueid": "MTK0577:32AT8R96GMGKXZH4G7W8V8EVBSZUSY", "current_trial": 92, "dateTime": 1511217523931, "trialdata": {"rt": -1000, "stimulus": "/static/audio/wordpool/FLUTE.wav", "key_press": -1, "type": "PRES_AUD", "word": "flute", "wordID": 584, "conditions": [24, 1600, "a", 24000], "trial": 2, "serialpos": 3, "trial_type": "single-audio", "trial_index": 92, "time_elapsed": 398364, "internal_node_id": "0.0-65.0"}}, {"uniqueid": "MTK0577:32AT8R96GMGKXZH4G7W8V8EVBSZUSY", "current_trial": 93, "dateTime": 1511217526397, "trialdata": {"rt": -1000, "stimulus": "/static/audio/wordpool/DONOR.wav", "key_press": -1, "type": "PRES_AUD", "word": "donor", "wordID": 484, "conditions": [24, 1600, "a", 24000], "trial": 2, "serialpos": 4, "trial_type": "single-audio", "trial_index": 93, "time_elapsed": 400829, "internal_node_id": "0.0-66.0"}}, {"uniqueid": "MTK0577:32AT8R96GMGKXZH4G7W8V8EVBSZUSY", "current_trial": 94, "dateTime": 1511217528919, "trialdata": {"rt": -1000, "stimulus": "/static/audio/wordpool/BANKER.wav", "key_press": -1, "type": "PRES_AUD", "word": "banker", "wordID": 83, "conditions": [24, 1600, "a", 24000], "trial": 2, "serialpos": 5, "trial_type": "single-audio", "trial_index": 94, "time_elapsed": 403352, "internal_node_id": "0.0-67.0"}}, {"uniqueid": "MTK0577:32AT8R96GMGKXZH4G7W8V8EVBSZUSY", "current_trial": 95, "dateTime": 1511217531339, "trialdata": {"rt": -1000, "stimulus": "/static/audio/wordpool/FIREMAN.wav", "key_press": -1, "type": "PRES_AUD", "word": "fireman", "wordID": 568, "conditions": [24, 1600, "a", 24000], "trial": 2, "serialpos": 6, "trial_type": "single-audio", "trial_index": 95, "time_elapsed": 405772, "internal_node_id": "0.0-68.0"}}, {"uniqueid": "MTK0577:32AT8R96GMGKXZH4G7W8V8EVBSZUSY", "current_trial": 96, "dateTime": 1511217534126, "trialdata": {"rt": -1000, "stimulus": "/static/audio/wordpool/GUITAR.wav", "key_press": -1, "type": "PRES_AUD", "word": "guitar", "wordID": 669, "conditions": [24, 1600, "a", 24000], "trial": 2, "serialpos": 7, "trial_type": "single-audio", "trial_index": 96, "time_elapsed": 408559, "internal_node_id": "0.0-69.0"}}, {"uniqueid": "MTK0577:32AT8R96GMGKXZH4G7W8V8EVBSZUSY", "current_trial": 97, "dateTime": 1511217536617, "trialdata": {"rt": -1000, "stimulus": "/static/audio/wordpool/HEADBAND.wav", "key_press": -1, "type": "PRES_AUD", "word": "headband", "wordID": 695, "conditions": [24, 1600, "a", 24000], "trial": 2, "serialpos": 8, "trial_type": "single-audio", "trial_index": 97, "time_elapsed": 411049, "internal_node_id": "0.0-70.0"}}, {"uniqueid": "MTK0577:32AT8R96GMGKXZH4G7W8V8EVBSZUSY", "current_trial": 98, "dateTime": 1511217539380, "trialdata": {"rt": -1000, "stimulus": "/static/audio/wordpool/SWORD.wav", "key_press": -1, "type": "PRES_AUD", "word": "sword", "wordID": 1422, "conditions": [24, 1600, "a", 24000], "trial": 2, "serialpos": 9, "trial_type": "single-audio", "trial_index": 98, "time_elapsed": 413813, "internal_node_id": "0.0-71.0"}}, {"uniqueid": "MTK0577:32AT8R96GMGKXZH4G7W8V8EVBSZUSY", "current_trial": 99, "dateTime": 1511217541918, "trialdata": {"rt": -1000, "stimulus": "/static/audio/wordpool/KNIFE.wav", "key_press": -1, "type": "PRES_AUD", "word": "knife", "wordID": 784, "conditions": [24, 1600, "a", 24000], "trial": 2, "serialpos": 10, "trial_type": "single-audio", "trial_index": 99, "time_elapsed": 416351, "internal_node_id": "0.0-72.0"}}, {"uniqueid": "MTK0577:32AT8R96GMGKXZH4G7W8V8EVBSZUSY", "current_trial": 100, "dateTime": 1511217544683, "trialdata": {"rt": -1000, "stimulus": "/static/audio/wordpool/MUFFIN.wav", "key_press": -1, "type": "PRES_AUD", "word": "muffin", "wordID": 928, "conditions": [24, 1600, "a", 24000], "trial": 2, "serialpos": 11, "trial_type": "single-audio", "trial_index": 100, "time_elapsed": 419116, "internal_node_id": "0.0-73.0"}}, {"uniqueid": "MTK0577:32AT8R96GMGKXZH4G7W8V8EVBSZUSY", "current_trial": 101, "dateTime": 1511217547192, "trialdata": {"rt": -1000, "stimulus": "/static/audio/wordpool/BLUEPRINT.wav", "key_press": -1, "type": "PRES_AUD", "word": "blueprint", "wordID": 141, "conditions": [24, 1600, "a", 24000], "trial": 2, "serialpos": 12, "trial_type": "single-audio", "trial_index": 101, "time_elapsed": 421625, "internal_node_id": "0.0-74.0"}}, {"uniqueid": "MTK0577:32AT8R96GMGKXZH4G7W8V8EVBSZUSY", "current_trial": 102, "dateTime": 1511217549808, "trialdata": {"rt": -1000, "stimulus": "/static/audio/wordpool/MESSAGE.wav", "key_press": -1, "type": "PRES_AUD", "word": "message", "wordID": 887, "conditions": [24, 1600, "a", 24000], "trial": 2, "serialpos": 13, "trial_type": "single-audio", "trial_index": 102, "time_elapsed": 424241, "internal_node_id": "0.0-75.0"}}, {"uniqueid": "MTK0577:32AT8R96GMGKXZH4G7W8V8EVBSZUSY", "current_trial": 103, "dateTime": 1511217552377, "trialdata": {"rt": -1000, "stimulus": "/static/audio/wordpool/CASHIER.wav", "key_press": -1, "type": "PRES_AUD", "word": "cashier", "wordID": 253, "conditions": [24, 1600, "a", 24000], "trial": 2, "serialpos": 14, "trial_type": "single-audio", "trial_index": 103, "time_elapsed": 426809, "internal_node_id": "0.0-76.0"}}, {"uniqueid": "MTK0577:32AT8R96GMGKXZH4G7W8V8EVBSZUSY", "current_trial": 104, "dateTime": 1511217555023, "trialdata": {"rt": -1000, "stimulus": "/static/audio/wordpool/BEAKER.wav", "key_press": -1, "type": "PRES_AUD", "word": "beaker", "wordID": 103, "conditions": [24, 1600, "a", 24000], "trial": 2, "serialpos": 15, "trial_type": "single-audio", "trial_index": 104, "time_elapsed": 429456, "internal_node_id": "0.0-77.0"}}, {"uniqueid": "MTK0577:32AT8R96GMGKXZH4G7W8V8EVBSZUSY", "current_trial": 105, "dateTime": 1511217557451, "trialdata": {"rt": -1000, "stimulus": "/static/audio/wordpool/FEMALE.wav", "key_press": -1, "type": "PRES_AUD", "word": "female", "wordID": 558, "conditions": [24, 1600, "a", 24000], "trial": 2, "serialpos": 16, "trial_type": "single-audio", "trial_index": 105, "time_elapsed": 431884, "internal_node_id": "0.0-78.0"}}, {"uniqueid": "MTK0577:32AT8R96GMGKXZH4G7W8V8EVBSZUSY", "current_trial": 106, "dateTime": 1511217560067, "trialdata": {"rt": -1000, "stimulus": "/static/audio/wordpool/MISSILE.wav", "key_press": -1, "type": "PRES_AUD", "word": "missile", "wordID": 899, "conditions": [24, 1600, "a", 24000], "trial": 2, "serialpos": 17, "trial_type": "single-audio", "trial_index": 106, "time_elapsed": 434500, "internal_node_id": "0.0-79.0"}}, {"uniqueid": "MTK0577:32AT8R96GMGKXZH4G7W8V8EVBSZUSY", "current_trial": 107, "dateTime": 1511217562475, "trialdata": {"rt": -1000, "stimulus": "/static/audio/wordpool/ROCKET.wav", "key_press": -1, "type": "PRES_AUD", "word": "rocket", "wordID": 1201, "conditions": [24, 1600, "a", 24000], "trial": 2, "serialpos": 18, "trial_type": "single-audio", "trial_index": 107, "time_elapsed": 436908, "internal_node_id": "0.0-80.0"}}, {"uniqueid": "MTK0577:32AT8R96GMGKXZH4G7W8V8EVBSZUSY", "current_trial": 108, "dateTime": 1511217564969, "trialdata": {"rt": -1000, "stimulus": "/static/audio/wordpool/FLASK.wav", "key_press": -1, "type": "PRES_AUD", "word": "flask", "wordID": 575, "conditions": [24, 1600, "a", 24000], "trial": 2, "serialpos": 19, "trial_type": "single-audio", "trial_index": 108, "time_elapsed": 439402, "internal_node_id": "0.0-81.0"}}, {"uniqueid": "MTK0577:32AT8R96GMGKXZH4G7W8V8EVBSZUSY", "current_trial": 109, "dateTime": 1511217567458, "trialdata": {"rt": -1000, "stimulus": "/static/audio/wordpool/CANDY.wav", "key_press": -1, "type": "PRES_AUD", "word": "candy", "wordID": 229, "conditions": [24, 1600, "a", 24000], "trial": 2, "serialpos": 20, "trial_type": "single-audio", "trial_index": 109, "time_elapsed": 441891, "internal_node_id": "0.0-82.0"}}, {"uniqueid": "MTK0577:32AT8R96GMGKXZH4G7W8V8EVBSZUSY", "current_trial": 110, "dateTime": 1511217569973, "trialdata": {"rt": -1000, "stimulus": "/static/audio/wordpool/CHEMIST.wav", "key_press": -1, "type": "PRES_AUD", "word": "chemist", "wordID": 291, "conditions": [24, 1600, "a", 24000], "trial": 2, "serialpos": 21, "trial_type": "single-audio", "trial_index": 110, "time_elapsed": 444406, "internal_node_id": "0.0-83.0"}}, {"uniqueid": "MTK0577:32AT8R96GMGKXZH4G7W8V8EVBSZUSY", "current_trial": 111, "dateTime": 1511217572695, "trialdata": {"rt": -1000, "stimulus": "/static/audio/wordpool/TRUCK.wav", "key_press": -1, "type": "PRES_AUD", "word": "truck", "wordID": 1511, "conditions": [24, 1600, "a", 24000], "trial": 2, "serialpos": 22, "trial_type": "single-audio", "trial_index": 111, "time_elapsed": 447127, "internal_node_id": "0.0-84.0"}}, {"uniqueid": "MTK0577:32AT8R96GMGKXZH4G7W8V8EVBSZUSY", "current_trial": 112, "dateTime": 1511217575340, "trialdata": {"rt": -1000, "stimulus": "/static/audio/wordpool/PLAZA.wav", "key_press": -1, "type": "PRES_AUD", "word": "plaza", "wordID": 1087, "conditions": [24, 1600, "a", 24000], "trial": 2, "serialpos": 23, "trial_type": "single-audio", "trial_index": 112, "time_elapsed": 449773, "internal_node_id": "0.0-85.0"}}, {"uniqueid": "MTK0577:32AT8R96GMGKXZH4G7W8V8EVBSZUSY", "current_trial": 113, "dateTime": 1511217576711, "trialdata": {"rt": -1, "stimulus": "", "key_press": -1, "type": "PRE_RECALL_DELAY", "trial_type": "single-stim", "trial_index": 113, "time_elapsed": 451144, "internal_node_id": "0.0-86.0-0.0"}}, {"uniqueid": "MTK0577:32AT8R96GMGKXZH4G7W8V8EVBSZUSY", "current_trial": 114, "dateTime": 1511217577214, "trialdata": {"rt": -1000, "stimulus": "/static/audio/400Hz.wav", "key_press": -1, "type": "PRE_RECALL_ALERT", "trial_type": "single-audio", "trial_index": 114, "time_elapsed": 451647, "internal_node_id": "0.0-87.0"}}, {"uniqueid": "MTK0577:32AT8R96GMGKXZH4G7W8V8EVBSZUSY", "current_trial": 115, "dateTime": 1511217637225, "trialdata": {"rt": [5290, 6113, 7283, 8825, 10291, 11498, 12273, 12986, 13378, 14658, 16490, 17489, 18835, 19498, 20177, 20618, 21578, 23969, 26516, 27804, 28531, 29482, 29858, 30898, 32913, 42018, 42450, 44026, 45785, 47442, 48114, 49297, 52932, 53650, 54387, 54805, 56041, 57080, 57330, 58618, 59977], "recwords": ["there", "were", "no", "words", "again", "it", "was", "only", "a", "black", "screen", "with", "the", "last", "set", "as", "a", "*****", "there", "were", "only", "words", "the", "first", "screen", "must", "be", "a", "error", "in", "the", "survey", "not", "sure", "what", "is", "wrong", "with", "", "it", "i"], "type": "FREE_RECALL", "conditions": [24, 1600, "a", 24000], "trial": 2, "trial_type": "free-recall", "trial_index": 115, "time_elapsed": 511653, "internal_node_id": "0.0-88.0-0.0"}}, {"uniqueid": "MTK0577:32AT8R96GMGKXZH4G7W8V8EVBSZUSY", "current_trial": 116, "dateTime": 1511217640989, "trialdata": {"rt": 1763, "key_press": 32, "type": "INSTRUCTIONS", "trial_type": "text", "trial_index": 116, "time_elapsed": 515422, "internal_node_id": "0.0-89.0"}}, {"uniqueid": "MTK0577:32AT8R96GMGKXZH4G7W8V8EVBSZUSY", "current_trial": 117, "dateTime": 1511217666997, "trialdata": {"rt": [2314, 3690, 5114, 7010, 8330, 9794, 11138, 12906, 15002, 16586, 18274, 20283], "responses": ["13", "10", "7", "12", "6", "14", "14", "19", "11", "21", "12", "20"], "num1": [3, 2, 3, 2, 1, 7, 7, 7, 2, 9, 7, 8, 5], "num2": [6, 5, 2, 4, 4, 2, 3, 4, 8, 4, 4, 6, 7], "num3": [4, 3, 2, 6, 1, 5, 4, 8, 1, 8, 1, 6, 9], "type": "DISTRACTOR", "conditions": [12, 1600, "a", 24000], "trial": 3, "trial_type": "math-distractor", "trial_index": 117, "time_elapsed": 541429, "internal_node_id": "0.0-90.0"}}, {"uniqueid": "MTK0577:32AT8R96GMGKXZH4G7W8V8EVBSZUSY", "current_trial": 118, "dateTime": 1511217669998, "trialdata": {"rt": -1, "stimulus": "<p id=\"stim\">10</p>", "key_press": -1, "trial_type": "single-stim", "trial_index": 118, "time_elapsed": 544430, "internal_node_id": "0.0-91.0-0.0"}}, {"uniqueid": "MTK0577:32AT8R96GMGKXZH4G7W8V8EVBSZUSY", "current_trial": 119, "dateTime": 1511217670999, "trialdata": {"rt": -1, "stimulus": "<p id=\"stim\">9</p>", "key_press": -1, "trial_type": "single-stim", "trial_index": 119, "time_elapsed": 545432, "internal_node_id": "0.0-91.0-1.0"}}, {"uniqueid": "MTK0577:32AT8R96GMGKXZH4G7W8V8EVBSZUSY", "current_trial": 120, "dateTime": 1511217672001, "trialdata": {"rt": -1, "stimulus": "<p id=\"stim\">8</p>", "key_press": -1, "trial_type": "single-stim", "trial_index": 120, "time_elapsed": 546433, "internal_node_id": "0.0-91.0-2.0"}}, {"uniqueid": "MTK0577:32AT8R96GMGKXZH4G7W8V8EVBSZUSY", "current_trial": 121, "dateTime": 1511217673002, "trialdata": {"rt": -1, "stimulus": "<p id=\"stim\">7</p>", "key_press": -1, "trial_type": "single-stim", "trial_index": 121, "time_elapsed": 547435, "internal_node_id": "0.0-91.0-3.0"}}, {"uniqueid": "MTK0577:32AT8R96GMGKXZH4G7W8V8EVBSZUSY", "current_trial": 122, "dateTime": 1511217674004, "trialdata": {"rt": -1, "stimulus": "<p id=\"stim\">6</p>", "key_press": -1, "trial_type": "single-stim", "trial_index": 122, "time_elapsed": 548437, "internal_node_id": "0.0-91.0-4.0"}}, {"uniqueid": "MTK0577:32AT8R96GMGKXZH4G7W8V8EVBSZUSY", "current_trial": 123, "dateTime": 1511217675007, "trialdata": {"rt": -1, "stimulus": "<p id=\"stim\">5</p>", "key_press": -1, "trial_type": "single-stim", "trial_index": 123, "time_elapsed": 549439, "internal_node_id": "0.0-91.0-5.0"}}, {"uniqueid": "MTK0577:32AT8R96GMGKXZH4G7W8V8EVBSZUSY", "current_trial": 124, "dateTime": 1511217676012, "trialdata": {"rt": -1, "stimulus": "<p id=\"stim\">4</p>", "key_press": -1, "trial_type": "single-stim", "trial_index": 124, "time_elapsed": 550445, "internal_node_id": "0.0-91.0-6.0"}}, {"uniqueid": "MTK0577:32AT8R96GMGKXZH4G7W8V8EVBSZUSY", "current_trial": 125, "dateTime": 1511217677015, "trialdata": {"rt": -1, "stimulus": "<p id=\"stim\">3</p>", "key_press": -1, "trial_type": "single-stim", "trial_index": 125, "time_elapsed": 551447, "internal_node_id": "0.0-91.0-7.0"}}, {"uniqueid": "MTK0577:32AT8R96GMGKXZH4G7W8V8EVBSZUSY", "current_trial": 126, "dateTime": 1511217678016, "trialdata": {"rt": -1, "stimulus": "<p id=\"stim\">2</p>", "key_press": -1, "trial_type": "single-stim", "trial_index": 126, "time_elapsed": 552449, "internal_node_id": "0.0-91.0-8.0"}}, {"uniqueid": "MTK0577:32AT8R96GMGKXZH4G7W8V8EVBSZUSY", "current_trial": 127, "dateTime": 1511217679018, "trialdata": {"rt": -1, "stimulus": "<p id=\"stim\">1</p>", "key_press": -1, "trial_type": "single-stim", "trial_index": 127, "time_elapsed": 553451, "internal_node_id": "0.0-91.0-9.0"}}, {"uniqueid": "MTK0577:32AT8R96GMGKXZH4G7W8V8EVBSZUSY", "current_trial": 128, "dateTime": 1511217680519, "trialdata": {"rt": -1, "stimulus": "<p id=\"stim\">+</p>", "key_press": -1, "type": "FIXATION", "trial_type": "single-stim", "trial_index": 128, "time_elapsed": 554951, "internal_node_id": "0.0-92.0-0.0"}}, {"uniqueid": "MTK0577:32AT8R96GMGKXZH4G7W8V8EVBSZUSY", "current_trial": 129, "dateTime": 1511217683100, "trialdata": {"rt": -1000, "stimulus": "/static/audio/wordpool/CANAL.wav", "key_press": -1, "type": "PRES_AUD", "word": "canal", "wordID": 225, "conditions": [12, 1600, "a", 24000], "trial": 3, "serialpos": 0, "trial_type": "single-audio", "trial_index": 129, "time_elapsed": 557532, "internal_node_id": "0.0-93.0"}}, {"uniqueid": "MTK0577:32AT8R96GMGKXZH4G7W8V8EVBSZUSY", "current_trial": 130, "dateTime": 1511217685552, "trialdata": {"rt": -1000, "stimulus": "/static/audio/wordpool/LAGOON.wav", "key_press": -1, "type": "PRES_AUD", "word": "lagoon", "wordID": 794, "conditions": [12, 1600, "a", 24000], "trial": 3, "serialpos": 1, "trial_type": "single-audio", "trial_index": 130, "time_elapsed": 559985, "internal_node_id": "0.0-94.0"}}, {"uniqueid": "MTK0577:32AT8R96GMGKXZH4G7W8V8EVBSZUSY", "current_trial": 131, "dateTime": 1511217688144, "trialdata": {"rt": -1000, "stimulus": "/static/audio/wordpool/CABBAGE.wav", "key_press": -1, "type": "PRES_AUD", "word": "cabbage", "wordID": 209, "conditions": [12, 1600, "a", 24000], "trial": 3, "serialpos": 2, "trial_type": "single-audio", "trial_index": 131, "time_elapsed": 562577, "internal_node_id": "0.0-95.0"}}, {"uniqueid": "MTK0577:32AT8R96GMGKXZH4G7W8V8EVBSZUSY", "current_trial": 132, "dateTime": 1511217690872, "trialdata": {"rt": -1000, "stimulus": "/static/audio/wordpool/WAITRESS.wav", "key_press": -1, "type": "PRES_AUD", "word": "waitress", "wordID": 1580, "conditions": [12, 1600, "a", 24000], "trial": 3, "serialpos": 3, "trial_type": "single-audio", "trial_index": 132, "time_elapsed": 565305, "internal_node_id": "0.0-96.0"}}, {"uniqueid": "MTK0577:32AT8R96GMGKXZH4G7W8V8EVBSZUSY", "current_trial": 133, "dateTime": 1511217693638, "trialdata": {"rt": -1000, "stimulus": "/static/audio/wordpool/DIME.wav", "key_press": -1, "type": "PRES_AUD", "word": "dime", "wordID": 465, "conditions": [12, 1600, "a", 24000], "trial": 3, "serialpos": 4, "trial_type": "single-audio", "trial_index": 133, "time_elapsed": 568071, "internal_node_id": "0.0-97.0"}}, {"uniqueid": "MTK0577:32AT8R96GMGKXZH4G7W8V8EVBSZUSY", "current_trial": 134, "dateTime": 1511217696097, "trialdata": {"rt": -1000, "stimulus": "/static/audio/wordpool/PASTRY.wav", "key_press": -1, "type": "PRES_AUD", "word": "pastry", "wordID": 1021, "conditions": [12, 1600, "a", 24000], "trial": 3, "serialpos": 5, "trial_type": "single-audio", "trial_index": 134, "time_elapsed": 570530, "internal_node_id": "0.0-98.0"}}, {"uniqueid": "MTK0577:32AT8R96GMGKXZH4G7W8V8EVBSZUSY", "current_trial": 135, "dateTime": 1511217698599, "trialdata": {"rt": -1000, "stimulus": "/static/audio/wordpool/NECKLACE.wav", "key_press": -1, "type": "PRES_AUD", "word": "necklace", "wordID": 939, "conditions": [12, 1600, "a", 24000], "trial": 3, "serialpos": 6, "trial_type": "single-audio", "trial_index": 135, "time_elapsed": 573032, "internal_node_id": "0.0-99.0"}}, {"uniqueid": "MTK0577:32AT8R96GMGKXZH4G7W8V8EVBSZUSY", "current_trial": 136, "dateTime": 1511217701265, "trialdata": {"rt": -1000, "stimulus": "/static/audio/wordpool/CHIPMUNK.wav", "key_press": -1, "type": "PRES_AUD", "word": "chipmunk", "wordID": 303, "conditions": [12, 1600, "a", 24000], "trial": 3, "serialpos": 7, "trial_type": "single-audio", "trial_index": 136, "time_elapsed": 575697, "internal_node_id": "0.0-100.0"}}, {"uniqueid": "MTK0577:32AT8R96GMGKXZH4G7W8V8EVBSZUSY", "current_trial": 137, "dateTime": 1511217703873, "trialdata": {"rt": -1000, "stimulus": "/static/audio/wordpool/SIDEWALK.wav", "key_press": -1, "type": "PRES_AUD", "word": "sidewalk", "wordID": 1302, "conditions": [12, 1600, "a", 24000], "trial": 3, "serialpos": 8, "trial_type": "single-audio", "trial_index": 137, "time_elapsed": 578306, "internal_node_id": "0.0-101.0"}}, {"uniqueid": "MTK0577:32AT8R96GMGKXZH4G7W8V8EVBSZUSY", "current_trial": 138, "dateTime": 1511217706436, "trialdata": {"rt": -1000, "stimulus": "/static/audio/wordpool/TURNIP.wav", "key_press": -1, "type": "PRES_AUD", "word": "turnip", "wordID": 1520, "conditions": [12, 1600, "a", 24000], "trial": 3, "serialpos": 9, "trial_type": "single-audio", "trial_index": 138, "time_elapsed": 580869, "internal_node_id": "0.0-102.0"}}, {"uniqueid": "MTK0577:32AT8R96GMGKXZH4G7W8V8EVBSZUSY", "current_trial": 139, "dateTime": 1511217709013, "trialdata": {"rt": -1000, "stimulus": "/static/audio/wordpool/PROTON.wav", "key_press": -1, "type": "PRES_AUD", "word": "proton", "wordID": 1131, "conditions": [12, 1600, "a", 24000], "trial": 3, "serialpos": 10, "trial_type": "single-audio", "trial_index": 139, "time_elapsed": 583446, "internal_node_id": "0.0-103.0"}}, {"uniqueid": "MTK0577:32AT8R96GMGKXZH4G7W8V8EVBSZUSY", "current_trial": 140, "dateTime": 1511217711806, "trialdata": {"rt": -1000, "stimulus": "/static/audio/wordpool/JUGGLER.wav", "key_press": -1, "type": "PRES_AUD", "word": "juggler", "wordID": 762, "conditions": [12, 1600, "a", 24000], "trial": 3, "serialpos": 11, "trial_type": "single-audio", "trial_index": 140, "time_elapsed": 586239, "internal_node_id": "0.0-104.0"}}, {"uniqueid": "MTK0577:32AT8R96GMGKXZH4G7W8V8EVBSZUSY", "current_trial": 141, "dateTime": 1511217713040, "trialdata": {"rt": -1, "stimulus": "", "key_press": -1, "type": "PRE_RECALL_DELAY", "trial_type": "single-stim", "trial_index": 141, "time_elapsed": 587473, "internal_node_id": "0.0-105.0-0.0"}}, {"uniqueid": "MTK0577:32AT8R96GMGKXZH4G7W8V8EVBSZUSY", "current_trial": 142, "dateTime": 1511217713541, "trialdata": {"rt": -1000, "stimulus": "/static/audio/400Hz.wav", "key_press": -1, "type": "PRE_RECALL_ALERT", "trial_type": "single-audio", "trial_index": 142, "time_elapsed": 587973, "internal_node_id": "0.0-106.0"}}, {"uniqueid": "MTK0577:32AT8R96GMGKXZH4G7W8V8EVBSZUSY", "current_trial": 143, "dateTime": 1511217773554, "trialdata": {"rt": [2926, 4255, 5384, 7572, 8189, 8724, 10814, 11692, 14501, 17444, 17973, 18341, 18940, 19556, 19924, 21125, 22565, 23005, 23870, 24156, 25357, 26069, 27110, 27781, 28860, 29141, 30846, 31275, 32813, 34006, 34405, 35081, 36140, 37932, 38445, 39053, 40364, 41677, 42052, 43207, 43708, 44468, 45653, 47766, 48063, 48637, 49756, 50645, 51132, 51532, 52012, 52700, 53148, 54530, 56475, 57235, 58581, 59470], "recwords": ["still", "more", "blank", "screen", "and", "not", "any", "words", "just", "*****", "at", "the", "very", "end", "of", "it", "then", "it", "goes", "to", "this", "where", "i", "am", "suppose", "to", "enter", "the", "words", "there", "is", "the", "math", "problems", "that", "are", "working", "right", "", "but", "the", "words", "aren't", "coming", "on", "the", "screen", "for", "me", "to", "be", "able", "to", "remember", "i", "don't", "know", "what"], "type": "FREE_RECALL", "conditions": [12, 1600, "a", 24000], "trial": 3, "trial_type": "free-recall", "trial_index": 143, "time_elapsed": 647977, "internal_node_id": "0.0-107.0-0.0"}}, {"uniqueid": "MTK0577:32AT8R96GMGKXZH4G7W8V8EVBSZUSY", "current_trial": 144, "dateTime": 1511217777347, "trialdata": {"rt": 1792, "key_press": 32, "type": "INSTRUCTIONS", "trial_type": "text", "trial_index": 144, "time_elapsed": 651780, "internal_node_id": "0.0-108.0"}}, {"uniqueid": "MTK0577:32AT8R96GMGKXZH4G7W8V8EVBSZUSY", "current_trial": 145, "dateTime": 1511217791354, "trialdata": {"rt": [1972, 4564, 6700, 8748, 10660], "responses": ["22", "14", "16", "23", "20"], "num1": [5, 2, 6, 9, 8, 8], "num2": [9, 3, 1, 8, 5, 9], "num3": [8, 9, 9, 6, 7, 8], "type": "DISTRACTOR", "conditions": [12, 1600, "v", 12000], "trial": 4, "trial_type": "math-distractor", "trial_index": 145, "time_elapsed": 665786, "internal_node_id": "0.0-109.0"}}, {"uniqueid": "MTK0577:32AT8R96GMGKXZH4G7W8V8EVBSZUSY", "current_trial": 146, "dateTime": 1511217794356, "trialdata": {"rt": -1, "stimulus": "<p id=\"stim\">10</p>", "key_press": -1, "trial_type": "single-stim", "trial_index": 146, "time_elapsed": 668789, "internal_node_id": "0.0-110.0-0.0"}}, {"uniqueid": "MTK0577:32AT8R96GMGKXZH4G7W8V8EVBSZUSY", "current_trial": 147, "dateTime": 1511217795358, "trialdata": {"rt": -1, "stimulus": "<p id=\"stim\">9</p>", "key_press": -1, "trial_type": "single-stim", "trial_index": 147, "time_elapsed": 669791, "internal_node_id": "0.0-110.0-1.0"}}, {"uniqueid": "MTK0577:32AT8R96GMGKXZH4G7W8V8EVBSZUSY", "current_trial": 148, "dateTime": 1511217796359, "trialdata": {"rt": -1, "stimulus": "<p id=\"stim\">8</p>", "key_press": -1, "trial_type": "single-stim", "trial_index": 148, "time_elapsed": 670792, "internal_node_id": "0.0-110.0-2.0"}}, {"uniqueid": "MTK0577:32AT8R96GMGKXZH4G7W8V8EVBSZUSY", "current_trial": 149, "dateTime": 1511217797362, "trialdata": {"rt": -1, "stimulus": "<p id=\"stim\">7</p>", "key_press": -1, "trial_type": "single-stim", "trial_index": 149, "time_elapsed": 671794, "internal_node_id": "0.0-110.0-3.0"}}, {"uniqueid": "MTK0577:32AT8R96GMGKXZH4G7W8V8EVBSZUSY", "current_trial": 150, "dateTime": 1511217798365, "trialdata": {"rt": -1, "stimulus": "<p id=\"stim\">6</p>", "key_press": -1, "trial_type": "single-stim", "trial_index": 150, "time_elapsed": 672798, "internal_node_id": "0.0-110.0-4.0"}}, {"uniqueid": "MTK0577:32AT8R96GMGKXZH4G7W8V8EVBSZUSY", "current_trial": 151, "dateTime": 1511217799370, "trialdata": {"rt": -1, "stimulus": "<p id=\"stim\">5</p>", "key_press": -1, "trial_type": "single-stim", "trial_index": 151, "time_elapsed": 673803, "internal_node_id": "0.0-110.0-5.0"}}, {"uniqueid": "MTK0577:32AT8R96GMGKXZH4G7W8V8EVBSZUSY", "current_trial": 152, "dateTime": 1511217800374, "trialdata": {"rt": -1, "stimulus": "<p id=\"stim\">4</p>", "key_press": -1, "trial_type": "single-stim", "trial_index": 152, "time_elapsed": 674806, "internal_node_id": "0.0-110.0-6.0"}}, {"uniqueid": "MTK0577:32AT8R96GMGKXZH4G7W8V8EVBSZUSY", "current_trial": 153, "dateTime": 1511217801375, "trialdata": {"rt": -1, "stimulus": "<p id=\"stim\">3</p>", "key_press": -1, "trial_type": "single-stim", "trial_index": 153, "time_elapsed": 675808, "internal_node_id": "0.0-110.0-7.0"}}, {"uniqueid": "MTK0577:32AT8R96GMGKXZH4G7W8V8EVBSZUSY", "current_trial": 154, "dateTime": 1511217802378, "trialdata": {"rt": -1, "stimulus": "<p id=\"stim\">2</p>", "key_press": -1, "trial_type": "single-stim", "trial_index": 154, "time_elapsed": 676811, "internal_node_id": "0.0-110.0-8.0"}}, {"uniqueid": "MTK0577:32AT8R96GMGKXZH4G7W8V8EVBSZUSY", "current_trial": 155, "dateTime": 1511217803379, "trialdata": {"rt": -1, "stimulus": "<p id=\"stim\">1</p>", "key_press": -1, "trial_type": "single-stim", "trial_index": 155, "time_elapsed": 677812, "internal_node_id": "0.0-110.0-9.0"}}, {"uniqueid": "MTK0577:32AT8R96GMGKXZH4G7W8V8EVBSZUSY", "current_trial": 156, "dateTime": 1511217804881, "trialdata": {"rt": -1, "stimulus": "<p id=\"stim\">+</p>", "key_press": -1, "type": "FIXATION", "trial_type": "single-stim", "trial_index": 156, "time_elapsed": 679314, "internal_node_id": "0.0-111.0-0.0"}}, {"uniqueid": "MTK0577:32AT8R96GMGKXZH4G7W8V8EVBSZUSY", "current_trial": 157, "dateTime": 1511217806483, "trialdata": {"rt": -1, "stimulus": "<p id=\"stim\">PRINCESS</p>", "key_press": -1, "type": "PRES_VIS", "word": "princess", "wordID": 1124, "conditions": [12, 1600, "v", 12000], "trial": 4, "serialpos": 0, "trial_type": "single-stim", "trial_index": 157, "time_elapsed": 680915, "internal_node_id": "0.0-112.0"}}, {"uniqueid": "MTK0577:32AT8R96GMGKXZH4G7W8V8EVBSZUSY", "current_trial": 158, "dateTime": 1511217809048, "trialdata": {"rt": -1, "stimulus": "<p id=\"stim\">GARLIC</p>", "key_press": -1, "type": "PRES_VIS", "word": "garlic", "wordID": 623, "conditions": [12, 1600, "v", 12000], "trial": 4, "serialpos": 1, "trial_type": "single-stim", "trial_index": 158, "time_elapsed": 683480, "internal_node_id": "0.0-113.0"}}, {"uniqueid": "MTK0577:32AT8R96GMGKXZH4G7W8V8EVBSZUSY", "current_trial": 159, "dateTime": 1511217811680, "trialdata": {"rt": -1, "stimulus": "<p id=\"stim\">SCARECROW</p>", "key_press": -1, "type": "PRES_VIS", "word": "scarecrow", "wordID": 1244, "conditions": [12, 1600, "v", 12000], "trial": 4, "serialpos": 2, "trial_type": "single-stim", "trial_index": 159, "time_elapsed": 686113, "internal_node_id": "0.0-114.0"}}, {"uniqueid": "MTK0577:32AT8R96GMGKXZH4G7W8V8EVBSZUSY", "current_trial": 160, "dateTime": 1511217814295, "trialdata": {"rt": -1, "stimulus": "<p id=\"stim\">SCULPTURE</p>", "key_press": -1, "type": "PRES_VIS", "word": "sculpture", "wordID": 1257, "conditions": [12, 1600, "v", 12000], "trial": 4, "serialpos": 3, "trial_type": "single-stim", "trial_index": 160, "time_elapsed": 688728, "internal_node_id": "0.0-115.0"}}, {"uniqueid": "MTK0577:32AT8R96GMGKXZH4G7W8V8EVBSZUSY", "current_trial": 161, "dateTime": 1511217816835, "trialdata": {"rt": -1, "stimulus": "<p id=\"stim\">SISTER</p>", "key_press": -1, "type": "PRES_VIS", "word": "sister", "wordID": 1311, "conditions": [12, 1600, "v", 12000], "trial": 4, "serialpos": 4, "trial_type": "single-stim", "trial_index": 161, "time_elapsed": 691267, "internal_node_id": "0.0-116.0"}}, {"uniqueid": "MTK0577:32AT8R96GMGKXZH4G7W8V8EVBSZUSY", "current_trial": 162, "dateTime": 1511217819376, "trialdata": {"rt": -1, "stimulus": "<p id=\"stim\">PARROT</p>", "key_press": -1, "type": "PRES_VIS", "word": "parrot", "wordID": 1014, "conditions": [12, 1600, "v", 12000], "trial": 4, "serialpos": 5, "trial_type": "single-stim", "trial_index": 162, "time_elapsed": 693809, "internal_node_id": "0.0-117.0"}}, {"uniqueid": "MTK0577:32AT8R96GMGKXZH4G7W8V8EVBSZUSY", "current_trial": 163, "dateTime": 1511217821883, "trialdata": {"rt": -1, "stimulus": "<p id=\"stim\">CONVICT</p>", "key_press": -1, "type": "PRES_VIS", "word": "convict", "wordID": 370, "conditions": [12, 1600, "v", 12000], "trial": 4, "serialpos": 6, "trial_type": "single-stim", "trial_index": 163, "time_elapsed": 696316, "internal_node_id": "0.0-118.0"}}, {"uniqueid": "MTK0577:32AT8R96GMGKXZH4G7W8V8EVBSZUSY", "current_trial": 164, "dateTime": 1511217824487, "trialdata": {"rt": -1, "stimulus": "<p id=\"stim\">SERVANT</p>", "key_press": -1, "type": "PRES_VIS", "word": "servant", "wordID": 1270, "conditions": [12, 1600, "v", 12000], "trial": 4, "serialpos": 7, "trial_type": "single-stim", "trial_index": 164, "time_elapsed": 698920, "internal_node_id": "0.0-119.0"}}, {"uniqueid": "MTK0577:32AT8R96GMGKXZH4G7W8V8EVBSZUSY", "current_trial": 165, "dateTime": 1511217826899, "trialdata": {"rt": -1, "stimulus": "<p id=\"stim\">SALAD</p>", "key_press": -1, "type": "PRES_VIS", "word": "salad", "wordID": 1223, "conditions": [12, 1600, "v", 12000], "trial": 4, "serialpos": 8, "trial_type": "single-stim", "trial_index": 165, "time_elapsed": 701331, "internal_node_id": "0.0-120.0"}}, {"uniqueid": "MTK0577:32AT8R96GMGKXZH4G7W8V8EVBSZUSY", "current_trial": 166, "dateTime": 1511217829432, "trialdata": {"rt": -1, "stimulus": "<p id=\"stim\">BLADE</p>", "key_press": -1, "type": "PRES_VIS", "word": "blade", "wordID": 133, "conditions": [12, 1600, "v", 12000], "trial": 4, "serialpos": 9, "trial_type": "single-stim", "trial_index": 166, "time_elapsed": 703865, "internal_node_id": "0.0-121.0"}}, {"uniqueid": "MTK0577:32AT8R96GMGKXZH4G7W8V8EVBSZUSY", "current_trial": 167, "dateTime": 1511217832130, "trialdata": {"rt": -1, "stimulus": "<p id=\"stim\">RAZOR</p>", "key_press": -1, "type": "PRES_VIS", "word": "razor", "wordID": 1170, "conditions": [12, 1600, "v", 12000], "trial": 4, "serialpos": 10, "trial_type": "single-stim", "trial_index": 167, "time_elapsed": 706562, "internal_node_id": "0.0-122.0"}}, {"uniqueid": "MTK0577:32AT8R96GMGKXZH4G7W8V8EVBSZUSY", "current_trial": 168, "dateTime": 1511217834828, "trialdata": {"rt": -1, "stimulus": "<p id=\"stim\">GYMNAST</p>", "key_press": -1, "type": "PRES_VIS", "word": "gymnast", "wordID": 674, "conditions": [12, 1600, "v", 12000], "trial": 4, "serialpos": 11, "trial_type": "single-stim", "trial_index": 168, "time_elapsed": 709261, "internal_node_id": "0.0-123.0"}}, {"uniqueid": "MTK0577:32AT8R96GMGKXZH4G7W8V8EVBSZUSY", "current_trial": 169, "dateTime": 1511217837266, "trialdata": {"rt": -1, "stimulus": "", "key_press": -1, "type": "PRE_RECALL_DELAY", "trial_type": "single-stim", "trial_index": 169, "time_elapsed": 711698, "internal_node_id": "0.0-124.0-0.0"}}, {"uniqueid": "MTK0577:32AT8R96GMGKXZH4G7W8V8EVBSZUSY", "current_trial": 170, "dateTime": 1511217837767, "trialdata": {"rt": -1000, "stimulus": "/static/audio/400Hz.wav", "key_press": -1, "type": "PRE_RECALL_ALERT", "trial_type": "single-audio", "trial_index": 170, "time_elapsed": 712199, "internal_node_id": "0.0-125.0"}}, {"uniqueid": "MTK0577:32AT8R96GMGKXZH4G7W8V8EVBSZUSY", "current_trial": 171, "dateTime": 1511217897777, "trialdata": {"rt": [3322, 5114, 7842, 9554, 10578, 12562, 20210, 32130, 41930, 44227, 45793, 50322, 53449, 57473], "recwords": ["princess", "garlic", "servant", "blade", "razor", "maid", "smtih", "sun", "worker", "king", "queen", "cook", "slave", "help"], "type": "FREE_RECALL", "conditions": [12, 1600, "v", 12000], "trial": 4, "trial_type": "free-recall", "trial_index": 171, "time_elapsed": 772204, "internal_node_id": "0.0-126.0-0.0"}}, {"uniqueid": "MTK0577:32AT8R96GMGKXZH4G7W8V8EVBSZUSY", "current_trial": 172, "dateTime": 1511217901084, "trialdata": {"rt": 1305, "key_press": 32, "type": "INSTRUCTIONS", "trial_type": "text", "trial_index": 172, "time_elapsed": 775517, "internal_node_id": "0.0-127.0"}}, {"uniqueid": "MTK0577:32AT8R96GMGKXZH4G7W8V8EVBSZUSY", "current_trial": 173, "dateTime": 1511217915091, "trialdata": {"rt": [1828, 3323, 4844, 6372, 7892, 11460], "responses": ["12", "13", "14", "20", "11", "13"], "num1": [3, 1, 3, 9, 5, 3, 7], "num2": [3, 9, 7, 6, 2, 2, 6], "num3": [6, 3, 4, 5, 4, 8, 6], "type": "DISTRACTOR", "conditions": [12, 800, "v", 12000], "trial": 5, "trial_type": "math-distractor", "trial_index": 173, "time_elapsed": 789523, "internal_node_id": "0.0-128.0"}}, {"uniqueid": "MTK0577:32AT8R96GMGKXZH4G7W8V8EVBSZUSY", "current_trial": 174, "dateTime": 1511217918093, "trialdata": {"rt": -1, "stimulus": "<p id=\"stim\">10</p>", "key_press": -1, "trial_type": "single-stim", "trial_index": 174, "time_elapsed": 792526, "internal_node_id": "0.0-129.0-0.0"}}, {"uniqueid": "MTK0577:32AT8R96GMGKXZH4G7W8V8EVBSZUSY", "current_trial": 175, "dateTime": 1511217919096, "trialdata": {"rt": -1, "stimulus": "<p id=\"stim\">9</p>", "key_press": -1, "trial_type": "single-stim", "trial_index": 175, "time_elapsed": 793529, "internal_node_id": "0.0-129.0-1.0"}}, {"uniqueid": "MTK0577:32AT8R96GMGKXZH4G7W8V8EVBSZUSY", "current_trial": 176, "dateTime": 1511217920098, "trialdata": {"rt": -1, "stimulus": "<p id=\"stim\">8</p>", "key_press": -1, "trial_type": "single-stim", "trial_index": 176, "time_elapsed": 794531, "internal_node_id": "0.0-129.0-2.0"}}, {"uniqueid": "MTK0577:32AT8R96GMGKXZH4G7W8V8EVBSZUSY", "current_trial": 177, "dateTime": 1511217921100, "trialdata": {"rt": -1, "stimulus": "<p id=\"stim\">7</p>", "key_press": -1, "trial_type": "single-stim", "trial_index": 177, "time_elapsed": 795533, "internal_node_id": "0.0-129.0-3.0"}}, {"uniqueid": "MTK0577:32AT8R96GMGKXZH4G7W8V8EVBSZUSY", "current_trial": 178, "dateTime": 1511217922101, "trialdata": {"rt": -1, "stimulus": "<p id=\"stim\">6</p>", "key_press": -1, "trial_type": "single-stim", "trial_index": 178, "time_elapsed": 796533, "internal_node_id": "0.0-129.0-4.0"}}, {"uniqueid": "MTK0577:32AT8R96GMGKXZH4G7W8V8EVBSZUSY", "current_trial": 179, "dateTime": 1511217923102, "trialdata": {"rt": -1, "stimulus": "<p id=\"stim\">5</p>", "key_press": -1, "trial_type": "single-stim", "trial_index": 179, "time_elapsed": 797535, "internal_node_id": "0.0-129.0-5.0"}}, {"uniqueid": "MTK0577:32AT8R96GMGKXZH4G7W8V8EVBSZUSY", "current_trial": 180, "dateTime": 1511217924104, "trialdata": {"rt": -1, "stimulus": "<p id=\"stim\">4</p>", "key_press": -1, "trial_type": "single-stim", "trial_index": 180, "time_elapsed": 798537, "internal_node_id": "0.0-129.0-6.0"}}, {"uniqueid": "MTK0577:32AT8R96GMGKXZH4G7W8V8EVBSZUSY", "current_trial": 181, "dateTime": 1511217925105, "trialdata": {"rt": -1, "stimulus": "<p id=\"stim\">3</p>", "key_press": -1, "trial_type": "single-stim", "trial_index": 181, "time_elapsed": 799538, "internal_node_id": "0.0-129.0-7.0"}}, {"uniqueid": "MTK0577:32AT8R96GMGKXZH4G7W8V8EVBSZUSY", "current_trial": 182, "dateTime": 1511217926106, "trialdata": {"rt": -1, "stimulus": "<p id=\"stim\">2</p>", "key_press": -1, "trial_type": "single-stim", "trial_index": 182, "time_elapsed": 800538, "internal_node_id": "0.0-129.0-8.0"}}, {"uniqueid": "MTK0577:32AT8R96GMGKXZH4G7W8V8EVBSZUSY", "current_trial": 183, "dateTime": 1511217927108, "trialdata": {"rt": -1, "stimulus": "<p id=\"stim\">1</p>", "key_press": -1, "trial_type": "single-stim", "trial_index": 183, "time_elapsed": 801540, "internal_node_id": "0.0-129.0-9.0"}}, {"uniqueid": "MTK0577:32AT8R96GMGKXZH4G7W8V8EVBSZUSY", "current_trial": 184, "dateTime": 1511217928610, "trialdata": {"rt": -1, "stimulus": "<p id=\"stim\">+</p>", "key_press": -1, "type": "FIXATION", "trial_type": "single-stim", "trial_index": 184, "time_elapsed": 803043, "internal_node_id": "0.0-130.0-0.0"}}, {"uniqueid": "MTK0577:32AT8R96GMGKXZH4G7W8V8EVBSZUSY", "current_trial": 185, "dateTime": 1511217929412, "trialdata": {"rt": -1, "stimulus": "<p id=\"stim\">TWEEZERS</p>", "key_press": -1, "type": "PRES_VIS", "word": "tweezers", "wordID": 1525, "conditions": [12, 800, "v", 12000], "trial": 5, "serialpos": 0, "trial_type": "single-stim", "trial_index": 185, "time_elapsed": 803845, "internal_node_id": "0.0-131.0"}}, {"uniqueid": "MTK0577:32AT8R96GMGKXZH4G7W8V8EVBSZUSY", "current_trial": 186, "dateTime": 1511217931291, "trialdata": {"rt": -1, "stimulus": "<p id=\"stim\">HELMET</p>", "key_press": -1, "type": "PRES_VIS", "word": "helmet", "wordID": 701, "conditions": [12, 800, "v", 12000], "trial": 5, "serialpos": 1, "trial_type": "single-stim", "trial_index": 186, "time_elapsed": 805720, "internal_node_id": "0.0-132.0"}}, {"uniqueid": "MTK0577:32AT8R96GMGKXZH4G7W8V8EVBSZUSY", "current_trial": 187, "dateTime": 1511217933155, "trialdata": {"rt": -1, "stimulus": "<p id=\"stim\">PLIERS</p>", "key_press": -1, "type": "PRES_VIS", "word": "pliers", "wordID": 1088, "conditions": [12, 800, "v", 12000], "trial": 5, "serialpos": 2, "trial_type": "single-stim", "trial_index": 187, "time_elapsed": 807588, "internal_node_id": "0.0-133.0"}}, {"uniqueid": "MTK0577:32AT8R96GMGKXZH4G7W8V8EVBSZUSY", "current_trial": 188, "dateTime": 1511217935090, "trialdata": {"rt": -1, "stimulus": "<p id=\"stim\">PLAID</p>", "key_press": -1, "type": "PRES_VIS", "word": "plaid", "wordID": 1079, "conditions": [12, 800, "v", 12000], "trial": 5, "serialpos": 3, "trial_type": "single-stim", "trial_index": 188, "time_elapsed": 809522, "internal_node_id": "0.0-134.0"}}, {"uniqueid": "MTK0577:32AT8R96GMGKXZH4G7W8V8EVBSZUSY", "current_trial": 189, "dateTime": 1511217936778, "trialdata": {"rt": -1, "stimulus": "<p id=\"stim\">TREAT</p>", "key_press": -1, "type": "PRES_VIS", "word": "treat", "wordID": 1500, "conditions": [12, 800, "v", 12000], "trial": 5, "serialpos": 4, "trial_type": "single-stim", "trial_index": 189, "time_elapsed": 811211, "internal_node_id": "0.0-135.0"}}, {"uniqueid": "MTK0577:32AT8R96GMGKXZH4G7W8V8EVBSZUSY", "current_trial": 190, "dateTime": 1511217938761, "trialdata": {"rt": -1, "stimulus": "<p id=\"stim\">ARM</p>", "key_press": -1, "type": "PRES_VIS", "word": "arm", "wordID": 37, "conditions": [12, 800, "v", 12000], "trial": 5, "serialpos": 5, "trial_type": "single-stim", "trial_index": 190, "time_elapsed": 813194, "internal_node_id": "0.0-136.0"}}, {"uniqueid": "MTK0577:32AT8R96GMGKXZH4G7W8V8EVBSZUSY", "current_trial": 191, "dateTime": 1511217940722, "trialdata": {"rt": -1, "stimulus": "<p id=\"stim\">COD</p>", "key_press": -1, "type": "PRES_VIS", "word": "cod", "wordID": 339, "conditions": [12, 800, "v", 12000], "trial": 5, "serialpos": 6, "trial_type": "single-stim", "trial_index": 191, "time_elapsed": 815155, "internal_node_id": "0.0-137.0"}}, {"uniqueid": "MTK0577:32AT8R96GMGKXZH4G7W8V8EVBSZUSY", "current_trial": 192, "dateTime": 1511217942412, "trialdata": {"rt": -1, "stimulus": "<p id=\"stim\">SALMON</p>", "key_press": -1, "type": "PRES_VIS", "word": "salmon", "wordID": 1226, "conditions": [12, 800, "v", 12000], "trial": 5, "serialpos": 7, "trial_type": "single-stim", "trial_index": 192, "time_elapsed": 816845, "internal_node_id": "0.0-138.0"}}, {"uniqueid": "MTK0577:32AT8R96GMGKXZH4G7W8V8EVBSZUSY", "current_trial": 193, "dateTime": 1511217944224, "trialdata": {"rt": -1, "stimulus": "<p id=\"stim\">VELVET</p>", "key_press": -1, "type": "PRES_VIS", "word": "velvet", "wordID": 1554, "conditions": [12, 800, "v", 12000], "trial": 5, "serialpos": 8, "trial_type": "single-stim", "trial_index": 193, "time_elapsed": 818656, "internal_node_id": "0.0-139.0"}}, {"uniqueid": "MTK0577:32AT8R96GMGKXZH4G7W8V8EVBSZUSY", "current_trial": 194, "dateTime": 1511217946020, "trialdata": {"rt": -1, "stimulus": "<p id=\"stim\">LAVA</p>", "key_press": -1, "type": "PRES_VIS", "word": "lava", "wordID": 803, "conditions": [12, 800, "v", 12000], "trial": 5, "serialpos": 9, "trial_type": "single-stim", "trial_index": 194, "time_elapsed": 820452, "internal_node_id": "0.0-140.0"}}, {"uniqueid": "MTK0577:32AT8R96GMGKXZH4G7W8V8EVBSZUSY", "current_trial": 195, "dateTime": 1511217948015, "trialdata": {"rt": -1, "stimulus": "<p id=\"stim\">HATCHET</p>", "key_press": -1, "type": "PRES_VIS", "word": "hatchet", "wordID": 690, "conditions": [12, 800, "v", 12000], "trial": 5, "serialpos": 10, "trial_type": "single-stim", "trial_index": 195, "time_elapsed": 822448, "internal_node_id": "0.0-141.0"}}, {"uniqueid": "MTK0577:32AT8R96GMGKXZH4G7W8V8EVBSZUSY", "current_trial": 196, "dateTime": 1511217949650, "trialdata": {"rt": -1, "stimulus": "<p id=\"stim\">TABLET</p>", "key_press": -1, "type": "PRES_VIS", "word": "tablet", "wordID": 1426, "conditions": [12, 800, "v", 12000], "trial": 5, "serialpos": 11, "trial_type": "single-stim", "trial_index": 196, "time_elapsed": 824082, "internal_node_id": "0.0-142.0"}}, {"uniqueid": "MTK0577:32AT8R96GMGKXZH4G7W8V8EVBSZUSY", "current_trial": 197, "dateTime": 1511217951913, "trialdata": {"rt": -1, "stimulus": "", "key_press": -1, "type": "PRE_RECALL_DELAY", "trial_type": "single-stim", "trial_index": 197, "time_elapsed": 826345, "internal_node_id": "0.0-143.0-0.0"}}, {"uniqueid": "MTK0577:32AT8R96GMGKXZH4G7W8V8EVBSZUSY", "current_trial": 198, "dateTime": 1511217952415, "trialdata": {"rt": -1000, "stimulus": "/static/audio/400Hz.wav", "key_press": -1, "type": "PRE_RECALL_ALERT", "trial_type": "single-audio", "trial_index": 198, "time_elapsed": 826847, "internal_node_id": "0.0-144.0"}}, {"uniqueid": "MTK0577:32AT8R96GMGKXZH4G7W8V8EVBSZUSY", "current_trial": 199, "dateTime": 1511218012428, "trialdata": {"rt": [3977, 5761, 7505, 14177, 15474, 18331, 26001, 28538, 34745, 43682, 46354, 48596, 52505, 58379], "recwords": ["tweezers", "plaid", "helmet", "pliers", "lava", "velvet", "knight", "helmet", "school", "house", "melt", "volcano", "cotton", "tablet"], "type": "FREE_RECALL", "conditions": [12, 800, "v", 12000], "trial": 5, "trial_type": "free-recall", "trial_index": 199, "time_elapsed": 886852, "internal_node_id": "0.0-145.0-0.0"}}, {"uniqueid": "MTK0577:32AT8R96GMGKXZH4G7W8V8EVBSZUSY", "current_trial": 200, "dateTime": 1511218015492, "trialdata": {"rt": 1063, "key_press": 32, "type": "INSTRUCTIONS", "trial_type": "text", "trial_index": 200, "time_elapsed": 889925, "internal_node_id": "0.0-146.0"}}, {"uniqueid": "MTK0577:32AT8R96GMGKXZH4G7W8V8EVBSZUSY", "current_trial": 201, "dateTime": 1511218041497, "trialdata": {"rt": [1805, 3229, 4692, 6277, 7797, 9717, 11310, 15068, 16693, 18157, 19820, 22133, 23780], "responses": ["17", "13", "19", "13", "11", "8", "17", "18", "19", "10", "17", "13", "15"], "num1": [7, 2, 9, 1, 1, 4, 8, 6, 6, 7, 8, 1, 4, 2], "num2": [4, 7, 9, 8, 7, 1, 4, 4, 6, 2, 7, 4, 3, 7], "num3": [6, 3, 1, 4, 3, 3, 5, 8, 7, 1, 2, 8, 6, 1], "type": "DISTRACTOR", "conditions": [12, 1600, "v", 24000], "trial": 6, "trial_type": "math-distractor", "trial_index": 201, "time_elapsed": 915929, "internal_node_id": "0.0-147.0"}}, {"uniqueid": "MTK0577:32AT8R96GMGKXZH4G7W8V8EVBSZUSY", "current_trial": 202, "dateTime": 1511218044499, "trialdata": {"rt": -1, "stimulus": "<p id=\"stim\">10</p>", "key_press": -1, "trial_type": "single-stim", "trial_index": 202, "time_elapsed": 918931, "internal_node_id": "0.0-148.0-0.0"}}, {"uniqueid": "MTK0577:32AT8R96GMGKXZH4G7W8V8EVBSZUSY", "current_trial": 203, "dateTime": 1511218045501, "trialdata": {"rt": -1, "stimulus": "<p id=\"stim\">9</p>", "key_press": -1, "trial_type": "single-stim", "trial_index": 203, "time_elapsed": 919934, "internal_node_id": "0.0-148.0-1.0"}}, {"uniqueid": "MTK0577:32AT8R96GMGKXZH4G7W8V8EVBSZUSY", "current_trial": 204, "dateTime": 1511218046502, "trialdata": {"rt": -1, "stimulus": "<p id=\"stim\">8</p>", "key_press": -1, "trial_type": "single-stim", "trial_index": 204, "time_elapsed": 920935, "internal_node_id": "0.0-148.0-2.0"}}, {"uniqueid": "MTK0577:32AT8R96GMGKXZH4G7W8V8EVBSZUSY", "current_trial": 205, "dateTime": 1511218047504, "trialdata": {"rt": -1, "stimulus": "<p id=\"stim\">7</p>", "key_press": -1, "trial_type": "single-stim", "trial_index": 205, "time_elapsed": 921937, "internal_node_id": "0.0-148.0-3.0"}}, {"uniqueid": "MTK0577:32AT8R96GMGKXZH4G7W8V8EVBSZUSY", "current_trial": 206, "dateTime": 1511218048505, "trialdata": {"rt": -1, "stimulus": "<p id=\"stim\">6</p>", "key_press": -1, "trial_type": "single-stim", "trial_index": 206, "time_elapsed": 922938, "internal_node_id": "0.0-148.0-4.0"}}, {"uniqueid": "MTK0577:32AT8R96GMGKXZH4G7W8V8EVBSZUSY", "current_trial": 207, "dateTime": 1511218049507, "trialdata": {"rt": -1, "stimulus": "<p id=\"stim\">5</p>", "key_press": -1, "trial_type": "single-stim", "trial_index": 207, "time_elapsed": 923939, "internal_node_id": "0.0-148.0-5.0"}}, {"uniqueid": "MTK0577:32AT8R96GMGKXZH4G7W8V8EVBSZUSY", "current_trial": 208, "dateTime": 1511218050516, "trialdata": {"rt": -1, "stimulus": "<p id=\"stim\">4</p>", "key_press": -1, "trial_type": "single-stim", "trial_index": 208, "time_elapsed": 924949, "internal_node_id": "0.0-148.0-6.0"}}, {"uniqueid": "MTK0577:32AT8R96GMGKXZH4G7W8V8EVBSZUSY", "current_trial": 209, "dateTime": 1511218051519, "trialdata": {"rt": -1, "stimulus": "<p id=\"stim\">3</p>", "key_press": -1, "trial_type": "single-stim", "trial_index": 209, "time_elapsed": 925951, "internal_node_id": "0.0-148.0-7.0"}}, {"uniqueid": "MTK0577:32AT8R96GMGKXZH4G7W8V8EVBSZUSY", "current_trial": 210, "dateTime": 1511218052521, "trialdata": {"rt": -1, "stimulus": "<p id=\"stim\">2</p>", "key_press": -1, "trial_type": "single-stim", "trial_index": 210, "time_elapsed": 926953, "internal_node_id": "0.0-148.0-8.0"}}, {"uniqueid": "MTK0577:32AT8R96GMGKXZH4G7W8V8EVBSZUSY", "current_trial": 211, "dateTime": 1511218053523, "trialdata": {"rt": -1, "stimulus": "<p id=\"stim\">1</p>", "key_press": -1, "trial_type": "single-stim", "trial_index": 211, "time_elapsed": 927955, "internal_node_id": "0.0-148.0-9.0"}}, {"uniqueid": "MTK0577:32AT8R96GMGKXZH4G7W8V8EVBSZUSY", "current_trial": 212, "dateTime": 1511218055026, "trialdata": {"rt": -1, "stimulus": "<p id=\"stim\">+</p>", "key_press": -1, "type": "FIXATION", "trial_type": "single-stim", "trial_index": 212, "time_elapsed": 929459, "internal_node_id": "0.0-149.0-0.0"}}, {"uniqueid": "MTK0577:32AT8R96GMGKXZH4G7W8V8EVBSZUSY", "current_trial": 213, "dateTime": 1511218056629, "trialdata": {"rt": -1, "stimulus": "<p id=\"stim\">TOMBSTONE</p>", "key_press": -1, "type": "PRES_VIS", "word": "tombstone", "wordID": 1477, "conditions": [12, 1600, "v", 24000], "trial": 6, "serialpos": 0, "trial_type": "single-stim", "trial_index": 213, "time_elapsed": 931061, "internal_node_id": "0.0-150.0"}}, {"uniqueid": "MTK0577:32AT8R96GMGKXZH4G7W8V8EVBSZUSY", "current_trial": 214, "dateTime": 1511218059114, "trialdata": {"rt": -1, "stimulus": "<p id=\"stim\">STATUE</p>", "key_press": -1, "type": "PRES_VIS", "word": "statue", "wordID": 1373, "conditions": [12, 1600, "v", 24000], "trial": 6, "serialpos": 1, "trial_type": "single-stim", "trial_index": 214, "time_elapsed": 933546, "internal_node_id": "0.0-151.0"}}, {"uniqueid": "MTK0577:32AT8R96GMGKXZH4G7W8V8EVBSZUSY", "current_trial": 215, "dateTime": 1511218061909, "trialdata": {"rt": -1, "stimulus": "<p id=\"stim\">SNACK</p>", "key_press": -1, "type": "PRES_VIS", "word": "snack", "wordID": 1330, "conditions": [12, 1600, "v", 24000], "trial": 6, "serialpos": 2, "trial_type": "single-stim", "trial_index": 215, "time_elapsed": 936342, "internal_node_id": "0.0-152.0"}}, {"uniqueid": "MTK0577:32AT8R96GMGKXZH4G7W8V8EVBSZUSY", "current_trial": 216, "dateTime": 1511218064601, "trialdata": {"rt": -1, "stimulus": "<p id=\"stim\">SPONGE</p>", "key_press": -1, "type": "PRES_VIS", "word": "sponge", "wordID": 1354, "conditions": [12, 1600, "v", 24000], "trial": 6, "serialpos": 3, "trial_type": "single-stim", "trial_index": 216, "time_elapsed": 939033, "internal_node_id": "0.0-153.0"}}, {"uniqueid": "MTK0577:32AT8R96GMGKXZH4G7W8V8EVBSZUSY", "current_trial": 217, "dateTime": 1511218067315, "trialdata": {"rt": -1, "stimulus": "<p id=\"stim\">CREATURE</p>", "key_press": -1, "type": "PRES_VIS", "word": "creature", "wordID": 402, "conditions": [12, 1600, "v", 24000], "trial": 6, "serialpos": 4, "trial_type": "single-stim", "trial_index": 217, "time_elapsed": 941747, "internal_node_id": "0.0-154.0"}}, {"uniqueid": "MTK0577:32AT8R96GMGKXZH4G7W8V8EVBSZUSY", "current_trial": 218, "dateTime": 1511218069898, "trialdata": {"rt": -1, "stimulus": "<p id=\"stim\">GIFT</p>", "key_press": -1, "type": "PRES_VIS", "word": "gift", "wordID": 634, "conditions": [12, 1600, "v", 24000], "trial": 6, "serialpos": 5, "trial_type": "single-stim", "trial_index": 218, "time_elapsed": 944331, "internal_node_id": "0.0-155.0"}}, {"uniqueid": "MTK0577:32AT8R96GMGKXZH4G7W8V8EVBSZUSY", "current_trial": 219, "dateTime": 1511218072426, "trialdata": {"rt": -1, "stimulus": "<p id=\"stim\">TRANSPLANT</p>", "key_press": -1, "type": "PRES_VIS", "word": "transplant", "wordID": 1495, "conditions": [12, 1600, "v", 24000], "trial": 6, "serialpos": 6, "trial_type": "single-stim", "trial_index": 219, "time_elapsed": 946856, "internal_node_id": "0.0-156.0"}}, {"uniqueid": "MTK0577:32AT8R96GMGKXZH4G7W8V8EVBSZUSY", "current_trial": 220, "dateTime": 1511218075197, "trialdata": {"rt": -1, "stimulus": "<p id=\"stim\">BRACES</p>", "key_press": -1, "type": "PRES_VIS", "word": "braces", "wordID": 163, "conditions": [12, 1600, "v", 24000], "trial": 6, "serialpos": 7, "trial_type": "single-stim", "trial_index": 220, "time_elapsed": 949629, "internal_node_id": "0.0-157.0"}}, {"uniqueid": "MTK0577:32AT8R96GMGKXZH4G7W8V8EVBSZUSY", "current_trial": 221, "dateTime": 1511218077936, "trialdata": {"rt": -1, "stimulus": "<p id=\"stim\">LIPSTICK</p>", "key_press": -1, "type": "PRES_VIS", "word": "lipstick", "wordID": 828, "conditions": [12, 1600, "v", 24000], "trial": 6, "serialpos": 8, "trial_type": "single-stim", "trial_index": 221, "time_elapsed": 952368, "internal_node_id": "0.0-158.0"}}, {"uniqueid": "MTK0577:32AT8R96GMGKXZH4G7W8V8EVBSZUSY", "current_trial": 222, "dateTime": 1511218080662, "trialdata": {"rt": -1, "stimulus": "<p id=\"stim\">CYCLONE</p>", "key_press": -1, "type": "PRES_VIS", "word": "cyclone", "wordID": 430, "conditions": [12, 1600, "v", 24000], "trial": 6, "serialpos": 9, "trial_type": "single-stim", "trial_index": 222, "time_elapsed": 955095, "internal_node_id": "0.0-159.0"}}, {"uniqueid": "MTK0577:32AT8R96GMGKXZH4G7W8V8EVBSZUSY", "current_trial": 223, "dateTime": 1511218083407, "trialdata": {"rt": -1, "stimulus": "<p id=\"stim\">STOMACH</p>", "key_press": -1, "type": "PRES_VIS", "word": "stomach", "wordID": 1383, "conditions": [12, 1600, "v", 24000], "trial": 6, "serialpos": 10, "trial_type": "single-stim", "trial_index": 223, "time_elapsed": 957840, "internal_node_id": "0.0-160.0"}}, {"uniqueid": "MTK0577:32AT8R96GMGKXZH4G7W8V8EVBSZUSY", "current_trial": 224, "dateTime": 1511218086105, "trialdata": {"rt": -1, "stimulus": "<p id=\"stim\">KIDNEY</p>", "key_press": -1, "type": "PRES_VIS", "word": "kidney", "wordID": 775, "conditions": [12, 1600, "v", 24000], "trial": 6, "serialpos": 11, "trial_type": "single-stim", "trial_index": 224, "time_elapsed": 960538, "internal_node_id": "0.0-161.0"}}, {"uniqueid": "MTK0577:32AT8R96GMGKXZH4G7W8V8EVBSZUSY", "current_trial": 225, "dateTime": 1511218088496, "trialdata": {"rt": -1, "stimulus": "", "key_press": -1, "type": "PRE_RECALL_DELAY", "trial_type": "single-stim", "trial_index": 225, "time_elapsed": 962929, "internal_node_id": "0.0-162.0-0.0"}}, {"uniqueid": "MTK0577:32AT8R96GMGKXZH4G7W8V8EVBSZUSY", "current_trial": 226, "dateTime": 1511218088999, "trialdata": {"rt": -1000, "stimulus": "/static/audio/400Hz.wav", "key_press": -1, "type": "PRE_RECALL_ALERT", "trial_type": "single-audio", "trial_index": 226, "time_elapsed": 963432, "internal_node_id": "0.0-163.0"}}, {"uniqueid": "MTK0577:32AT8R96GMGKXZH4G7W8V8EVBSZUSY", "current_trial": 227, "dateTime": 1511218149011, "trialdata": {"rt": [2993, 3953, 7697, 11577, 17161, 20505, 23033, 24921, 32473, 36768, 42736, 48881, 53249, 54768, 57392], "recwords": ["tombstone", "grave", "stomach", "kidney", "stomach", "braces", "lips", "mouth", "sponge", "cyclone", "destruction", "tornado", "snack", "cheese", "ham"], "type": "FREE_RECALL", "conditions": [12, 1600, "v", 24000], "trial": 6, "trial_type": "free-recall", "trial_index": 227, "time_elapsed": 1023436, "internal_node_id": "0.0-164.0-0.0"}}, {"uniqueid": "MTK0577:32AT8R96GMGKXZH4G7W8V8EVBSZUSY", "current_trial": 228, "dateTime": 1511218152149, "trialdata": {"rt": 1136, "key_press": 32, "type": "INSTRUCTIONS", "trial_type": "text", "trial_index": 228, "time_elapsed": 1026582, "internal_node_id": "0.0-165.0"}}, {"uniqueid": "MTK0577:32AT8R96GMGKXZH4G7W8V8EVBSZUSY", "current_trial": 229, "dateTime": 1511218178153, "trialdata": {"rt": [2668, 4276, 6308, 8628, 10317, 11804, 14212, 15941, 17508, 19588, 20908, 22548], "responses": ["24", "11", "12", "18", "10", "15", "14", "13", "16", "17", "16", "19"], "num1": [8, 3, 4, 8, 2, 6, 4, 4, 4, 4, 8, 9, 8], "num2": [8, 4, 3, 7, 6, 4, 4, 3, 5, 7, 2, 6, 7], "num3": [8, 4, 5, 3, 2, 5, 6, 6, 7, 6, 6, 4, 7], "type": "DISTRACTOR", "conditions": [12, 800, "a", 24000], "trial": 7, "trial_type": "math-distractor", "trial_index": 229, "time_elapsed": 1052585, "internal_node_id": "0.0-166.0"}}, {"uniqueid": "MTK0577:32AT8R96GMGKXZH4G7W8V8EVBSZUSY", "current_trial": 230, "dateTime": 1511218181156, "trialdata": {"rt": -1, "stimulus": "<p id=\"stim\">10</p>", "key_press": -1, "trial_type": "single-stim", "trial_index": 230, "time_elapsed": 1055588, "internal_node_id": "0.0-167.0-0.0"}}, {"uniqueid": "MTK0577:32AT8R96GMGKXZH4G7W8V8EVBSZUSY", "current_trial": 231, "dateTime": 1511218182158, "trialdata": {"rt": -1, "stimulus": "<p id=\"stim\">9</p>", "key_press": -1, "trial_type": "single-stim", "trial_index": 231, "time_elapsed": 1056591, "internal_node_id": "0.0-167.0-1.0"}}, {"uniqueid": "MTK0577:32AT8R96GMGKXZH4G7W8V8EVBSZUSY", "current_trial": 232, "dateTime": 1511218183160, "trialdata": {"rt": -1, "stimulus": "<p id=\"stim\">8</p>", "key_press": -1, "trial_type": "single-stim", "trial_index": 232, "time_elapsed": 1057592, "internal_node_id": "0.0-167.0-2.0"}}, {"uniqueid": "MTK0577:32AT8R96GMGKXZH4G7W8V8EVBSZUSY", "current_trial": 233, "dateTime": 1511218184161, "trialdata": {"rt": -1, "stimulus": "<p id=\"stim\">7</p>", "key_press": -1, "trial_type": "single-stim", "trial_index": 233, "time_elapsed": 1058594, "internal_node_id": "0.0-167.0-3.0"}}, {"uniqueid": "MTK0577:32AT8R96GMGKXZH4G7W8V8EVBSZUSY", "current_trial": 234, "dateTime": 1511218185163, "trialdata": {"rt": -1, "stimulus": "<p id=\"stim\">6</p>", "key_press": -1, "trial_type": "single-stim", "trial_index": 234, "time_elapsed": 1059596, "internal_node_id": "0.0-167.0-4.0"}}, {"uniqueid": "MTK0577:32AT8R96GMGKXZH4G7W8V8EVBSZUSY", "current_trial": 235, "dateTime": 1511218186164, "trialdata": {"rt": -1, "stimulus": "<p id=\"stim\">5</p>", "key_press": -1, "trial_type": "single-stim", "trial_index": 235, "time_elapsed": 1060596, "internal_node_id": "0.0-167.0-5.0"}}, {"uniqueid": "MTK0577:32AT8R96GMGKXZH4G7W8V8EVBSZUSY", "current_trial": 236, "dateTime": 1511218187165, "trialdata": {"rt": -1, "stimulus": "<p id=\"stim\">4</p>", "key_press": -1, "trial_type": "single-stim", "trial_index": 236, "time_elapsed": 1061598, "internal_node_id": "0.0-167.0-6.0"}}, {"uniqueid": "MTK0577:32AT8R96GMGKXZH4G7W8V8EVBSZUSY", "current_trial": 237, "dateTime": 1511218188167, "trialdata": {"rt": -1, "stimulus": "<p id=\"stim\">3</p>", "key_press": -1, "trial_type": "single-stim", "trial_index": 237, "time_elapsed": 1062600, "internal_node_id": "0.0-167.0-7.0"}}, {"uniqueid": "MTK0577:32AT8R96GMGKXZH4G7W8V8EVBSZUSY", "current_trial": 238, "dateTime": 1511218189169, "trialdata": {"rt": -1, "stimulus": "<p id=\"stim\">2</p>", "key_press": -1, "trial_type": "single-stim", "trial_index": 238, "time_elapsed": 1063601, "internal_node_id": "0.0-167.0-8.0"}}, {"uniqueid": "MTK0577:32AT8R96GMGKXZH4G7W8V8EVBSZUSY", "current_trial": 239, "dateTime": 1511218190171, "trialdata": {"rt": -1, "stimulus": "<p id=\"stim\">1</p>", "key_press": -1, "trial_type": "single-stim", "trial_index": 239, "time_elapsed": 1064603, "internal_node_id": "0.0-167.0-9.0"}}, {"uniqueid": "MTK0577:32AT8R96GMGKXZH4G7W8V8EVBSZUSY", "current_trial": 240, "dateTime": 1511218191672, "trialdata": {"rt": -1, "stimulus": "<p id=\"stim\">+</p>", "key_press": -1, "type": "FIXATION", "trial_type": "single-stim", "trial_index": 240, "time_elapsed": 1066105, "internal_node_id": "0.0-168.0-0.0"}}, {"uniqueid": "MTK0577:32AT8R96GMGKXZH4G7W8V8EVBSZUSY", "current_trial": 241, "dateTime": 1511218193549, "trialdata": {"rt": -1000, "stimulus": "/static/audio/wordpool/RECORD.wav", "key_press": -1, "type": "PRES_AUD", "word": "record", "wordID": 1175, "conditions": [12, 800, "a", 24000], "trial": 7, "serialpos": 0, "trial_type": "single-audio", "trial_index": 241, "time_elapsed": 1067982, "internal_node_id": "0.0-169.0"}}, {"uniqueid": "MTK0577:32AT8R96GMGKXZH4G7W8V8EVBSZUSY", "current_trial": 242, "dateTime": 1511218195409, "trialdata": {"rt": -1000, "stimulus": "/static/audio/wordpool/SMOG.wav", "key_press": -1, "type": "PRES_AUD", "word": "smog", "wordID": 1329, "conditions": [12, 800, "a", 24000], "trial": 7, "serialpos": 1, "trial_type": "single-audio", "trial_index": 242, "time_elapsed": 1069841, "internal_node_id": "0.0-170.0"}}, {"uniqueid": "MTK0577:32AT8R96GMGKXZH4G7W8V8EVBSZUSY", "current_trial": 243, "dateTime": 1511218197241, "trialdata": {"rt": -1000, "stimulus": "/static/audio/wordpool/CITRUS.wav", "key_press": -1, "type": "PRES_AUD", "word": "citrus", "wordID": 312, "conditions": [12, 800, "a", 24000], "trial": 7, "serialpos": 2, "trial_type": "single-audio", "trial_index": 243, "time_elapsed": 1071673, "internal_node_id": "0.0-171.0"}}, {"uniqueid": "MTK0577:32AT8R96GMGKXZH4G7W8V8EVBSZUSY", "current_trial": 244, "dateTime": 1511218199028, "trialdata": {"rt": -1000, "stimulus": "/static/audio/wordpool/BROOK.wav", "key_press": -1, "type": "PRES_AUD", "word": "brook", "wordID": 176, "conditions": [12, 800, "a", 24000], "trial": 7, "serialpos": 3, "trial_type": "single-audio", "trial_index": 244, "time_elapsed": 1073461, "internal_node_id": "0.0-172.0"}}, {"uniqueid": "MTK0577:32AT8R96GMGKXZH4G7W8V8EVBSZUSY", "current_trial": 245, "dateTime": 1511218200991, "trialdata": {"rt": -1000, "stimulus": "/static/audio/wordpool/RIVER.wav", "key_press": -1, "type": "PRES_AUD", "word": "river", "wordID": 1193, "conditions": [12, 800, "a", 24000], "trial": 7, "serialpos": 4, "trial_type": "single-audio", "trial_index": 245, "time_elapsed": 1075424, "internal_node_id": "0.0-173.0"}}, {"uniqueid": "MTK0577:32AT8R96GMGKXZH4G7W8V8EVBSZUSY", "current_trial": 246, "dateTime": 1511218202776, "trialdata": {"rt": -1000, "stimulus": "/static/audio/wordpool/ROBOT.wav", "key_press": -1, "type": "PRES_AUD", "word": "robot", "wordID": 1199, "conditions": [12, 800, "a", 24000], "trial": 7, "serialpos": 5, "trial_type": "single-audio", "trial_index": 246, "time_elapsed": 1077209, "internal_node_id": "0.0-174.0"}}, {"uniqueid": "MTK0577:32AT8R96GMGKXZH4G7W8V8EVBSZUSY", "current_trial": 247, "dateTime": 1511218204714, "trialdata": {"rt": -1000, "stimulus": "/static/audio/wordpool/GRAPE.wav", "key_press": -1, "type": "PRES_AUD", "word": "grape", "wordID": 653, "conditions": [12, 800, "a", 24000], "trial": 7, "serialpos": 6, "trial_type": "single-audio", "trial_index": 247, "time_elapsed": 1079146, "internal_node_id": "0.0-175.0"}}, {"uniqueid": "MTK0577:32AT8R96GMGKXZH4G7W8V8EVBSZUSY", "current_trial": 248, "dateTime": 1511218206586, "trialdata": {"rt": -1000, "stimulus": "/static/audio/wordpool/YARN.wav", "key_press": -1, "type": "PRES_AUD", "word": "yarn", "wordID": 1630, "conditions": [12, 800, "a", 24000], "trial": 7, "serialpos": 7, "trial_type": "single-audio", "trial_index": 248, "time_elapsed": 1081018, "internal_node_id": "0.0-176.0"}}, {"uniqueid": "MTK0577:32AT8R96GMGKXZH4G7W8V8EVBSZUSY", "current_trial": 249, "dateTime": 1511218208542, "trialdata": {"rt": -1000, "stimulus": "/static/audio/wordpool/CRAYON.wav", "key_press": -1, "type": "PRES_AUD", "word": "crayon", "wordID": 400, "conditions": [12, 800, "a", 24000], "trial": 7, "serialpos": 8, "trial_type": "single-audio", "trial_index": 249, "time_elapsed": 1082974, "internal_node_id": "0.0-177.0"}}, {"uniqueid": "MTK0577:32AT8R96GMGKXZH4G7W8V8EVBSZUSY", "current_trial": 250, "dateTime": 1511218210154, "trialdata": {"rt": -1000, "stimulus": "/static/audio/wordpool/FLASHLIGHT.wav", "key_press": -1, "type": "PRES_AUD", "word": "flashlight", "wordID": 574, "conditions": [12, 800, "a", 24000], "trial": 7, "serialpos": 9, "trial_type": "single-audio", "trial_index": 250, "time_elapsed": 1084587, "internal_node_id": "0.0-178.0"}}, {"uniqueid": "MTK0577:32AT8R96GMGKXZH4G7W8V8EVBSZUSY", "current_trial": 251, "dateTime": 1511218212042, "trialdata": {"rt": -1000, "stimulus": "/static/audio/wordpool/STAMP.wav", "key_press": -1, "type": "PRES_AUD", "word": "stamp", "wordID": 1369, "conditions": [12, 800, "a", 24000], "trial": 7, "serialpos": 10, "trial_type": "single-audio", "trial_index": 251, "time_elapsed": 1086469, "internal_node_id": "0.0-179.0"}}, {"uniqueid": "MTK0577:32AT8R96GMGKXZH4G7W8V8EVBSZUSY", "current_trial": 252, "dateTime": 1511218213921, "trialdata": {"rt": -1000, "stimulus": "/static/audio/wordpool/VALLEY.wav", "key_press": -1, "type": "PRES_AUD", "word": "valley", "wordID": 1544, "conditions": [12, 800, "a", 24000], "trial": 7, "serialpos": 11, "trial_type": "single-audio", "trial_index": 252, "time_elapsed": 1088354, "internal_node_id": "0.0-180.0"}}, {"uniqueid": "MTK0577:32AT8R96GMGKXZH4G7W8V8EVBSZUSY", "current_trial": 253, "dateTime": 1511218215227, "trialdata": {"rt": -1, "stimulus": "", "key_press": -1, "type": "PRE_RECALL_DELAY", "trial_type": "single-stim", "trial_index": 253, "time_elapsed": 1089659, "internal_node_id": "0.0-181.0-0.0"}}, {"uniqueid": "MTK0577:32AT8R96GMGKXZH4G7W8V8EVBSZUSY", "current_trial": 254, "dateTime": 1511218215728, "trialdata": {"rt": -1000, "stimulus": "/static/audio/400Hz.wav", "key_press": -1, "type": "PRE_RECALL_ALERT", "trial_type": "single-audio", "trial_index": 254, "time_elapsed": 1090161, "internal_node_id": "0.0-182.0"}}, {"uniqueid": "MTK0577:32AT8R96GMGKXZH4G7W8V8EVBSZUSY", "current_trial": 255, "dateTime": 1511218275741, "trialdata": {"rt": [4577, 5816, 7080, 8032, 9760, 10345, 10824, 11760, 12016, 13376, 14911, 16784, 17744, 18665, 18976, 19929, 20186, 21423, 21960, 22376, 24920, 27041, 28163, 28841, 29928, 30344, 31633, 32232, 33703, 36352, 39072, 40424, 41015, 41649, 42251, 42610, 43457, 43872, 45482, 46592, 47936, 49033, 49421, 50480, 51519, 52481, 55456, 57098, 57586, 58871], "recwords": ["there", "wer", "no", "words", "again", "it", "was", "just", "a", "blank", "screen", "again", "there", "seems", "to", "be", "a", "issue", "with", "the", "survey", "sometimes", "there", "are", "words", "and", "sometimes", "there", "aren't", "words", "i", "am", "not", "sure", "what", "is", "going", "on", "with", "it", "but", "there", "is", "always", "the", "math", "problems", "between", "the", "trials"], "type": "FREE_RECALL", "conditions": [12, 800, "a", 24000], "trial": 7, "trial_type": "free-recall", "trial_index": 255, "time_elapsed": 1150166, "internal_node_id": "0.0-183.0-0.0"}}, {"uniqueid": "MTK0577:32AT8R96GMGKXZH4G7W8V8EVBSZUSY", "current_trial": 256, "dateTime": 1511218278891, "trialdata": {"rt": 1148, "key_press": 32, "type": "INSTRUCTIONS", "trial_type": "text", "trial_index": 256, "time_elapsed": 1153324, "internal_node_id": "0.0-184.0"}}, {"uniqueid": "MTK0577:32AT8R96GMGKXZH4G7W8V8EVBSZUSY", "current_trial": 257, "dateTime": 1511218292896, "trialdata": {"rt": [1716, 3740, 5380, 7188, 9100, 11923], "responses": ["11", "11", "19", "23", "20", "22"], "num1": [3, 1, 8, 9, 3, 6, 7], "num2": [4, 3, 3, 5, 9, 7, 2], "num3": [4, 7, 8, 9, 8, 9, 8], "type": "DISTRACTOR", "conditions": [24, 800, "v", 12000], "trial": 8, "trial_type": "math-distractor", "trial_index": 257, "time_elapsed": 1167329, "internal_node_id": "0.0-185.0"}}, {"uniqueid": "MTK0577:32AT8R96GMGKXZH4G7W8V8EVBSZUSY", "current_trial": 258, "dateTime": 1511218295899, "trialdata": {"rt": -1, "stimulus": "<p id=\"stim\">10</p>", "key_press": -1, "trial_type": "single-stim", "trial_index": 258, "time_elapsed": 1170331, "internal_node_id": "0.0-186.0-0.0"}}, {"uniqueid": "MTK0577:32AT8R96GMGKXZH4G7W8V8EVBSZUSY", "current_trial": 259, "dateTime": 1511218296900, "trialdata": {"rt": -1, "stimulus": "<p id=\"stim\">9</p>", "key_press": -1, "trial_type": "single-stim", "trial_index": 259, "time_elapsed": 1171333, "internal_node_id": "0.0-186.0-1.0"}}, {"uniqueid": "MTK0577:32AT8R96GMGKXZH4G7W8V8EVBSZUSY", "current_trial": 260, "dateTime": 1511218297903, "trialdata": {"rt": -1, "stimulus": "<p id=\"stim\">8</p>", "key_press": -1, "trial_type": "single-stim", "trial_index": 260, "time_elapsed": 1172335, "internal_node_id": "0.0-186.0-2.0"}}, {"uniqueid": "MTK0577:32AT8R96GMGKXZH4G7W8V8EVBSZUSY", "current_trial": 261, "dateTime": 1511218298904, "trialdata": {"rt": -1, "stimulus": "<p id=\"stim\">7</p>", "key_press": -1, "trial_type": "single-stim", "trial_index": 261, "time_elapsed": 1173336, "internal_node_id": "0.0-186.0-3.0"}}, {"uniqueid": "MTK0577:32AT8R96GMGKXZH4G7W8V8EVBSZUSY", "current_trial": 262, "dateTime": 1511218299905, "trialdata": {"rt": -1, "stimulus": "<p id=\"stim\">6</p>", "key_press": -1, "trial_type": "single-stim", "trial_index": 262, "time_elapsed": 1174338, "internal_node_id": "0.0-186.0-4.0"}}, {"uniqueid": "MTK0577:32AT8R96GMGKXZH4G7W8V8EVBSZUSY", "current_trial": 263, "dateTime": 1511218300906, "trialdata": {"rt": -1, "stimulus": "<p id=\"stim\">5</p>", "key_press": -1, "trial_type": "single-stim", "trial_index": 263, "time_elapsed": 1175339, "internal_node_id": "0.0-186.0-5.0"}}, {"uniqueid": "MTK0577:32AT8R96GMGKXZH4G7W8V8EVBSZUSY", "current_trial": 264, "dateTime": 1511218301910, "trialdata": {"rt": -1, "stimulus": "<p id=\"stim\">4</p>", "key_press": -1, "trial_type": "single-stim", "trial_index": 264, "time_elapsed": 1176342, "internal_node_id": "0.0-186.0-6.0"}}, {"uniqueid": "MTK0577:32AT8R96GMGKXZH4G7W8V8EVBSZUSY", "current_trial": 265, "dateTime": 1511218302911, "trialdata": {"rt": -1, "stimulus": "<p id=\"stim\">3</p>", "key_press": -1, "trial_type": "single-stim", "trial_index": 265, "time_elapsed": 1177344, "internal_node_id": "0.0-186.0-7.0"}}, {"uniqueid": "MTK0577:32AT8R96GMGKXZH4G7W8V8EVBSZUSY", "current_trial": 266, "dateTime": 1511218303915, "trialdata": {"rt": -1, "stimulus": "<p id=\"stim\">2</p>", "key_press": -1, "trial_type": "single-stim", "trial_index": 266, "time_elapsed": 1178348, "internal_node_id": "0.0-186.0-8.0"}}, {"uniqueid": "MTK0577:32AT8R96GMGKXZH4G7W8V8EVBSZUSY", "current_trial": 267, "dateTime": 1511218304920, "trialdata": {"rt": -1, "stimulus": "<p id=\"stim\">1</p>", "key_press": -1, "trial_type": "single-stim", "trial_index": 267, "time_elapsed": 1179353, "internal_node_id": "0.0-186.0-9.0"}}, {"uniqueid": "MTK0577:32AT8R96GMGKXZH4G7W8V8EVBSZUSY", "current_trial": 268, "dateTime": 1511218306426, "trialda