{"condition": 0, "counterbalance": 1185, "assignmentId": "3PJUZCGDJ7N4UNES4YVCILRGOO598X", "workerId": "MTK0712", "hitId": "301KG0KX9CSK0UWSWR51WRGH5XD2H6", "currenttrial": 619, "bonus": 0, "data": [{"uniqueid": "MTK0712:3PJUZCGDJ7N4UNES4YVCILRGOO598X", "current_trial": 0, "dateTime": 1512674351432, "trialdata": {"rt": 205832, "key_press": 78, "type": "INSTRUCTIONS", "trial_type": "text", "trial_index": 0, "time_elapsed": 205834, "internal_node_id": "0.0-0.0"}}, {"uniqueid": "MTK0712:3PJUZCGDJ7N4UNES4YVCILRGOO598X", "current_trial": 1, "dateTime": 1512674353305, "trialdata": {"rt": 1871, "key_press": 32, "type": "INSTRUCTIONS", "trial_type": "text", "trial_index": 1, "time_elapsed": 207707, "internal_node_id": "0.0-1.0"}}, {"uniqueid": "MTK0712:3PJUZCGDJ7N4UNES4YVCILRGOO598X", "current_trial": 2, "dateTime": 1512674365481, "trialdata": {"rt": [12111], "responses": ["ocean"], "type": "AUDIO_TEST", "trial_type": "audio-test", "trial_index": 2, "time_elapsed": 219884, "internal_node_id": "0.0-2.0"}}, {"uniqueid": "MTK0712:3PJUZCGDJ7N4UNES4YVCILRGOO598X", "current_trial": 3, "dateTime": 1512674369727, "trialdata": {"rt": [4229], "responses": ["crystal"], "type": "AUDIO_TEST", "trial_type": "audio-test", "trial_index": 3, "time_elapsed": 224129, "internal_node_id": "0.0-3.0"}}, {"uniqueid": "MTK0712:3PJUZCGDJ7N4UNES4YVCILRGOO598X", "current_trial": 4, "dateTime": 1512674376859, "trialdata": {"rt": [7114], "responses": ["spice"], "type": "AUDIO_TEST", "trial_type": "audio-test", "trial_index": 4, "time_elapsed": 231262, "internal_node_id": "0.0-4.0"}}, {"uniqueid": "MTK0712:3PJUZCGDJ7N4UNES4YVCILRGOO598X", "current_trial": 5, "dateTime": 1512674389125, "trialdata": {"rt": 11512, "responses": "{\"Q0\":\"11 pm\",\"Q1\":\"8 am\",\"Q2\":\"4\"}", "type": "SLEEP_SURVEY", "trial_type": "survey-text", "trial_index": 5, "time_elapsed": 243528, "internal_node_id": "0.0-5.0"}}, {"uniqueid": "MTK0712:3PJUZCGDJ7N4UNES4YVCILRGOO598X", "current_trial": 6, "dateTime": 1512674394104, "trialdata": {"rt": 3975, "key_press": 32, "type": "INSTRUCTIONS", "trial_type": "text", "trial_index": 6, "time_elapsed": 248507, "internal_node_id": "0.0-6.0"}}, {"uniqueid": "MTK0712:3PJUZCGDJ7N4UNES4YVCILRGOO598X", "current_trial": 7, "dateTime": 1512674396371, "trialdata": {"rt": 1760, "key_press": 32, "type": "INSTRUCTIONS", "trial_type": "text", "trial_index": 7, "time_elapsed": 250774, "internal_node_id": "0.0-7.0"}}, {"uniqueid": "MTK0712:3PJUZCGDJ7N4UNES4YVCILRGOO598X", "current_trial": 8, "dateTime": 1512674421668, "trialdata": {"rt": 24795, "key_press": 32, "type": "INSTRUCTIONS", "trial_type": "text", "trial_index": 8, "time_elapsed": 276071, "internal_node_id": "0.0-8.0"}}, {"uniqueid": "MTK0712:3PJUZCGDJ7N4UNES4YVCILRGOO598X", "current_trial": 9, "dateTime": 1512674440681, "trialdata": {"rt": [3608, 9305, 16383], "responses": ["13", "23", "17"], "num1": [6, 5, 4, 6], "num2": [3, 9, 8, 2], "num3": [4, 9, 5, 1], "type": "DISTRACTOR", "conditions": [18, 1200, "a", 18000], "trial": 0, "trial_type": "math-distractor", "trial_index": 9, "time_elapsed": 295084, "internal_node_id": "0.0-9.0"}}, {"uniqueid": "MTK0712:3PJUZCGDJ7N4UNES4YVCILRGOO598X", "current_trial": 10, "dateTime": 1512674443685, "trialdata": {"rt": -1, "stimulus": "<p id=\"stim\">10</p>", "key_press": -1, "trial_type": "single-stim", "trial_index": 10, "time_elapsed": 298088, "internal_node_id": "0.0-10.0-0.0"}}, {"uniqueid": "MTK0712:3PJUZCGDJ7N4UNES4YVCILRGOO598X", "current_trial": 11, "dateTime": 1512674444687, "trialdata": {"rt": -1, "stimulus": "<p id=\"stim\">9</p>", "key_press": -1, "trial_type": "single-stim", "trial_index": 11, "time_elapsed": 299090, "internal_node_id": "0.0-10.0-1.0"}}, {"uniqueid": "MTK0712:3PJUZCGDJ7N4UNES4YVCILRGOO598X", "current_trial": 12, "dateTime": 1512674445688, "trialdata": {"rt": -1, "stimulus": "<p id=\"stim\">8</p>", "key_press": -1, "trial_type": "single-stim", "trial_index": 12, "time_elapsed": 300091, "internal_node_id": "0.0-10.0-2.0"}}, {"uniqueid": "MTK0712:3PJUZCGDJ7N4UNES4YVCILRGOO598X", "current_trial": 13, "dateTime": 1512674446690, "trialdata": {"rt": -1, "stimulus": "<p id=\"stim\">7</p>", "key_press": -1, "trial_type": "single-stim", "trial_index": 13, "time_elapsed": 301093, "internal_node_id": "0.0-10.0-3.0"}}, {"uniqueid": "MTK0712:3PJUZCGDJ7N4UNES4YVCILRGOO598X", "current_trial": 14, "dateTime": 1512674447691, "trialdata": {"rt": -1, "stimulus": "<p id=\"stim\">6</p>", "key_press": -1, "trial_type": "single-stim", "trial_index": 14, "time_elapsed": 302094, "internal_node_id": "0.0-10.0-4.0"}}, {"uniqueid": "MTK0712:3PJUZCGDJ7N4UNES4YVCILRGOO598X", "current_trial": 15, "dateTime": 1512674448693, "trialdata": {"rt": -1, "stimulus": "<p id=\"stim\">5</p>", "key_press": -1, "trial_type": "single-stim", "trial_index": 15, "time_elapsed": 303096, "internal_node_id": "0.0-10.0-5.0"}}, {"uniqueid": "MTK0712:3PJUZCGDJ7N4UNES4YVCILRGOO598X", "current_trial": 16, "dateTime": 1512674449694, "trialdata": {"rt": -1, "stimulus": "<p id=\"stim\">4</p>", "key_press": -1, "trial_type": "single-stim", "trial_index": 16, "time_elapsed": 304097, "internal_node_id": "0.0-10.0-6.0"}}, {"uniqueid": "MTK0712:3PJUZCGDJ7N4UNES4YVCILRGOO598X", "current_trial": 17, "dateTime": 1512674450695, "trialdata": {"rt": -1, "stimulus": "<p id=\"stim\">3</p>", "key_press": -1, "trial_type": "single-stim", "trial_index": 17, "time_elapsed": 305098, "internal_node_id": "0.0-10.0-7.0"}}, {"uniqueid": "MTK0712:3PJUZCGDJ7N4UNES4YVCILRGOO598X", "current_trial": 18, "dateTime": 1512674451696, "trialdata": {"rt": -1, "stimulus": "<p id=\"stim\">2</p>", "key_press": -1, "trial_type": "single-stim", "trial_index": 18, "time_elapsed": 306098, "internal_node_id": "0.0-10.0-8.0"}}, {"uniqueid": "MTK0712:3PJUZCGDJ7N4UNES4YVCILRGOO598X", "current_trial": 19, "dateTime": 1512674452697, "trialdata": {"rt": -1, "stimulus": "<p id=\"stim\">1</p>", "key_press": -1, "trial_type": "single-stim", "trial_index": 19, "time_elapsed": 307100, "internal_node_id": "0.0-10.0-9.0"}}, {"uniqueid": "MTK0712:3PJUZCGDJ7N4UNES4YVCILRGOO598X", "current_trial": 20, "dateTime": 1512674454199, "trialdata": {"rt": -1, "stimulus": "<p id=\"stim\">+</p>", "key_press": -1, "type": "FIXATION", "trial_type": "single-stim", "trial_index": 20, "time_elapsed": 308601, "internal_node_id": "0.0-11.0-0.0"}}, {"uniqueid": "MTK0712:3PJUZCGDJ7N4UNES4YVCILRGOO598X", "current_trial": 21, "dateTime": 1512674456463, "trialdata": {"rt": -1000, "stimulus": "/static/audio/wordpool/DUST.wav", "key_press": -1, "type": "PRES_AUD", "word": "dust", "wordID": 507, "conditions": [18, 1200, "a", 18000], "trial": 0, "serialpos": 0, "trial_type": "single-audio", "trial_index": 21, "time_elapsed": 310866, "internal_node_id": "0.0-12.0"}}, {"uniqueid": "MTK0712:3PJUZCGDJ7N4UNES4YVCILRGOO598X", "current_trial": 22, "dateTime": 1512674458584, "trialdata": {"rt": -1000, "stimulus": "/static/audio/wordpool/FREEZER.wav", "key_press": -1, "type": "PRES_AUD", "word": "freezer", "wordID": 603, "conditions": [18, 1200, "a", 18000], "trial": 0, "serialpos": 1, "trial_type": "single-audio", "trial_index": 22, "time_elapsed": 312986, "internal_node_id": "0.0-13.0"}}, {"uniqueid": "MTK0712:3PJUZCGDJ7N4UNES4YVCILRGOO598X", "current_trial": 23, "dateTime": 1512674460795, "trialdata": {"rt": -1000, "stimulus": "/static/audio/wordpool/HOOK.wav", "key_press": -1, "type": "PRES_AUD", "word": "hook", "wordID": 714, "conditions": [18, 1200, "a", 18000], "trial": 0, "serialpos": 2, "trial_type": "single-audio", "trial_index": 23, "time_elapsed": 315198, "internal_node_id": "0.0-14.0"}}, {"uniqueid": "MTK0712:3PJUZCGDJ7N4UNES4YVCILRGOO598X", "current_trial": 24, "dateTime": 1512674462868, "trialdata": {"rt": -1000, "stimulus": "/static/audio/wordpool/MAPLE.wav", "key_press": -1, "type": "PRES_AUD", "word": "maple", "wordID": 865, "conditions": [18, 1200, "a", 18000], "trial": 0, "serialpos": 3, "trial_type": "single-audio", "trial_index": 24, "time_elapsed": 317271, "internal_node_id": "0.0-15.0"}}, {"uniqueid": "MTK0712:3PJUZCGDJ7N4UNES4YVCILRGOO598X", "current_trial": 25, "dateTime": 1512674465187, "trialdata": {"rt": -1000, "stimulus": "/static/audio/wordpool/DONKEY.wav", "key_press": -1, "type": "PRES_AUD", "word": "donkey", "wordID": 483, "conditions": [18, 1200, "a", 18000], "trial": 0, "serialpos": 4, "trial_type": "single-audio", "trial_index": 25, "time_elapsed": 319590, "internal_node_id": "0.0-16.0"}}, {"uniqueid": "MTK0712:3PJUZCGDJ7N4UNES4YVCILRGOO598X", "current_trial": 26, "dateTime": 1512674467497, "trialdata": {"rt": -1000, "stimulus": "/static/audio/wordpool/GARLIC.wav", "key_press": -1, "type": "PRES_AUD", "word": "garlic", "wordID": 623, "conditions": [18, 1200, "a", 18000], "trial": 0, "serialpos": 5, "trial_type": "single-audio", "trial_index": 26, "time_elapsed": 321900, "internal_node_id": "0.0-17.0"}}, {"uniqueid": "MTK0712:3PJUZCGDJ7N4UNES4YVCILRGOO598X", "current_trial": 27, "dateTime": 1512674469535, "trialdata": {"rt": -1000, "stimulus": "/static/audio/wordpool/SAUSAGE.wav", "key_press": -1, "type": "PRES_AUD", "word": "sausage", "wordID": 1237, "conditions": [18, 1200, "a", 18000], "trial": 0, "serialpos": 6, "trial_type": "single-audio", "trial_index": 27, "time_elapsed": 323938, "internal_node_id": "0.0-18.0"}}, {"uniqueid": "MTK0712:3PJUZCGDJ7N4UNES4YVCILRGOO598X", "current_trial": 28, "dateTime": 1512674471637, "trialdata": {"rt": -1000, "stimulus": "/static/audio/wordpool/FUNGUS.wav", "key_press": -1, "type": "PRES_AUD", "word": "fungus", "wordID": 613, "conditions": [18, 1200, "a", 18000], "trial": 0, "serialpos": 7, "trial_type": "single-audio", "trial_index": 28, "time_elapsed": 326040, "internal_node_id": "0.0-19.0"}}, {"uniqueid": "MTK0712:3PJUZCGDJ7N4UNES4YVCILRGOO598X", "current_trial": 29, "dateTime": 1512674473830, "trialdata": {"rt": -1000, "stimulus": "/static/audio/wordpool/PLAYGROUND.wav", "key_press": -1, "type": "PRES_AUD", "word": "playground", "wordID": 1086, "conditions": [18, 1200, "a", 18000], "trial": 0, "serialpos": 8, "trial_type": "single-audio", "trial_index": 29, "time_elapsed": 328233, "internal_node_id": "0.0-20.0"}}, {"uniqueid": "MTK0712:3PJUZCGDJ7N4UNES4YVCILRGOO598X", "current_trial": 30, "dateTime": 1512674475888, "trialdata": {"rt": -1000, "stimulus": "/static/audio/wordpool/BUGGY.wav", "key_press": -1, "type": "PRES_AUD", "word": "buggy", "wordID": 187, "conditions": [18, 1200, "a", 18000], "trial": 0, "serialpos": 9, "trial_type": "single-audio", "trial_index": 30, "time_elapsed": 330291, "internal_node_id": "0.0-21.0"}}, {"uniqueid": "MTK0712:3PJUZCGDJ7N4UNES4YVCILRGOO598X", "current_trial": 31, "dateTime": 1512674477898, "trialdata": {"rt": -1000, "stimulus": "/static/audio/wordpool/HATCHET.wav", "key_press": -1, "type": "PRES_AUD", "word": "hatchet", "wordID": 690, "conditions": [18, 1200, "a", 18000], "trial": 0, "serialpos": 10, "trial_type": "single-audio", "trial_index": 31, "time_elapsed": 332301, "internal_node_id": "0.0-22.0"}}, {"uniqueid": "MTK0712:3PJUZCGDJ7N4UNES4YVCILRGOO598X", "current_trial": 32, "dateTime": 1512674479985, "trialdata": {"rt": -1000, "stimulus": "/static/audio/wordpool/UNCLE.wav", "key_press": -1, "type": "PRES_AUD", "word": "uncle", "wordID": 1535, "conditions": [18, 1200, "a", 18000], "trial": 0, "serialpos": 11, "trial_type": "single-audio", "trial_index": 32, "time_elapsed": 334388, "internal_node_id": "0.0-23.0"}}, {"uniqueid": "MTK0712:3PJUZCGDJ7N4UNES4YVCILRGOO598X", "current_trial": 33, "dateTime": 1512674482061, "trialdata": {"rt": -1000, "stimulus": "/static/audio/wordpool/SLUG.wav", "key_press": -1, "type": "PRES_AUD", "word": "slug", "wordID": 1328, "conditions": [18, 1200, "a", 18000], "trial": 0, "serialpos": 12, "trial_type": "single-audio", "trial_index": 33, "time_elapsed": 336464, "internal_node_id": "0.0-24.0"}}, {"uniqueid": "MTK0712:3PJUZCGDJ7N4UNES4YVCILRGOO598X", "current_trial": 34, "dateTime": 1512674484339, "trialdata": {"rt": -1000, "stimulus": "/static/audio/wordpool/MILK.wav", "key_press": -1, "type": "PRES_AUD", "word": "milk", "wordID": 894, "conditions": [18, 1200, "a", 18000], "trial": 0, "serialpos": 13, "trial_type": "single-audio", "trial_index": 34, "time_elapsed": 338742, "internal_node_id": "0.0-25.0"}}, {"uniqueid": "MTK0712:3PJUZCGDJ7N4UNES4YVCILRGOO598X", "current_trial": 35, "dateTime": 1512674486593, "trialdata": {"rt": -1000, "stimulus": "/static/audio/wordpool/MUMMY.wav", "key_press": -1, "type": "PRES_AUD", "word": "mummy", "wordID": 931, "conditions": [18, 1200, "a", 18000], "trial": 0, "serialpos": 14, "trial_type": "single-audio", "trial_index": 35, "time_elapsed": 340996, "internal_node_id": "0.0-26.0"}}, {"uniqueid": "MTK0712:3PJUZCGDJ7N4UNES4YVCILRGOO598X", "current_trial": 36, "dateTime": 1512674488692, "trialdata": {"rt": -1000, "stimulus": "/static/audio/wordpool/FLESH.wav", "key_press": -1, "type": "PRES_AUD", "word": "flesh", "wordID": 578, "conditions": [18, 1200, "a", 18000], "trial": 0, "serialpos": 15, "trial_type": "single-audio", "trial_index": 36, "time_elapsed": 343095, "internal_node_id": "0.0-27.0"}}, {"uniqueid": "MTK0712:3PJUZCGDJ7N4UNES4YVCILRGOO598X", "current_trial": 37, "dateTime": 1512674490893, "trialdata": {"rt": -1000, "stimulus": "/static/audio/wordpool/CATCHER.wav", "key_press": -1, "type": "PRES_AUD", "word": "catcher", "wordID": 257, "conditions": [18, 1200, "a", 18000], "trial": 0, "serialpos": 16, "trial_type": "single-audio", "trial_index": 37, "time_elapsed": 345296, "internal_node_id": "0.0-28.0"}}, {"uniqueid": "MTK0712:3PJUZCGDJ7N4UNES4YVCILRGOO598X", "current_trial": 38, "dateTime": 1512674492944, "trialdata": {"rt": -1000, "stimulus": "/static/audio/wordpool/FARMER.wav", "key_press": -1, "type": "PRES_AUD", "word": "farmer", "wordID": 552, "conditions": [18, 1200, "a", 18000], "trial": 0, "serialpos": 17, "trial_type": "single-audio", "trial_index": 38, "time_elapsed": 347347, "internal_node_id": "0.0-29.0"}}, {"uniqueid": "MTK0712:3PJUZCGDJ7N4UNES4YVCILRGOO598X", "current_trial": 39, "dateTime": 1512674494253, "trialdata": {"rt": -1, "stimulus": "", "key_press": -1, "type": "PRE_RECALL_DELAY", "trial_type": "single-stim", "trial_index": 39, "time_elapsed": 348656, "internal_node_id": "0.0-30.0-0.0"}}, {"uniqueid": "MTK0712:3PJUZCGDJ7N4UNES4YVCILRGOO598X", "current_trial": 40, "dateTime": 1512674494755, "trialdata": {"rt": -1000, "stimulus": "/static/audio/400Hz.wav", "key_press": -1, "type": "PRE_RECALL_ALERT", "trial_type": "single-audio", "trial_index": 40, "time_elapsed": 349157, "internal_node_id": "0.0-31.0"}}, {"uniqueid": "MTK0712:3PJUZCGDJ7N4UNES4YVCILRGOO598X", "current_trial": 41, "dateTime": 1512674554763, "trialdata": {"rt": [7065, 10278, 11404, 13645, 14627, 16160, 17943, 20731, 22009, 23035, 27178, 28583, 30847, 32345, 33666, 35220, 37276, 39877, 44517, 47002, 48730, 51173, 52140, 56954], "recwords": ["sausage", "freezing", "spice", "winter", "cold", "freezing", "winter", "football", "time", "space", "condition", "time", "wish", "will", "risk", "run", "walk", "talking", "sandwich", "cookie", "taco", "friend", "brother", "sitting"], "type": "FREE_RECALL", "conditions": [18, 1200, "a", 18000], "trial": 0, "trial_type": "free-recall", "trial_index": 41, "time_elapsed": 409161, "internal_node_id": "0.0-32.0-0.0"}}, {"uniqueid": "MTK0712:3PJUZCGDJ7N4UNES4YVCILRGOO598X", "current_trial": 42, "dateTime": 1512674557862, "trialdata": {"rt": 1098, "key_press": 32, "type": "INSTRUCTIONS", "trial_type": "text", "trial_index": 42, "time_elapsed": 412265, "internal_node_id": "0.0-33.0"}}, {"uniqueid": "MTK0712:3PJUZCGDJ7N4UNES4YVCILRGOO598X", "current_trial": 43, "dateTime": 1512674577868, "trialdata": {"rt": [3576, 5459, 8613, 10666, 12350, 14381, 17476], "responses": ["14", "13", "23", "22", "10", "19", "19"], "num1": [4, 9, 6, 7, 6, 6, 4, 8], "num2": [4, 3, 7, 7, 3, 4, 7, 2], "num3": [6, 1, 8, 8, 1, 9, 8, 4], "type": "DISTRACTOR", "conditions": [18, 1200, "v", 18000], "trial": 1, "trial_type": "math-distractor", "trial_index": 43, "time_elapsed": 432271, "internal_node_id": "0.0-34.0"}}, {"uniqueid": "MTK0712:3PJUZCGDJ7N4UNES4YVCILRGOO598X", "current_trial": 44, "dateTime": 1512674580870, "trialdata": {"rt": -1, "stimulus": "<p id=\"stim\">10</p>", "key_press": -1, "trial_type": "single-stim", "trial_index": 44, "time_elapsed": 435273, "internal_node_id": "0.0-35.0-0.0"}}, {"uniqueid": "MTK0712:3PJUZCGDJ7N4UNES4YVCILRGOO598X", "current_trial": 45, "dateTime": 1512674581872, "trialdata": {"rt": -1, "stimulus": "<p id=\"stim\">9</p>", "key_press": -1, "trial_type": "single-stim", "trial_index": 45, "time_elapsed": 436274, "internal_node_id": "0.0-35.0-1.0"}}, {"uniqueid": "MTK0712:3PJUZCGDJ7N4UNES4YVCILRGOO598X", "current_trial": 46, "dateTime": 1512674582874, "trialdata": {"rt": -1, "stimulus": "<p id=\"stim\">8</p>", "key_press": -1, "trial_type": "single-stim", "trial_index": 46, "time_elapsed": 437277, "internal_node_id": "0.0-35.0-2.0"}}, {"uniqueid": "MTK0712:3PJUZCGDJ7N4UNES4YVCILRGOO598X", "current_trial": 47, "dateTime": 1512674583876, "trialdata": {"rt": -1, "stimulus": "<p id=\"stim\">7</p>", "key_press": -1, "trial_type": "single-stim", "trial_index": 47, "time_elapsed": 438279, "internal_node_id": "0.0-35.0-3.0"}}, {"uniqueid": "MTK0712:3PJUZCGDJ7N4UNES4YVCILRGOO598X", "current_trial": 48, "dateTime": 1512674584889, "trialdata": {"rt": -1, "stimulus": "<p id=\"stim\">6</p>", "key_press": -1, "trial_type": "single-stim", "trial_index": 48, "time_elapsed": 439292, "internal_node_id": "0.0-35.0-4.0"}}, {"uniqueid": "MTK0712:3PJUZCGDJ7N4UNES4YVCILRGOO598X", "current_trial": 49, "dateTime": 1512674585898, "trialdata": {"rt": -1, "stimulus": "<p id=\"stim\">5</p>", "key_press": -1, "trial_type": "single-stim", "trial_index": 49, "time_elapsed": 440301, "internal_node_id": "0.0-35.0-5.0"}}, {"uniqueid": "MTK0712:3PJUZCGDJ7N4UNES4YVCILRGOO598X", "current_trial": 50, "dateTime": 1512674586902, "trialdata": {"rt": -1, "stimulus": "<p id=\"stim\">4</p>", "key_press": -1, "trial_type": "single-stim", "trial_index": 50, "time_elapsed": 441305, "internal_node_id": "0.0-35.0-6.0"}}, {"uniqueid": "MTK0712:3PJUZCGDJ7N4UNES4YVCILRGOO598X", "current_trial": 51, "dateTime": 1512674587905, "trialdata": {"rt": -1, "stimulus": "<p id=\"stim\">3</p>", "key_press": -1, "trial_type": "single-stim", "trial_index": 51, "time_elapsed": 442308, "internal_node_id": "0.0-35.0-7.0"}}, {"uniqueid": "MTK0712:3PJUZCGDJ7N4UNES4YVCILRGOO598X", "current_trial": 52, "dateTime": 1512674588907, "trialdata": {"rt": -1, "stimulus": "<p id=\"stim\">2</p>", "key_press": -1, "trial_type": "single-stim", "trial_index": 52, "time_elapsed": 443310, "internal_node_id": "0.0-35.0-8.0"}}, {"uniqueid": "MTK0712:3PJUZCGDJ7N4UNES4YVCILRGOO598X", "current_trial": 53, "dateTime": 1512674589915, "trialdata": {"rt": -1, "stimulus": "<p id=\"stim\">1</p>", "key_press": -1, "trial_type": "single-stim", "trial_index": 53, "time_elapsed": 444317, "internal_node_id": "0.0-35.0-9.0"}}, {"uniqueid": "MTK0712:3PJUZCGDJ7N4UNES4YVCILRGOO598X", "current_trial": 54, "dateTime": 1512674591417, "trialdata": {"rt": -1, "stimulus": "<p id=\"stim\">+</p>", "key_press": -1, "type": "FIXATION", "trial_type": "single-stim", "trial_index": 54, "time_elapsed": 445820, "internal_node_id": "0.0-36.0-0.0"}}, {"uniqueid": "MTK0712:3PJUZCGDJ7N4UNES4YVCILRGOO598X", "current_trial": 55, "dateTime": 1512674592619, "trialdata": {"rt": -1, "stimulus": "<p id=\"stim\">COIN</p>", "key_press": -1, "type": "PRES_VIS", "word": "coin", "wordID": 342, "conditions": [18, 1200, "v", 18000], "trial": 1, "serialpos": 0, "trial_type": "single-stim", "trial_index": 55, "time_elapsed": 447022, "internal_node_id": "0.0-37.0"}}, {"uniqueid": "MTK0712:3PJUZCGDJ7N4UNES4YVCILRGOO598X", "current_trial": 56, "dateTime": 1512674594696, "trialdata": {"rt": -1, "stimulus": "<p id=\"stim\">SERVANT</p>", "key_press": -1, "type": "PRES_VIS", "word": "servant", "wordID": 1270, "conditions": [18, 1200, "v", 18000], "trial": 1, "serialpos": 1, "trial_type": "single-stim", "trial_index": 56, "time_elapsed": 449099, "internal_node_id": "0.0-38.0"}}, {"uniqueid": "MTK0712:3PJUZCGDJ7N4UNES4YVCILRGOO598X", "current_trial": 57, "dateTime": 1512674596930, "trialdata": {"rt": -1, "stimulus": "<p id=\"stim\">HEART</p>", "key_press": -1, "type": "PRES_VIS", "word": "heart", "wordID": 696, "conditions": [18, 1200, "v", 18000], "trial": 1, "serialpos": 2, "trial_type": "single-stim", "trial_index": 57, "time_elapsed": 451333, "internal_node_id": "0.0-39.0"}}, {"uniqueid": "MTK0712:3PJUZCGDJ7N4UNES4YVCILRGOO598X", "current_trial": 58, "dateTime": 1512674599237, "trialdata": {"rt": -1, "stimulus": "<p id=\"stim\">TABLET</p>", "key_press": -1, "type": "PRES_VIS", "word": "tablet", "wordID": 1426, "conditions": [18, 1200, "v", 18000], "trial": 1, "serialpos": 3, "trial_type": "single-stim", "trial_index": 58, "time_elapsed": 453640, "internal_node_id": "0.0-40.0"}}, {"uniqueid": "MTK0712:3PJUZCGDJ7N4UNES4YVCILRGOO598X", "current_trial": 59, "dateTime": 1512674601632, "trialdata": {"rt": -1, "stimulus": "<p id=\"stim\">PIZZA</p>", "key_press": -1, "type": "PRES_VIS", "word": "pizza", "wordID": 1078, "conditions": [18, 1200, "v", 18000], "trial": 1, "serialpos": 4, "trial_type": "single-stim", "trial_index": 59, "time_elapsed": 456035, "internal_node_id": "0.0-41.0"}}, {"uniqueid": "MTK0712:3PJUZCGDJ7N4UNES4YVCILRGOO598X", "current_trial": 60, "dateTime": 1512674603976, "trialdata": {"rt": -1, "stimulus": "<p id=\"stim\">WOMAN</p>", "key_press": -1, "type": "PRES_VIS", "word": "woman", "wordID": 1619, "conditions": [18, 1200, "v", 18000], "trial": 1, "serialpos": 5, "trial_type": "single-stim", "trial_index": 60, "time_elapsed": 458379, "internal_node_id": "0.0-42.0"}}, {"uniqueid": "MTK0712:3PJUZCGDJ7N4UNES4YVCILRGOO598X", "current_trial": 61, "dateTime": 1512674606024, "trialdata": {"rt": -1, "stimulus": "<p id=\"stim\">LAPEL</p>", "key_press": -1, "type": "PRES_VIS", "word": "lapel", "wordID": 799, "conditions": [18, 1200, "v", 18000], "trial": 1, "serialpos": 6, "trial_type": "single-stim", "trial_index": 61, "time_elapsed": 460427, "internal_node_id": "0.0-43.0"}}, {"uniqueid": "MTK0712:3PJUZCGDJ7N4UNES4YVCILRGOO598X", "current_trial": 62, "dateTime": 1512674608227, "trialdata": {"rt": -1, "stimulus": "<p id=\"stim\">TYPIST</p>", "key_press": -1, "type": "PRES_VIS", "word": "typist", "wordID": 1531, "conditions": [18, 1200, "v", 18000], "trial": 1, "serialpos": 7, "trial_type": "single-stim", "trial_index": 62, "time_elapsed": 462629, "internal_node_id": "0.0-44.0"}}, {"uniqueid": "MTK0712:3PJUZCGDJ7N4UNES4YVCILRGOO598X", "current_trial": 63, "dateTime": 1512674610429, "trialdata": {"rt": -1, "stimulus": "<p id=\"stim\">MARKET</p>", "key_press": -1, "type": "PRES_VIS", "word": "market", "wordID": 870, "conditions": [18, 1200, "v", 18000], "trial": 1, "serialpos": 8, "trial_type": "single-stim", "trial_index": 63, "time_elapsed": 464832, "internal_node_id": "0.0-45.0"}}, {"uniqueid": "MTK0712:3PJUZCGDJ7N4UNES4YVCILRGOO598X", "current_trial": 64, "dateTime": 1512674612541, "trialdata": {"rt": -1, "stimulus": "<p id=\"stim\">LONDON</p>", "key_press": -1, "type": "PRES_VIS", "word": "london", "wordID": 842, "conditions": [18, 1200, "v", 18000], "trial": 1, "serialpos": 9, "trial_type": "single-stim", "trial_index": 64, "time_elapsed": 466944, "internal_node_id": "0.0-46.0"}}, {"uniqueid": "MTK0712:3PJUZCGDJ7N4UNES4YVCILRGOO598X", "current_trial": 65, "dateTime": 1512674614924, "trialdata": {"rt": -1, "stimulus": "<p id=\"stim\">TROUT</p>", "key_press": -1, "type": "PRES_VIS", "word": "trout", "wordID": 1510, "conditions": [18, 1200, "v", 18000], "trial": 1, "serialpos": 10, "trial_type": "single-stim", "trial_index": 65, "time_elapsed": 469327, "internal_node_id": "0.0-47.0"}}, {"uniqueid": "MTK0712:3PJUZCGDJ7N4UNES4YVCILRGOO598X", "current_trial": 66, "dateTime": 1512674617029, "trialdata": {"rt": -1, "stimulus": "<p id=\"stim\">VAGRANT</p>", "key_press": -1, "type": "PRES_VIS", "word": "vagrant", "wordID": 1543, "conditions": [18, 1200, "v", 18000], "trial": 1, "serialpos": 11, "trial_type": "single-stim", "trial_index": 66, "time_elapsed": 471431, "internal_node_id": "0.0-48.0"}}, {"uniqueid": "MTK0712:3PJUZCGDJ7N4UNES4YVCILRGOO598X", "current_trial": 67, "dateTime": 1512674619309, "trialdata": {"rt": -1, "stimulus": "<p id=\"stim\">CREVICE</p>", "key_press": -1, "type": "PRES_VIS", "word": "crevice", "wordID": 404, "conditions": [18, 1200, "v", 18000], "trial": 1, "serialpos": 12, "trial_type": "single-stim", "trial_index": 67, "time_elapsed": 473712, "internal_node_id": "0.0-49.0"}}, {"uniqueid": "MTK0712:3PJUZCGDJ7N4UNES4YVCILRGOO598X", "current_trial": 68, "dateTime": 1512674621450, "trialdata": {"rt": -1, "stimulus": "<p id=\"stim\">NECKLACE</p>", "key_press": -1, "type": "PRES_VIS", "word": "necklace", "wordID": 939, "conditions": [18, 1200, "v", 18000], "trial": 1, "serialpos": 13, "trial_type": "single-stim", "trial_index": 68, "time_elapsed": 475852, "internal_node_id": "0.0-50.0"}}, {"uniqueid": "MTK0712:3PJUZCGDJ7N4UNES4YVCILRGOO598X", "current_trial": 69, "dateTime": 1512674623461, "trialdata": {"rt": -1, "stimulus": "<p id=\"stim\">SHORTS</p>", "key_press": -1, "type": "PRES_VIS", "word": "shorts", "wordID": 1292, "conditions": [18, 1200, "v", 18000], "trial": 1, "serialpos": 14, "trial_type": "single-stim", "trial_index": 69, "time_elapsed": 477864, "internal_node_id": "0.0-51.0"}}, {"uniqueid": "MTK0712:3PJUZCGDJ7N4UNES4YVCILRGOO598X", "current_trial": 70, "dateTime": 1512674625536, "trialdata": {"rt": -1, "stimulus": "<p id=\"stim\">COWBOY</p>", "key_press": -1, "type": "PRES_VIS", "word": "cowboy", "wordID": 394, "conditions": [18, 1200, "v", 18000], "trial": 1, "serialpos": 15, "trial_type": "single-stim", "trial_index": 70, "time_elapsed": 479939, "internal_node_id": "0.0-52.0"}}, {"uniqueid": "MTK0712:3PJUZCGDJ7N4UNES4YVCILRGOO598X", "current_trial": 71, "dateTime": 1512674627709, "trialdata": {"rt": -1, "stimulus": "<p id=\"stim\">VICTIM</p>", "key_press": -1, "type": "PRES_VIS", "word": "victim", "wordID": 1561, "conditions": [18, 1200, "v", 18000], "trial": 1, "serialpos": 16, "trial_type": "single-stim", "trial_index": 71, "time_elapsed": 482112, "internal_node_id": "0.0-53.0"}}, {"uniqueid": "MTK0712:3PJUZCGDJ7N4UNES4YVCILRGOO598X", "current_trial": 72, "dateTime": 1512674630045, "trialdata": {"rt": -1, "stimulus": "<p id=\"stim\">LIPSTICK</p>", "key_press": -1, "type": "PRES_VIS", "word": "lipstick", "wordID": 828, "conditions": [18, 1200, "v", 18000], "trial": 1, "serialpos": 17, "trial_type": "single-stim", "trial_index": 72, "time_elapsed": 484448, "internal_node_id": "0.0-54.0"}}, {"uniqueid": "MTK0712:3PJUZCGDJ7N4UNES4YVCILRGOO598X", "current_trial": 73, "dateTime": 1512674632219, "trialdata": {"rt": -1, "stimulus": "", "key_press": -1, "type": "PRE_RECALL_DELAY", "trial_type": "single-stim", "trial_index": 73, "time_elapsed": 486622, "internal_node_id": "0.0-55.0-0.0"}}, {"uniqueid": "MTK0712:3PJUZCGDJ7N4UNES4YVCILRGOO598X", "current_trial": 74, "dateTime": 1512674632720, "trialdata": {"rt": -1000, "stimulus": "/static/audio/400Hz.wav", "key_press": -1, "type": "PRE_RECALL_ALERT", "trial_type": "single-audio", "trial_index": 74, "time_elapsed": 487123, "internal_node_id": "0.0-56.0"}}, {"uniqueid": "MTK0712:3PJUZCGDJ7N4UNES4YVCILRGOO598X", "current_trial": 75, "dateTime": 1512674692726, "trialdata": {"rt": [3790, 5319, 6470, 7557, 8703, 15522, 17753, 20357, 25358, 26635, 29151, 33748, 35467, 37216, 40169, 44181, 45875, 53822, 59547], "recwords": ["lipstick", "crevice", "market", "winter", "sausage", "jacket", "talking", "vagrant", "gloves", "wide", "thin", "contemplative", "wishing", "running", "brownie", "wishing", "talking", "market", "jacket"], "type": "FREE_RECALL", "conditions": [18, 1200, "v", 18000], "trial": 1, "trial_type": "free-recall", "trial_index": 75, "time_elapsed": 547127, "internal_node_id": "0.0-57.0-0.0"}}, {"uniqueid": "MTK0712:3PJUZCGDJ7N4UNES4YVCILRGOO598X", "current_trial": 76, "dateTime": 1512674697391, "trialdata": {"rt": 2655, "key_press": 32, "type": "INSTRUCTIONS", "trial_type": "text", "trial_index": 76, "time_elapsed": 551786, "internal_node_id": "0.0-58.0"}}, {"uniqueid": "MTK0712:3PJUZCGDJ7N4UNES4YVCILRGOO598X", "current_trial": 77, "dateTime": 1512674722396, "trialdata": {"rt": [2828, 5574, 7439, 9813, 12320, 14712, 17425, 20006, 22825], "responses": ["21", "20", "14", "9", "27", "19", "22", "14", "16"], "num1": [8, 7, 1, 1, 9, 8, 8, 8, 3, 5], "num2": [4, 5, 8, 3, 9, 6, 5, 4, 5, 6], "num3": [9, 8, 5, 5, 9, 5, 9, 2, 8, 3], "type": "DISTRACTOR", "conditions": [24, 800, "a", 24000], "trial": 2, "trial_type": "math-distractor", "trial_index": 77, "time_elapsed": 576799, "internal_node_id": "0.0-59.0"}}, {"uniqueid": "MTK0712:3PJUZCGDJ7N4UNES4YVCILRGOO598X", "current_trial": 78, "dateTime": 1512674725399, "trialdata": {"rt": -1, "stimulus": "<p id=\"stim\">10</p>", "key_press": -1, "trial_type": "single-stim", "trial_index": 78, "time_elapsed": 579802, "internal_node_id": "0.0-60.0-0.0"}}, {"uniqueid": "MTK0712:3PJUZCGDJ7N4UNES4YVCILRGOO598X", "current_trial": 79, "dateTime": 1512674726400, "trialdata": {"rt": -1, "stimulus": "<p id=\"stim\">9</p>", "key_press": -1, "trial_type": "single-stim", "trial_index": 79, "time_elapsed": 580803, "internal_node_id": "0.0-60.0-1.0"}}, {"uniqueid": "MTK0712:3PJUZCGDJ7N4UNES4YVCILRGOO598X", "current_trial": 80, "dateTime": 1512674727401, "trialdata": {"rt": -1, "stimulus": "<p id=\"stim\">8</p>", "key_press": -1, "trial_type": "single-stim", "trial_index": 80, "time_elapsed": 581804, "internal_node_id": "0.0-60.0-2.0"}}, {"uniqueid": "MTK0712:3PJUZCGDJ7N4UNES4YVCILRGOO598X", "current_trial": 81, "dateTime": 1512674728403, "trialdata": {"rt": -1, "stimulus": "<p id=\"stim\">7</p>", "key_press": -1, "trial_type": "single-stim", "trial_index": 81, "time_elapsed": 582806, "internal_node_id": "0.0-60.0-3.0"}}, {"uniqueid": "MTK0712:3PJUZCGDJ7N4UNES4YVCILRGOO598X", "current_trial": 82, "dateTime": 1512674729413, "trialdata": {"rt": -1, "stimulus": "<p id=\"stim\">6</p>", "key_press": -1, "trial_type": "single-stim", "trial_index": 82, "time_elapsed": 583816, "internal_node_id": "0.0-60.0-4.0"}}, {"uniqueid": "MTK0712:3PJUZCGDJ7N4UNES4YVCILRGOO598X", "current_trial": 83, "dateTime": 1512674730425, "trialdata": {"rt": -1, "stimulus": "<p id=\"stim\">5</p>", "key_press": -1, "trial_type": "single-stim", "trial_index": 83, "time_elapsed": 584828, "internal_node_id": "0.0-60.0-5.0"}}, {"uniqueid": "MTK0712:3PJUZCGDJ7N4UNES4YVCILRGOO598X", "current_trial": 84, "dateTime": 1512674731426, "trialdata": {"rt": -1, "stimulus": "<p id=\"stim\">4</p>", "key_press": -1, "trial_type": "single-stim", "trial_index": 84, "time_elapsed": 585829, "internal_node_id": "0.0-60.0-6.0"}}, {"uniqueid": "MTK0712:3PJUZCGDJ7N4UNES4YVCILRGOO598X", "current_trial": 85, "dateTime": 1512674732429, "trialdata": {"rt": -1, "stimulus": "<p id=\"stim\">3</p>", "key_press": -1, "trial_type": "single-stim", "trial_index": 85, "time_elapsed": 586832, "internal_node_id": "0.0-60.0-7.0"}}, {"uniqueid": "MTK0712:3PJUZCGDJ7N4UNES4YVCILRGOO598X", "current_trial": 86, "dateTime": 1512674733430, "trialdata": {"rt": -1, "stimulus": "<p id=\"stim\">2</p>", "key_press": -1, "trial_type": "single-stim", "trial_index": 86, "time_elapsed": 587833, "internal_node_id": "0.0-60.0-8.0"}}, {"uniqueid": "MTK0712:3PJUZCGDJ7N4UNES4YVCILRGOO598X", "current_trial": 87, "dateTime": 1512674734432, "trialdata": {"rt": -1, "stimulus": "<p id=\"stim\">1</p>", "key_press": -1, "trial_type": "single-stim", "trial_index": 87, "time_elapsed": 588835, "internal_node_id": "0.0-60.0-9.0"}}, {"uniqueid": "MTK0712:3PJUZCGDJ7N4UNES4YVCILRGOO598X", "current_trial": 88, "dateTime": 1512674735940, "trialdata": {"rt": -1, "stimulus": "<p id=\"stim\">+</p>", "key_press": -1, "type": "FIXATION", "trial_type": "single-stim", "trial_index": 88, "time_elapsed": 590342, "internal_node_id": "0.0-61.0-0.0"}}, {"uniqueid": "MTK0712:3PJUZCGDJ7N4UNES4YVCILRGOO598X", "current_trial": 89, "dateTime": 1512674737885, "trialdata": {"rt": -1000, "stimulus": "/static/audio/wordpool/JELLO.wav", "key_press": -1, "type": "PRES_AUD", "word": "jello", "wordID": 753, "conditions": [24, 800, "a", 24000], "trial": 2, "serialpos": 0, "trial_type": "single-audio", "trial_index": 89, "time_elapsed": 592288, "internal_node_id": "0.0-62.0"}}, {"uniqueid": "MTK0712:3PJUZCGDJ7N4UNES4YVCILRGOO598X", "current_trial": 90, "dateTime": 1512674739819, "trialdata": {"rt": -1000, "stimulus": "/static/audio/wordpool/LEG.wav", "key_press": -1, "type": "PRES_AUD", "word": "leg", "wordID": 808, "conditions": [24, 800, "a", 24000], "trial": 2, "serialpos": 1, "trial_type": "single-audio", "trial_index": 90, "time_elapsed": 594222, "internal_node_id": "0.0-63.0"}}, {"uniqueid": "MTK0712:3PJUZCGDJ7N4UNES4YVCILRGOO598X", "current_trial": 91, "dateTime": 1512674741748, "trialdata": {"rt": -1000, "stimulus": "/static/audio/wordpool/HAND.wav", "key_press": -1, "type": "PRES_AUD", "word": "hand", "wordID": 682, "conditions": [24, 800, "a", 24000], "trial": 2, "serialpos": 2, "trial_type": "single-audio", "trial_index": 91, "time_elapsed": 596150, "internal_node_id": "0.0-64.0"}}, {"uniqueid": "MTK0712:3PJUZCGDJ7N4UNES4YVCILRGOO598X", "current_trial": 92, "dateTime": 1512674743628, "trialdata": {"rt": -1000, "stimulus": "/static/audio/wordpool/ORCHID.wav", "key_press": -1, "type": "PRES_AUD", "word": "orchid", "wordID": 981, "conditions": [24, 800, "a", 24000], "trial": 2, "serialpos": 3, "trial_type": "single-audio", "trial_index": 92, "time_elapsed": 598031, "internal_node_id": "0.0-65.0"}}, {"uniqueid": "MTK0712:3PJUZCGDJ7N4UNES4YVCILRGOO598X", "current_trial": 93, "dateTime": 1512674745435, "trialdata": {"rt": -1000, "stimulus": "/static/audio/wordpool/QUEEN.wav", "key_press": -1, "type": "PRES_AUD", "word": "queen", "wordID": 1148, "conditions": [24, 800, "a", 24000], "trial": 2, "serialpos": 4, "trial_type": "single-audio", "trial_index": 93, "time_elapsed": 599838, "internal_node_id": "0.0-66.0"}}, {"uniqueid": "MTK0712:3PJUZCGDJ7N4UNES4YVCILRGOO598X", "current_trial": 94, "dateTime": 1512674747350, "trialdata": {"rt": -1000, "stimulus": "/static/audio/wordpool/MESSAGE.wav", "key_press": -1, "type": "PRES_AUD", "word": "message", "wordID": 887, "conditions": [24, 800, "a", 24000], "trial": 2, "serialpos": 5, "trial_type": "single-audio", "trial_index": 94, "time_elapsed": 601753, "internal_node_id": "0.0-67.0"}}, {"uniqueid": "MTK0712:3PJUZCGDJ7N4UNES4YVCILRGOO598X", "current_trial": 95, "dateTime": 1512674749166, "trialdata": {"rt": -1000, "stimulus": "/static/audio/wordpool/SKETCH.wav", "key_press": -1, "type": "PRES_AUD", "word": "sketch", "wordID": 1314, "conditions": [24, 800, "a", 24000], "trial": 2, "serialpos": 6, "trial_type": "single-audio", "trial_index": 95, "time_elapsed": 603569, "internal_node_id": "0.0-68.0"}}, {"uniqueid": "MTK0712:3PJUZCGDJ7N4UNES4YVCILRGOO598X", "current_trial": 96, "dateTime": 1512674751007, "trialdata": {"rt": -1000, "stimulus": "/static/audio/wordpool/SEAFOOD.wav", "key_press": -1, "type": "PRES_AUD", "word": "seafood", "wordID": 1259, "conditions": [24, 800, "a", 24000], "trial": 2, "serialpos": 7, "trial_type": "single-audio", "trial_index": 96, "time_elapsed": 605409, "internal_node_id": "0.0-69.0"}}, {"uniqueid": "MTK0712:3PJUZCGDJ7N4UNES4YVCILRGOO598X", "current_trial": 97, "dateTime": 1512674753006, "trialdata": {"rt": -1000, "stimulus": "/static/audio/wordpool/SKILLET.wav", "key_press": -1, "type": "PRES_AUD", "word": "skillet", "wordID": 1316, "conditions": [24, 800, "a", 24000], "trial": 2, "serialpos": 8, "trial_type": "single-audio", "trial_index": 97, "time_elapsed": 607409, "internal_node_id": "0.0-70.0"}}, {"uniqueid": "MTK0712:3PJUZCGDJ7N4UNES4YVCILRGOO598X", "current_trial": 98, "dateTime": 1512674754687, "trialdata": {"rt": -1000, "stimulus": "/static/audio/wordpool/DENIM.wav", "key_press": -1, "type": "PRES_AUD", "word": "denim", "wordID": 445, "conditions": [24, 800, "a", 24000], "trial": 2, "serialpos": 9, "trial_type": "single-audio", "trial_index": 98, "time_elapsed": 609090, "internal_node_id": "0.0-71.0"}}, {"uniqueid": "MTK0712:3PJUZCGDJ7N4UNES4YVCILRGOO598X", "current_trial": 99, "dateTime": 1512674756317, "trialdata": {"rt": -1000, "stimulus": "/static/audio/wordpool/PLAID.wav", "key_press": -1, "type": "PRES_AUD", "word": "plaid", "wordID": 1079, "conditions": [24, 800, "a", 24000], "trial": 2, "serialpos": 10, "trial_type": "single-audio", "trial_index": 99, "time_elapsed": 610719, "internal_node_id": "0.0-72.0"}}, {"uniqueid": "MTK0712:3PJUZCGDJ7N4UNES4YVCILRGOO598X", "current_trial": 100, "dateTime": 1512674758087, "trialdata": {"rt": -1000, "stimulus": "/static/audio/wordpool/JELLY.wav", "key_press": -1, "type": "PRES_AUD", "word": "jelly", "wordID": 754, "conditions": [24, 800, "a", 24000], "trial": 2, "serialpos": 11, "trial_type": "single-audio", "trial_index": 100, "time_elapsed": 612490, "internal_node_id": "0.0-73.0"}}, {"uniqueid": "MTK0712:3PJUZCGDJ7N4UNES4YVCILRGOO598X", "current_trial": 101, "dateTime": 1512674759982, "trialdata": {"rt": -1000, "stimulus": "/static/audio/wordpool/RECORD.wav", "key_press": -1, "type": "PRES_AUD", "word": "record", "wordID": 1175, "conditions": [24, 800, "a", 24000], "trial": 2, "serialpos": 12, "trial_type": "single-audio", "trial_index": 101, "time_elapsed": 614385, "internal_node_id": "0.0-74.0"}}, {"uniqueid": "MTK0712:3PJUZCGDJ7N4UNES4YVCILRGOO598X", "current_trial": 102, "dateTime": 1512674761726, "trialdata": {"rt": -1000, "stimulus": "/static/audio/wordpool/GRILL.wav", "key_press": -1, "type": "PRES_AUD", "word": "grill", "wordID": 660, "conditions": [24, 800, "a", 24000], "trial": 2, "serialpos": 13, "trial_type": "single-audio", "trial_index": 102, "time_elapsed": 616129, "internal_node_id": "0.0-75.0"}}, {"uniqueid": "MTK0712:3PJUZCGDJ7N4UNES4YVCILRGOO598X", "current_trial": 103, "dateTime": 1512674763488, "trialdata": {"rt": -1000, "stimulus": "/static/audio/wordpool/SNAKE.wav", "key_press": -1, "type": "PRES_AUD", "word": "snake", "wordID": 1332, "conditions": [24, 800, "a", 24000], "trial": 2, "serialpos": 14, "trial_type": "single-audio", "trial_index": 103, "time_elapsed": 617891, "internal_node_id": "0.0-76.0"}}, {"uniqueid": "MTK0712:3PJUZCGDJ7N4UNES4YVCILRGOO598X", "current_trial": 104, "dateTime": 1512674765267, "trialdata": {"rt": -1000, "stimulus": "/static/audio/wordpool/SPIDER.wav", "key_press": -1, "type": "PRES_AUD", "word": "spider", "wordID": 1350, "conditions": [24, 800, "a", 24000], "trial": 2, "serialpos": 15, "trial_type": "single-audio", "trial_index": 104, "time_elapsed": 619669, "internal_node_id": "0.0-77.0"}}, {"uniqueid": "MTK0712:3PJUZCGDJ7N4UNES4YVCILRGOO598X", "current_trial": 105, "dateTime": 1512674767251, "trialdata": {"rt": -1000, "stimulus": "/static/audio/wordpool/SHRUB.wav", "key_press": -1, "type": "PRES_AUD", "word": "shrub", "wordID": 1298, "conditions": [24, 800, "a", 24000], "trial": 2, "serialpos": 16, "trial_type": "single-audio", "trial_index": 105, "time_elapsed": 621654, "internal_node_id": "0.0-78.0"}}, {"uniqueid": "MTK0712:3PJUZCGDJ7N4UNES4YVCILRGOO598X", "current_trial": 106, "dateTime": 1512674768929, "trialdata": {"rt": -1000, "stimulus": "/static/audio/wordpool/BREAST.wav", "key_press": -1, "type": "PRES_AUD", "word": "breast", "wordID": 170, "conditions": [24, 800, "a", 24000], "trial": 2, "serialpos": 17, "trial_type": "single-audio", "trial_index": 106, "time_elapsed": 623332, "internal_node_id": "0.0-79.0"}}, {"uniqueid": "MTK0712:3PJUZCGDJ7N4UNES4YVCILRGOO598X", "current_trial": 107, "dateTime": 1512674770564, "trialdata": {"rt": -1000, "stimulus": "/static/audio/wordpool/DOLPHIN.wav", "key_press": -1, "type": "PRES_AUD", "word": "dolphin", "wordID": 482, "conditions": [24, 800, "a", 24000], "trial": 2, "serialpos": 18, "trial_type": "single-audio", "trial_index": 107, "time_elapsed": 624967, "internal_node_id": "0.0-80.0"}}, {"uniqueid": "MTK0712:3PJUZCGDJ7N4UNES4YVCILRGOO598X", "current_trial": 108, "dateTime": 1512674772351, "trialdata": {"rt": -1000, "stimulus": "/static/audio/wordpool/CAPTIVE.wav", "key_press": -1, "type": "PRES_AUD", "word": "captive", "wordID": 239, "conditions": [24, 800, "a", 24000], "trial": 2, "serialpos": 19, "trial_type": "single-audio", "trial_index": 108, "time_elapsed": 626754, "internal_node_id": "0.0-81.0"}}, {"uniqueid": "MTK0712:3PJUZCGDJ7N4UNES4YVCILRGOO598X", "current_trial": 109, "dateTime": 1512674773971, "trialdata": {"rt": -1000, "stimulus": "/static/audio/wordpool/FLOWER.wav", "key_press": -1, "type": "PRES_AUD", "word": "flower", "wordID": 583, "conditions": [24, 800, "a", 24000], "trial": 2, "serialpos": 20, "trial_type": "single-audio", "trial_index": 109, "time_elapsed": 628374, "internal_node_id": "0.0-82.0"}}, {"uniqueid": "MTK0712:3PJUZCGDJ7N4UNES4YVCILRGOO598X", "current_trial": 110, "dateTime": 1512674775752, "trialdata": {"rt": -1000, "stimulus": "/static/audio/wordpool/FINGER.wav", "key_press": -1, "type": "PRES_AUD", "word": "finger", "wordID": 566, "conditions": [24, 800, "a", 24000], "trial": 2, "serialpos": 21, "trial_type": "single-audio", "trial_index": 110, "time_elapsed": 630154, "internal_node_id": "0.0-83.0"}}, {"uniqueid": "MTK0712:3PJUZCGDJ7N4UNES4YVCILRGOO598X", "current_trial": 111, "dateTime": 1512674777600, "trialdata": {"rt": -1000, "stimulus": "/static/audio/wordpool/SCALPEL.wav", "key_press": -1, "type": "PRES_AUD", "word": "scalpel", "wordID": 1242, "conditions": [24, 800, "a", 24000], "trial": 2, "serialpos": 22, "trial_type": "single-audio", "trial_index": 111, "time_elapsed": 632003, "internal_node_id": "0.0-84.0"}}, {"uniqueid": "MTK0712:3PJUZCGDJ7N4UNES4YVCILRGOO598X", "current_trial": 112, "dateTime": 1512674779595, "trialdata": {"rt": -1000, "stimulus": "/static/audio/wordpool/SHOVEL.wav", "key_press": -1, "type": "PRES_AUD", "word": "shovel", "wordID": 1294, "conditions": [24, 800, "a", 24000], "trial": 2, "serialpos": 23, "trial_type": "single-audio", "trial_index": 112, "time_elapsed": 633998, "internal_node_id": "0.0-85.0"}}, {"uniqueid": "MTK0712:3PJUZCGDJ7N4UNES4YVCILRGOO598X", "current_trial": 113, "dateTime": 1512674780908, "trialdata": {"rt": -1, "stimulus": "", "key_press": -1, "type": "PRE_RECALL_DELAY", "trial_type": "single-stim", "trial_index": 113, "time_elapsed": 635311, "internal_node_id": "0.0-86.0-0.0"}}, {"uniqueid": "MTK0712:3PJUZCGDJ7N4UNES4YVCILRGOO598X", "current_trial": 114, "dateTime": 1512674781424, "trialdata": {"rt": -1000, "stimulus": "/static/audio/400Hz.wav", "key_press": -1, "type": "PRE_RECALL_ALERT", "trial_type": "single-audio", "trial_index": 114, "time_elapsed": 635827, "internal_node_id": "0.0-87.0"}}, {"uniqueid": "MTK0712:3PJUZCGDJ7N4UNES4YVCILRGOO598X", "current_trial": 115, "dateTime": 1512674841433, "trialdata": {"rt": [1830, 3410, 4447, 6371, 13334, 14906, 18443, 19892, 22741, 31421, 32496, 34063, 35706, 37595, 40181, 41657, 43363, 44311, 52297, 54581, 56347, 59700], "recwords": ["scapel", "shovel", "breast", "dolphin", "spider", "snake", "jello", "jelly", "dolphin", "wishful", "plate", "dinner", "meal", "ticket", "running", "leg", "pants", "jacket", "walking", "thinking", "wishing", "dog"], "type": "FREE_RECALL", "conditions": [24, 800, "a", 24000], "trial": 2, "trial_type": "free-recall", "trial_index": 115, "time_elapsed": 695833, "internal_node_id": "0.0-88.0-0.0"}}, {"uniqueid": "MTK0712:3PJUZCGDJ7N4UNES4YVCILRGOO598X", "current_trial": 116, "dateTime": 1512674844277, "trialdata": {"rt": 842, "key_press": 32, "type": "INSTRUCTIONS", "trial_type": "text", "trial_index": 116, "time_elapsed": 698680, "internal_node_id": "0.0-89.0"}}, {"uniqueid": "MTK0712:3PJUZCGDJ7N4UNES4YVCILRGOO598X", "current_trial": 117, "dateTime": 1512674858281, "trialdata": {"rt": [10461], "responses": ["18"], "num1": [5, 1], "num2": [5, 1], "num3": [8, 5], "type": "DISTRACTOR", "conditions": [12, 800, "v", 12000], "trial": 3, "trial_type": "math-distractor", "trial_index": 117, "time_elapsed": 712683, "internal_node_id": "0.0-90.0"}}, {"uniqueid": "MTK0712:3PJUZCGDJ7N4UNES4YVCILRGOO598X", "current_trial": 118, "dateTime": 1512674861282, "trialdata": {"rt": -1, "stimulus": "<p id=\"stim\">10</p>", "key_press": -1, "trial_type": "single-stim", "trial_index": 118, "time_elapsed": 715685, "internal_node_id": "0.0-91.0-0.0"}}, {"uniqueid": "MTK0712:3PJUZCGDJ7N4UNES4YVCILRGOO598X", "current_trial": 119, "dateTime": 1512674862283, "trialdata": {"rt": -1, "stimulus": "<p id=\"stim\">9</p>", "key_press": -1, "trial_type": "single-stim", "trial_index": 119, "time_elapsed": 716686, "internal_node_id": "0.0-91.0-1.0"}}, {"uniqueid": "MTK0712:3PJUZCGDJ7N4UNES4YVCILRGOO598X", "current_trial": 120, "dateTime": 1512674863285, "trialdata": {"rt": -1, "stimulus": "<p id=\"stim\">8</p>", "key_press": -1, "trial_type": "single-stim", "trial_index": 120, "time_elapsed": 717687, "internal_node_id": "0.0-91.0-2.0"}}, {"uniqueid": "MTK0712:3PJUZCGDJ7N4UNES4YVCILRGOO598X", "current_trial": 121, "dateTime": 1512674864286, "trialdata": {"rt": -1, "stimulus": "<p id=\"stim\">7</p>", "key_press": -1, "trial_type": "single-stim", "trial_index": 121, "time_elapsed": 718688, "internal_node_id": "0.0-91.0-3.0"}}, {"uniqueid": "MTK0712:3PJUZCGDJ7N4UNES4YVCILRGOO598X", "current_trial": 122, "dateTime": 1512674865286, "trialdata": {"rt": -1, "stimulus": "<p id=\"stim\">6</p>", "key_press": -1, "trial_type": "single-stim", "trial_index": 122, "time_elapsed": 719689, "internal_node_id": "0.0-91.0-4.0"}}, {"uniqueid": "MTK0712:3PJUZCGDJ7N4UNES4YVCILRGOO598X", "current_trial": 123, "dateTime": 1512674866288, "trialdata": {"rt": -1, "stimulus": "<p id=\"stim\">5</p>", "key_press": -1, "trial_type": "single-stim", "trial_index": 123, "time_elapsed": 720690, "internal_node_id": "0.0-91.0-5.0"}}, {"uniqueid": "MTK0712:3PJUZCGDJ7N4UNES4YVCILRGOO598X", "current_trial": 124, "dateTime": 1512674867289, "trialdata": {"rt": -1, "stimulus": "<p id=\"stim\">4</p>", "key_press": -1, "trial_type": "single-stim", "trial_index": 124, "time_elapsed": 721692, "internal_node_id": "0.0-91.0-6.0"}}, {"uniqueid": "MTK0712:3PJUZCGDJ7N4UNES4YVCILRGOO598X", "current_trial": 125, "dateTime": 1512674868290, "trialdata": {"rt": -1, "stimulus": "<p id=\"stim\">3</p>", "key_press": -1, "trial_type": "single-stim", "trial_index": 125, "time_elapsed": 722693, "internal_node_id": "0.0-91.0-7.0"}}, {"uniqueid": "MTK0712:3PJUZCGDJ7N4UNES4YVCILRGOO598X", "current_trial": 126, "dateTime": 1512674869291, "trialdata": {"rt": -1, "stimulus": "<p id=\"stim\">2</p>", "key_press": -1, "trial_type": "single-stim", "trial_index": 126, "time_elapsed": 723694, "internal_node_id": "0.0-91.0-8.0"}}, {"uniqueid": "MTK0712:3PJUZCGDJ7N4UNES4YVCILRGOO598X", "current_trial": 127, "dateTime": 1512674870292, "trialdata": {"rt": -1, "stimulus": "<p id=\"stim\">1</p>", "key_press": -1, "trial_type": "single-stim", "trial_index": 127, "time_elapsed": 724695, "internal_node_id": "0.0-91.0-9.0"}}, {"uniqueid": "MTK0712:3PJUZCGDJ7N4UNES4YVCILRGOO598X", "current_trial": 128, "dateTime": 1512674871793, "trialdata": {"rt": -1, "stimulus": "<p id=\"stim\">+</p>", "key_press": -1, "type": "FIXATION", "trial_type": "single-stim", "trial_index": 128, "time_elapsed": 726196, "internal_node_id": "0.0-92.0-0.0"}}, {"uniqueid": "MTK0712:3PJUZCGDJ7N4UNES4YVCILRGOO598X", "current_trial": 129, "dateTime": 1512674872594, "trialdata": {"rt": -1, "stimulus": "<p id=\"stim\">TUNNEL</p>", "key_press": -1, "type": "PRES_VIS", "word": "tunnel", "wordID": 1518, "conditions": [12, 800, "v", 12000], "trial": 3, "serialpos": 0, "trial_type": "single-stim", "trial_index": 129, "time_elapsed": 726996, "internal_node_id": "0.0-93.0"}}, {"uniqueid": "MTK0712:3PJUZCGDJ7N4UNES4YVCILRGOO598X", "current_trial": 130, "dateTime": 1512674874396, "trialdata": {"rt": -1, "stimulus": "<p id=\"stim\">VALVE</p>", "key_press": -1, "type": "PRES_VIS", "word": "valve", "wordID": 1545, "conditions": [12, 800, "v", 12000], "trial": 3, "serialpos": 1, "trial_type": "single-stim", "trial_index": 130, "time_elapsed": 728799, "internal_node_id": "0.0-94.0"}}, {"uniqueid": "MTK0712:3PJUZCGDJ7N4UNES4YVCILRGOO598X", "current_trial": 131, "dateTime": 1512674876281, "trialdata": {"rt": -1, "stimulus": "<p id=\"stim\">SCALLOP</p>", "key_press": -1, "type": "PRES_VIS", "word": "scallop", "wordID": 1241, "conditions": [12, 800, "v", 12000], "trial": 3, "serialpos": 2, "trial_type": "single-stim", "trial_index": 131, "time_elapsed": 730684, "internal_node_id": "0.0-95.0"}}, {"uniqueid": "MTK0712:3PJUZCGDJ7N4UNES4YVCILRGOO598X", "current_trial": 132, "dateTime": 1512674878202, "trialdata": {"rt": -1, "stimulus": "<p id=\"stim\">COD</p>", "key_press": -1, "type": "PRES_VIS", "word": "cod", "wordID": 339, "conditions": [12, 800, "v", 12000], "trial": 3, "serialpos": 3, "trial_type": "single-stim", "trial_index": 132, "time_elapsed": 732604, "internal_node_id": "0.0-96.0"}}, {"uniqueid": "MTK0712:3PJUZCGDJ7N4UNES4YVCILRGOO598X", "current_trial": 133, "dateTime": 1512674879905, "trialdata": {"rt": -1, "stimulus": "<p id=\"stim\">CLOUD</p>", "key_press": -1, "type": "PRES_VIS", "word": "cloud", "wordID": 327, "conditions": [12, 800, "v", 12000], "trial": 3, "serialpos": 4, "trial_type": "single-stim", "trial_index": 133, "time_elapsed": 734308, "internal_node_id": "0.0-97.0"}}, {"uniqueid": "MTK0712:3PJUZCGDJ7N4UNES4YVCILRGOO598X", "current_trial": 134, "dateTime": 1512674881749, "trialdata": {"rt": -1, "stimulus": "<p id=\"stim\">ROBOT</p>", "key_press": -1, "type": "PRES_VIS", "word": "robot", "wordID": 1199, "conditions": [12, 800, "v", 12000], "trial": 3, "serialpos": 5, "trial_type": "single-stim", "trial_index": 134, "time_elapsed": 736152, "internal_node_id": "0.0-98.0"}}, {"uniqueid": "MTK0712:3PJUZCGDJ7N4UNES4YVCILRGOO598X", "current_trial": 135, "dateTime": 1512674883622, "trialdata": {"rt": -1, "stimulus": "<p id=\"stim\">RATTLE</p>", "key_press": -1, "type": "PRES_VIS", "word": "rattle", "wordID": 1169, "conditions": [12, 800, "v", 12000], "trial": 3, "serialpos": 6, "trial_type": "single-stim", "trial_index": 135, "time_elapsed": 738025, "internal_node_id": "0.0-99.0"}}, {"uniqueid": "MTK0712:3PJUZCGDJ7N4UNES4YVCILRGOO598X", "current_trial": 136, "dateTime": 1512674885262, "trialdata": {"rt": -1, "stimulus": "<p id=\"stim\">GAZELLE</p>", "key_press": -1, "type": "PRES_VIS", "word": "gazelle", "wordID": 627, "conditions": [12, 800, "v", 12000], "trial": 3, "serialpos": 7, "trial_type": "single-stim", "trial_index": 136, "time_elapsed": 739665, "internal_node_id": "0.0-100.0"}}, {"uniqueid": "MTK0712:3PJUZCGDJ7N4UNES4YVCILRGOO598X", "current_trial": 137, "dateTime": 1512674886899, "trialdata": {"rt": -1, "stimulus": "<p id=\"stim\">PISTON</p>", "key_press": -1, "type": "PRES_VIS", "word": "piston", "wordID": 1075, "conditions": [12, 800, "v", 12000], "trial": 3, "serialpos": 8, "trial_type": "single-stim", "trial_index": 137, "time_elapsed": 741302, "internal_node_id": "0.0-101.0"}}, {"uniqueid": "MTK0712:3PJUZCGDJ7N4UNES4YVCILRGOO598X", "current_trial": 138, "dateTime": 1512674888865, "trialdata": {"rt": -1, "stimulus": "<p id=\"stim\">DRINK</p>", "key_press": -1, "type": "PRES_VIS", "word": "drink", "wordID": 497, "conditions": [12, 800, "v", 12000], "trial": 3, "serialpos": 9, "trial_type": "single-stim", "trial_index": 138, "time_elapsed": 743267, "internal_node_id": "0.0-102.0"}}, {"uniqueid": "MTK0712:3PJUZCGDJ7N4UNES4YVCILRGOO598X", "current_trial": 139, "dateTime": 1512674890684, "trialdata": {"rt": -1, "stimulus": "<p id=\"stim\">LUNCH</p>", "key_press": -1, "type": "PRES_VIS", "word": "lunch", "wordID": 848, "conditions": [12, 800, "v", 12000], "trial": 3, "serialpos": 10, "trial_type": "single-stim", "trial_index": 139, "time_elapsed": 745087, "internal_node_id": "0.0-103.0"}}, {"uniqueid": "MTK0712:3PJUZCGDJ7N4UNES4YVCILRGOO598X", "current_trial": 140, "dateTime": 1512674892488, "trialdata": {"rt": -1, "stimulus": "<p id=\"stim\">LUGGAGE</p>", "key_press": -1, "type": "PRES_VIS", "word": "luggage", "wordID": 846, "conditions": [12, 800, "v", 12000], "trial": 3, "serialpos": 11, "trial_type": "single-stim", "trial_index": 140, "time_elapsed": 746891, "internal_node_id": "0.0-104.0"}}, {"uniqueid": "MTK0712:3PJUZCGDJ7N4UNES4YVCILRGOO598X", "current_trial": 141, "dateTime": 1512674894923, "trialdata": {"rt": -1, "stimulus": "", "key_press": -1, "type": "PRE_RECALL_DELAY", "trial_type": "single-stim", "trial_index": 141, "time_elapsed": 749326, "internal_node_id": "0.0-105.0-0.0"}}, {"uniqueid": "MTK0712:3PJUZCGDJ7N4UNES4YVCILRGOO598X", "current_trial": 142, "dateTime": 1512674895425, "trialdata": {"rt": -1000, "stimulus": "/static/audio/400Hz.wav", "key_press": -1, "type": "PRE_RECALL_ALERT", "trial_type": "single-audio", "trial_index": 142, "time_elapsed": 749828, "internal_node_id": "0.0-106.0"}}, {"uniqueid": "MTK0712:3PJUZCGDJ7N4UNES4YVCILRGOO598X", "current_trial": 143, "dateTime": 1512674955431, "trialdata": {"rt": [7914, 9230, 10142, 11774, 14080, 16003, 18756, 20585, 25830, 27357, 28986, 31479, 33519, 34491, 35594, 39716, 41532, 43796, 44535, 46232, 50002, 52509, 57077, 58203], "recwords": ["luggage", "drink", "tea", "market", "skillet", "dinner", "service", "talking", "janitor", "thinkin", "wishing", "talking", "pants", "jacket", "doof", "thinker", "talker", "dog", "cat", "snake", "scapel", "thinker", "fishing", "rod"], "type": "FREE_RECALL", "conditions": [12, 800, "v", 12000], "trial": 3, "trial_type": "free-recall", "trial_index": 143, "time_elapsed": 809831, "internal_node_id": "0.0-107.0-0.0"}}, {"uniqueid": "MTK0712:3PJUZCGDJ7N4UNES4YVCILRGOO598X", "current_trial": 144, "dateTime": 1512674958466, "trialdata": {"rt": 1035, "key_press": 32, "type": "INSTRUCTIONS", "trial_type": "text", "trial_index": 144, "time_elapsed": 812869, "internal_node_id": "0.0-108.0"}}, {"uniqueid": "MTK0712:3PJUZCGDJ7N4UNES4YVCILRGOO598X", "current_trial": 145, "dateTime": 1512674972471, "trialdata": {"rt": [3943, 5686, 8046, 10027], "responses": ["16", "14", "19", "13"], "num1": [8, 8, 3, 4, 8], "num2": [5, 3, 8, 8, 9], "num3": [3, 3, 8, 1, 6], "type": "DISTRACTOR", "conditions": [24, 800, "v", 12000], "trial": 4, "trial_type": "math-distractor", "trial_index": 145, "time_elapsed": 826874, "internal_node_id": "0.0-109.0"}}, {"uniqueid": "MTK0712:3PJUZCGDJ7N4UNES4YVCILRGOO598X", "current_trial": 146, "dateTime": 1512674975473, "trialdata": {"rt": -1, "stimulus": "<p id=\"stim\">10</p>", "key_press": -1, "trial_type": "single-stim", "trial_index": 146, "time_elapsed": 829876, "internal_node_id": "0.0-110.0-0.0"}}, {"uniqueid": "MTK0712:3PJUZCGDJ7N4UNES4YVCILRGOO598X", "current_trial": 147, "dateTime": 1512674976474, "trialdata": {"rt": -1, "stimulus": "<p id=\"stim\">9</p>", "key_press": -1, "trial_type": "single-stim", "trial_index": 147, "time_elapsed": 830877, "internal_node_id": "0.0-110.0-1.0"}}, {"uniqueid": "MTK0712:3PJUZCGDJ7N4UNES4YVCILRGOO598X", "current_trial": 148, "dateTime": 1512674977476, "trialdata": {"rt": -1, "stimulus": "<p id=\"stim\">8</p>", "key_press": -1, "trial_type": "single-stim", "trial_index": 148, "time_elapsed": 831879, "internal_node_id": "0.0-110.0-2.0"}}, {"uniqueid": "MTK0712:3PJUZCGDJ7N4UNES4YVCILRGOO598X", "current_trial": 149, "dateTime": 1512674978478, "trialdata": {"rt": -1, "stimulus": "<p id=\"stim\">7</p>", "key_press": -1, "trial_type": "single-stim", "trial_index": 149, "time_elapsed": 832881, "internal_node_id": "0.0-110.0-3.0"}}, {"uniqueid": "MTK0712:3PJUZCGDJ7N4UNES4YVCILRGOO598X", "current_trial": 150, "dateTime": 1512674979478, "trialdata": {"rt": -1, "stimulus": "<p id=\"stim\">6</p>", "key_press": -1, "trial_type": "single-stim", "trial_index": 150, "time_elapsed": 833881, "internal_node_id": "0.0-110.0-4.0"}}, {"uniqueid": "MTK0712:3PJUZCGDJ7N4UNES4YVCILRGOO598X", "current_trial": 151, "dateTime": 1512674980480, "trialdata": {"rt": -1, "stimulus": "<p id=\"stim\">5</p>", "key_press": -1, "trial_type": "single-stim", "trial_index": 151, "time_elapsed": 834882, "internal_node_id": "0.0-110.0-5.0"}}, {"uniqueid": "MTK0712:3PJUZCGDJ7N4UNES4YVCILRGOO598X", "current_trial": 152, "dateTime": 1512674981481, "trialdata": {"rt": -1, "stimulus": "<p id=\"stim\">4</p>", "key_press": -1, "trial_type": "single-stim", "trial_index": 152, "time_elapsed": 835883, "internal_node_id": "0.0-110.0-6.0"}}, {"uniqueid": "MTK0712:3PJUZCGDJ7N4UNES4YVCILRGOO598X", "current_trial": 153, "dateTime": 1512674982482, "trialdata": {"rt": -1, "stimulus": "<p id=\"stim\">3</p>", "key_press": -1, "trial_type": "single-stim", "trial_index": 153, "time_elapsed": 836885, "internal_node_id": "0.0-110.0-7.0"}}, {"uniqueid": "MTK0712:3PJUZCGDJ7N4UNES4YVCILRGOO598X", "current_trial": 154, "dateTime": 1512674983483, "trialdata": {"rt": -1, "stimulus": "<p id=\"stim\">2</p>", "key_press": -1, "trial_type": "single-stim", "trial_index": 154, "time_elapsed": 837886, "internal_node_id": "0.0-110.0-8.0"}}, {"uniqueid": "MTK0712:3PJUZCGDJ7N4UNES4YVCILRGOO598X", "current_trial": 155, "dateTime": 1512674984484, "trialdata": {"rt": -1, "stimulus": "<p id=\"stim\">1</p>", "key_press": -1, "trial_type": "single-stim", "trial_index": 155, "time_elapsed": 838887, "internal_node_id": "0.0-110.0-9.0"}}, {"uniqueid": "MTK0712:3PJUZCGDJ7N4UNES4YVCILRGOO598X", "current_trial": 156, "dateTime": 1512674985986, "trialdata": {"rt": -1, "stimulus": "<p id=\"stim\">+</p>", "key_press": -1, "type": "FIXATION", "trial_type": "single-stim", "trial_index": 156, "time_elapsed": 840389, "internal_node_id": "0.0-111.0-0.0"}}, {"uniqueid": "MTK0712:3PJUZCGDJ7N4UNES4YVCILRGOO598X", "current_trial": 157, "dateTime": 1512674986786, "trialdata": {"rt": -1, "stimulus": "<p id=\"stim\">COSTUME</p>", "key_press": -1, "type": "PRES_VIS", "word": "costume", "wordID": 382, "conditions": [24, 800, "v", 12000], "trial": 4, "serialpos": 0, "trial_type": "single-stim", "trial_index": 157, "time_elapsed": 841189, "internal_node_id": "0.0-112.0"}}, {"uniqueid": "MTK0712:3PJUZCGDJ7N4UNES4YVCILRGOO598X", "current_trial": 158, "dateTime": 1512674988635, "trialdata": {"rt": -1, "stimulus": "<p id=\"stim\">WARDROBE</p>", "key_press": -1, "type": "PRES_VIS", "word": "wardrobe", "wordID": 1586, "conditions": [24, 800, "v", 12000], "trial": 4, "serialpos": 1, "trial_type": "single-stim", "trial_index": 158, "time_elapsed": 843038, "internal_node_id": "0.0-113.0"}}, {"uniqueid": "MTK0712:3PJUZCGDJ7N4UNES4YVCILRGOO598X", "current_trial": 159, "dateTime": 1512674990611, "trialdata": {"rt": -1, "stimulus": "<p id=\"stim\">ROCKET</p>", "key_press": -1, "type": "PRES_VIS", "word": "rocket", "wordID": 1201, "conditions": [24, 800, "v", 12000], "trial": 4, "serialpos": 2, "trial_type": "single-stim", "trial_index": 159, "time_elapsed": 845014, "internal_node_id": "0.0-114.0"}}, {"uniqueid": "MTK0712:3PJUZCGDJ7N4UNES4YVCILRGOO598X", "current_trial": 160, "dateTime": 1512674992579, "trialdata": {"rt": -1, "stimulus": "<p id=\"stim\">CRUTCH</p>", "key_press": -1, "type": "PRES_VIS", "word": "crutch", "wordID": 416, "conditions": [24, 800, "v", 12000], "trial": 4, "serialpos": 3, "trial_type": "single-stim", "trial_index": 160, "time_elapsed": 846982, "internal_node_id": "0.0-115.0"}}, {"uniqueid": "MTK0712:3PJUZCGDJ7N4UNES4YVCILRGOO598X", "current_trial": 161, "dateTime": 1512674994478, "trialdata": {"rt": -1, "stimulus": "<p id=\"stim\">TWEEZERS</p>", "key_press": -1, "type": "PRES_VIS", "word": "tweezers", "wordID": 1525, "conditions": [24, 800, "v", 12000], "trial": 4, "serialpos": 4, "trial_type": "single-stim", "trial_index": 161, "time_elapsed": 848881, "internal_node_id": "0.0-116.0"}}, {"uniqueid": "MTK0712:3PJUZCGDJ7N4UNES4YVCILRGOO598X", "current_trial": 162, "dateTime": 1512674996104, "trialdata": {"rt": -1, "stimulus": "<p id=\"stim\">BANJO</p>", "key_press": -1, "type": "PRES_VIS", "word": "banjo", "wordID": 81, "conditions": [24, 800, "v", 12000], "trial": 4, "serialpos": 5, "trial_type": "single-stim", "trial_index": 162, "time_elapsed": 850507, "internal_node_id": "0.0-117.0"}}, {"uniqueid": "MTK0712:3PJUZCGDJ7N4UNES4YVCILRGOO598X", "current_trial": 163, "dateTime": 1512674998009, "trialdata": {"rt": -1, "stimulus": "<p id=\"stim\">TUBA</p>", "key_press": -1, "type": "PRES_VIS", "word": "tuba", "wordID": 1514, "conditions": [24, 800, "v", 12000], "trial": 4, "serialpos": 6, "trial_type": "single-stim", "trial_index": 163, "time_elapsed": 852411, "internal_node_id": "0.0-118.0"}}, {"uniqueid": "MTK0712:3PJUZCGDJ7N4UNES4YVCILRGOO598X", "current_trial": 164, "dateTime": 1512674999737, "trialdata": {"rt": -1, "stimulus": "<p id=\"stim\">BULLET</p>", "key_press": -1, "type": "PRES_VIS", "word": "bullet", "wordID": 193, "conditions": [24, 800, "v", 12000], "trial": 4, "serialpos": 7, "trial_type": "single-stim", "trial_index": 164, "time_elapsed": 854139, "internal_node_id": "0.0-119.0"}}, {"uniqueid": "MTK0712:3PJUZCGDJ7N4UNES4YVCILRGOO598X", "current_trial": 165, "dateTime": 1512675001403, "trialdata": {"rt": -1, "stimulus": "<p id=\"stim\">STREAM</p>", "key_press": -1, "type": "PRES_VIS", "word": "stream", "wordID": 1391, "conditions": [24, 800, "v", 12000], "trial": 4, "serialpos": 8, "trial_type": "single-stim", "trial_index": 165, "time_elapsed": 855806, "internal_node_id": "0.0-120.0"}}, {"uniqueid": "MTK0712:3PJUZCGDJ7N4UNES4YVCILRGOO598X", "current_trial": 166, "dateTime": 1512675003148, "trialdata": {"rt": -1, "stimulus": "<p id=\"stim\">TUTU</p>", "key_press": -1, "type": "PRES_VIS", "word": "tutu", "wordID": 1523, "conditions": [24, 800, "v", 12000], "trial": 4, "serialpos": 9, "trial_type": "single-stim", "trial_index": 166, "time_elapsed": 857551, "internal_node_id": "0.0-121.0"}}, {"uniqueid": "MTK0712:3PJUZCGDJ7N4UNES4YVCILRGOO598X", "current_trial": 167, "dateTime": 1512675005134, "trialdata": {"rt": -1, "stimulus": "<p id=\"stim\">SPONGE</p>", "key_press": -1, "type": "PRES_VIS", "word": "sponge", "wordID": 1354, "conditions": [24, 800, "v", 12000], "trial": 4, "serialpos": 10, "trial_type": "single-stim", "trial_index": 167, "time_elapsed": 859537, "internal_node_id": "0.0-122.0"}}, {"uniqueid": "MTK0712:3PJUZCGDJ7N4UNES4YVCILRGOO598X", "current_trial": 168, "dateTime": 1512675006764, "trialdata": {"rt": -1, "stimulus": "<p id=\"stim\">CANAL</p>", "key_press": -1, "type": "PRES_VIS", "word": "canal", "wordID": 225, "conditions": [24, 800, "v", 12000], "trial": 4, "serialpos": 11, "trial_type": "single-stim", "trial_index": 168, "time_elapsed": 861166, "internal_node_id": "0.0-123.0"}}, {"uniqueid": "MTK0712:3PJUZCGDJ7N4UNES4YVCILRGOO598X", "current_trial": 169, "dateTime": 1512675008480, "trialdata": {"rt": -1, "stimulus": "<p id=\"stim\">GIFT</p>", "key_press": -1, "type": "PRES_VIS", "word": "gift", "wordID": 634, "conditions": [24, 800, "v", 12000], "trial": 4, "serialpos": 12, "trial_type": "single-stim", "trial_index": 169, "time_elapsed": 862882, "internal_node_id": "0.0-124.0"}}, {"uniqueid": "MTK0712:3PJUZCGDJ7N4UNES4YVCILRGOO598X", "current_trial": 170, "dateTime": 1512675010402, "trialdata": {"rt": -1, "stimulus": "<p id=\"stim\">LACE</p>", "key_press": -1, "type": "PRES_VIS", "word": "lace", "wordID": 791, "conditions": [24, 800, "v", 12000], "trial": 4, "serialpos": 13, "trial_type": "single-stim", "trial_index": 170, "time_elapsed": 864804, "internal_node_id": "0.0-125.0"}}, {"uniqueid": "MTK0712:3PJUZCGDJ7N4UNES4YVCILRGOO598X", "current_trial": 171, "dateTime": 1512675012044, "trialdata": {"rt": -1, "stimulus": "<p id=\"stim\">SEAGULL</p>", "key_press": -1, "type": "PRES_VIS", "word": "seagull", "wordID": 1260, "conditions": [24, 800, "v", 12000], "trial": 4, "serialpos": 14, "trial_type": "single-stim", "trial_index": 171, "time_elapsed": 866447, "internal_node_id": "0.0-126.0"}}, {"uniqueid": "MTK0712:3PJUZCGDJ7N4UNES4YVCILRGOO598X", "current_trial": 172, "dateTime": 1512675014002, "trialdata": {"rt": -1, "stimulus": "<p id=\"stim\">HIKER</p>", "key_press": -1, "type": "PRES_VIS", "word": "hiker", "wordID": 707, "conditions": [24, 800, "v", 12000], "trial": 4, "serialpos": 15, "trial_type": "single-stim", "trial_index": 172, "time_elapsed": 868405, "internal_node_id": "0.0-127.0"}}, {"uniqueid": "MTK0712:3PJUZCGDJ7N4UNES4YVCILRGOO598X", "current_trial": 173, "dateTime": 1512675015886, "trialdata": {"rt": -1, "stimulus": "<p id=\"stim\">HUSBAND</p>", "key_press": -1, "type": "PRES_VIS", "word": "husband", "wordID": 727, "conditions": [24, 800, "v", 12000], "trial": 4, "serialpos": 16, "trial_type": "single-stim", "trial_index": 173, "time_elapsed": 870288, "internal_node_id": "0.0-128.0"}}, {"uniqueid": "MTK0712:3PJUZCGDJ7N4UNES4YVCILRGOO598X", "current_trial": 174, "dateTime": 1512675017534, "trialdata": {"rt": -1, "stimulus": "<p id=\"stim\">BROTHER</p>", "key_press": -1, "type": "PRES_VIS", "word": "brother", "wordID": 178, "conditions": [24, 800, "v", 12000], "trial": 4, "serialpos": 17, "trial_type": "single-stim", "trial_index": 174, "time_elapsed": 871937, "internal_node_id": "0.0-129.0"}}, {"uniqueid": "MTK0712:3PJUZCGDJ7N4UNES4YVCILRGOO598X", "current_trial": 175, "dateTime": 1512675019224, "trialdata": {"rt": -1, "stimulus": "<p id=\"stim\">PATROL</p>", "key_press": -1, "type": "PRES_VIS", "word": "patrol", "wordID": 1026, "conditions": [24, 800, "v", 12000], "trial": 4, "serialpos": 18, "trial_type": "single-stim", "trial_index": 175, "time_elapsed": 873627, "internal_node_id": "0.0-130.0"}}, {"uniqueid": "MTK0712:3PJUZCGDJ7N4UNES4YVCILRGOO598X", "current_trial": 176, "dateTime": 1512675021126, "trialdata": {"rt": -1, "stimulus": "<p id=\"stim\">NURSE</p>", "key_press": -1, "type": "PRES_VIS", "word": "nurse", "wordID": 962, "conditions": [24, 800, "v", 12000], "trial": 4, "serialpos": 19, "trial_type": "single-stim", "trial_index": 176, "time_elapsed": 875529, "internal_node_id": "0.0-131.0"}}, {"uniqueid": "MTK0712:3PJUZCGDJ7N4UNES4YVCILRGOO598X", "current_trial": 177, "dateTime": 1512675023097, "trialdata": {"rt": -1, "stimulus": "<p id=\"stim\">WORKER</p>", "key_press": -1, "type": "PRES_VIS", "word": "worker", "wordID": 1620, "conditions": [24, 800, "v", 12000], "trial": 4, "serialpos": 20, "trial_type": "single-stim", "trial_index": 177, "time_elapsed": 877500, "internal_node_id": "0.0-132.0"}}, {"uniqueid": "MTK0712:3PJUZCGDJ7N4UNES4YVCILRGOO598X", "current_trial": 178, "dateTime": 1512675024862, "trialdata": {"rt": -1, "stimulus": "<p id=\"stim\">SUSPECT</p>", "key_press": -1, "type": "PRES_VIS", "word": "suspect", "wordID": 1414, "conditions": [24, 800, "v", 12000], "trial": 4, "serialpos": 21, "trial_type": "single-stim", "trial_index": 178, "time_elapsed": 879265, "internal_node_id": "0.0-133.0"}}, {"uniqueid": "MTK0712:3PJUZCGDJ7N4UNES4YVCILRGOO598X", "current_trial": 179, "dateTime": 1512675026815, "trialdata": {"rt": -1, "stimulus": "<p id=\"stim\">AWARD</p>", "key_press": -1, "type": "PRES_VIS", "word": "award", "wordID": 62, "conditions": [24, 800, "v", 12000], "trial": 4, "serialpos": 22, "trial_type": "single-stim", "trial_index": 179, "time_elapsed": 881218, "internal_node_id": "0.0-134.0"}}, {"uniqueid": "MTK0712:3PJUZCGDJ7N4UNES4YVCILRGOO598X", "current_trial": 180, "dateTime": 1512675028781, "trialdata": {"rt": -1, "stimulus": "<p id=\"stim\">POLICE</p>", "key_press": -1, "type": "PRES_VIS", "word": "police", "wordID": 1097, "conditions": [24, 800, "v", 12000], "trial": 4, "serialpos": 23, "trial_type": "single-stim", "trial_index": 180, "time_elapsed": 883184, "internal_node_id": "0.0-135.0"}}, {"uniqueid": "MTK0712:3PJUZCGDJ7N4UNES4YVCILRGOO598X", "current_trial": 181, "dateTime": 1512675031063, "trialdata": {"rt": -1, "stimulus": "", "key_press": -1, "type": "PRE_RECALL_DELAY", "trial_type": "single-stim", "trial_index": 181, "time_elapsed": 885466, "internal_node_id": "0.0-136.0-0.0"}}, {"uniqueid": "MTK0712:3PJUZCGDJ7N4UNES4YVCILRGOO598X", "current_trial": 182, "dateTime": 1512675031564, "trialdata": {"rt": -1000, "stimulus": "/static/audio/400Hz.wav", "key_press": -1, "type": "PRE_RECALL_ALERT", "trial_type": "single-audio", "trial_index": 182, "time_elapsed": 885967, "internal_node_id": "0.0-137.0"}}, {"uniqueid": "MTK0712:3PJUZCGDJ7N4UNES4YVCILRGOO598X", "current_trial": 183, "dateTime": 1512675091571, "trialdata": {"rt": [2019, 7563, 9944, 13204, 14699, 16429, 21093, 22153, 22728, 24322, 31293, 33392, 36013, 38410, 39366, 40507, 41792, 43462, 45665, 47247, 48418, 49634, 51288, 52355, 55626, 57119, 59748], "recwords": ["police", "dolphin", "wardrobe", "talk", "cat", "skillet", "dolphin", "dog", "cat", "snake", "garden", "janitor", "police", "captain", "leg", "pants", "jacket", "hat", "plate", "dinner", "lunch", "chef", "brother", "mother", "couch", "desk", "computer"], "type": "FREE_RECALL", "conditions": [24, 800, "v", 12000], "trial": 4, "trial_type": "free-recall", "trial_index": 183, "time_elapsed": 945970, "internal_node_id": "0.0-138.0-0.0"}}, {"uniqueid": "MTK0712:3PJUZCGDJ7N4UNES4YVCILRGOO598X", "current_trial": 184, "dateTime": 1512675094319, "trialdata": {"rt": 748, "key_press": 32, "type": "INSTRUCTIONS", "trial_type": "text", "trial_index": 184, "time_elapsed": 948722, "internal_node_id": "0.0-139.0"}}, {"uniqueid": "MTK0712:3PJUZCGDJ7N4UNES4YVCILRGOO598X", "current_trial": 185, "dateTime": 1512675120324, "trialdata": {"rt": [2956, 4807, 7163, 9623, 11536, 13412, 15379, 17444, 19803, 21452], "responses": ["14", "14", "10", "17", "17", "17", "12", "18", "15", "17"], "num1": [6, 3, 5, 9, 2, 5, 2, 2, 5, 8, 6], "num2": [2, 9, 2, 5, 6, 7, 9, 8, 7, 4, 6], "num3": [6, 2, 3, 3, 9, 5, 1, 8, 3, 5, 8], "type": "DISTRACTOR", "conditions": [24, 1600, "v", 24000], "trial": 5, "trial_type": "math-distractor", "trial_index": 185, "time_elapsed": 974727, "internal_node_id": "0.0-140.0"}}, {"uniqueid": "MTK0712:3PJUZCGDJ7N4UNES4YVCILRGOO598X", "current_trial": 186, "dateTime": 1512675123327, "trialdata": {"rt": -1, "stimulus": "<p id=\"stim\">10</p>", "key_press": -1, "trial_type": "single-stim", "trial_index": 186, "time_elapsed": 977730, "internal_node_id": "0.0-141.0-0.0"}}, {"uniqueid": "MTK0712:3PJUZCGDJ7N4UNES4YVCILRGOO598X", "current_trial": 187, "dateTime": 1512675124329, "trialdata": {"rt": -1, "stimulus": "<p id=\"stim\">9</p>", "key_press": -1, "trial_type": "single-stim", "trial_index": 187, "time_elapsed": 978732, "internal_node_id": "0.0-141.0-1.0"}}, {"uniqueid": "MTK0712:3PJUZCGDJ7N4UNES4YVCILRGOO598X", "current_trial": 188, "dateTime": 1512675125330, "trialdata": {"rt": -1, "stimulus": "<p id=\"stim\">8</p>", "key_press": -1, "trial_type": "single-stim", "trial_index": 188, "time_elapsed": 979733, "internal_node_id": "0.0-141.0-2.0"}}, {"uniqueid": "MTK0712:3PJUZCGDJ7N4UNES4YVCILRGOO598X", "current_trial": 189, "dateTime": 1512675126331, "trialdata": {"rt": -1, "stimulus": "<p id=\"stim\">7</p>", "key_press": -1, "trial_type": "single-stim", "trial_index": 189, "time_elapsed": 980734, "internal_node_id": "0.0-141.0-3.0"}}, {"uniqueid": "MTK0712:3PJUZCGDJ7N4UNES4YVCILRGOO598X", "current_trial": 190, "dateTime": 1512675127332, "trialdata": {"rt": -1, "stimulus": "<p id=\"stim\">6</p>", "key_press": -1, "trial_type": "single-stim", "trial_index": 190, "time_elapsed": 981735, "internal_node_id": "0.0-141.0-4.0"}}, {"uniqueid": "MTK0712:3PJUZCGDJ7N4UNES4YVCILRGOO598X", "current_trial": 191, "dateTime": 1512675128333, "trialdata": {"rt": -1, "stimulus": "<p id=\"stim\">5</p>", "key_press": -1, "trial_type": "single-stim", "trial_index": 191, "time_elapsed": 982736, "internal_node_id": "0.0-141.0-5.0"}}, {"uniqueid": "MTK0712:3PJUZCGDJ7N4UNES4YVCILRGOO598X", "current_trial": 192, "dateTime": 1512675129335, "trialdata": {"rt": -1, "stimulus": "<p id=\"stim\">4</p>", "key_press": -1, "trial_type": "single-stim", "trial_index": 192, "time_elapsed": 983737, "internal_node_id": "0.0-141.0-6.0"}}, {"uniqueid": "MTK0712:3PJUZCGDJ7N4UNES4YVCILRGOO598X", "current_trial": 193, "dateTime": 1512675130335, "trialdata": {"rt": -1, "stimulus": "<p id=\"stim\">3</p>", "key_press": -1, "trial_type": "single-stim", "trial_index": 193, "time_elapsed": 984738, "internal_node_id": "0.0-141.0-7.0"}}, {"uniqueid": "MTK0712:3PJUZCGDJ7N4UNES4YVCILRGOO598X", "current_trial": 194, "dateTime": 1512675131336, "trialdata": {"rt": -1, "stimulus": "<p id=\"stim\">2</p>", "key_press": -1, "trial_type": "single-stim", "trial_index": 194, "time_elapsed": 985739, "internal_node_id": "0.0-141.0-8.0"}}, {"uniqueid": "MTK0712:3PJUZCGDJ7N4UNES4YVCILRGOO598X", "current_trial": 195, "dateTime": 1512675132337, "trialdata": {"rt": -1, "stimulus": "<p id=\"stim\">1</p>", "key_press": -1, "trial_type": "single-stim", "trial_index": 195, "time_elapsed": 986740, "internal_node_id": "0.0-141.0-9.0"}}, {"uniqueid": "MTK0712:3PJUZCGDJ7N4UNES4YVCILRGOO598X", "current_trial": 196, "dateTime": 1512675133839, "trialdata": {"rt": -1, "stimulus": "<p id=\"stim\">+</p>", "key_press": -1, "type": "FIXATION", "trial_type": "single-stim", "trial_index": 196, "time_elapsed": 988241, "internal_node_id": "0.0-142.0-0.0"}}, {"uniqueid": "MTK0712:3PJUZCGDJ7N4UNES4YVCILRGOO598X", "current_trial": 197, "dateTime": 1512675135441, "trialdata": {"rt": -1, "stimulus": "<p id=\"stim\">BLACKBOARD</p>", "key_press": -1, "type": "PRES_VIS", "word": "blackboard", "wordID": 132, "conditions": [24, 1600, "v", 24000], "trial": 5, "serialpos": 0, "trial_type": "single-stim", "trial_index": 197, "time_elapsed": 989843, "internal_node_id": "0.0-143.0"}}, {"uniqueid": "MTK0712:3PJUZCGDJ7N4UNES4YVCILRGOO598X", "current_trial": 198, "dateTime": 1512675137989, "trialdata": {"rt": -1, "stimulus": "<p id=\"stim\">PARSLEY</p>", "key_press": -1, "type": "PRES_VIS", "word": "parsley", "wordID": 1015, "conditions": [24, 1600, "v", 24000], "trial": 5, "serialpos": 1, "trial_type": "single-stim", "trial_index": 198, "time_elapsed": 992391, "internal_node_id": "0.0-144.0"}}, {"uniqueid": "MTK0712:3PJUZCGDJ7N4UNES4YVCILRGOO598X", "current_trial": 199, "dateTime": 1512675140758, "trialdata": {"rt": -1, "stimulus": "<p id=\"stim\">LABEL</p>", "key_press": -1, "type": "PRES_VIS", "word": "label", "wordID": 789, "conditions": [24, 1600, "v", 24000], "trial": 5, "serialpos": 2, "trial_type": "single-stim", "trial_index": 199, "time_elapsed": 995160, "internal_node_id": "0.0-145.0"}}, {"uniqueid": "MTK0712:3PJUZCGDJ7N4UNES4YVCILRGOO598X", "current_trial": 200, "dateTime": 1512675143324, "trialdata": {"rt": -1, "stimulus": "<p id=\"stim\">PRIMATE</p>", "key_press": -1, "type": "PRES_VIS", "word": "primate", "wordID": 1122, "conditions": [24, 1600, "v", 24000], "trial": 5, "serialpos": 3, "trial_type": "single-stim", "trial_index": 200, "time_elapsed": 997727, "internal_node_id": "0.0-146.0"}}, {"uniqueid": "MTK0712:3PJUZCGDJ7N4UNES4YVCILRGOO598X", "current_trial": 201, "dateTime": 1512675145989, "trialdata": {"rt": -1, "stimulus": "<p id=\"stim\">PIGEON</p>", "key_press": -1, "type": "PRES_VIS", "word": "pigeon", "wordID": 1064, "conditions": [24, 1600, "v", 24000], "trial": 5, "serialpos": 4, "trial_type": "single-stim", "trial_index": 201, "time_elapsed": 1000392, "internal_node_id": "0.0-147.0"}}, {"uniqueid": "MTK0712:3PJUZCGDJ7N4UNES4YVCILRGOO598X", "current_trial": 202, "dateTime": 1512675148642, "trialdata": {"rt": -1, "stimulus": "<p id=\"stim\">RADISH</p>", "key_press": -1, "type": "PRES_VIS", "word": "radish", "wordID": 1157, "conditions": [24, 1600, "v", 24000], "trial": 5, "serialpos": 5, "trial_type": "single-stim", "trial_index": 202, "time_elapsed": 1003045, "internal_node_id": "0.0-148.0"}}, {"uniqueid": "MTK0712:3PJUZCGDJ7N4UNES4YVCILRGOO598X", "current_trial": 203, "dateTime": 1512675151394, "trialdata": {"rt": -1, "stimulus": "<p id=\"stim\">TURNIP</p>", "key_press": -1, "type": "PRES_VIS", "word": "turnip", "wordID": 1520, "conditions": [24, 1600, "v", 24000], "trial": 5, "serialpos": 6, "trial_type": "single-stim", "trial_index": 203, "time_elapsed": 1005796, "internal_node_id": "0.0-149.0"}}, {"uniqueid": "MTK0712:3PJUZCGDJ7N4UNES4YVCILRGOO598X", "current_trial": 204, "dateTime": 1512675154027, "trialdata": {"rt": -1, "stimulus": "<p id=\"stim\">CABBAGE</p>", "key_press": -1, "type": "PRES_VIS", "word": "cabbage", "wordID": 209, "conditions": [24, 1600, "v", 24000], "trial": 5, "serialpos": 7, "trial_type": "single-stim", "trial_index": 204, "time_elapsed": 1008430, "internal_node_id": "0.0-150.0"}}, {"uniqueid": "MTK0712:3PJUZCGDJ7N4UNES4YVCILRGOO598X", "current_trial": 205, "dateTime": 1512675156497, "trialdata": {"rt": -1, "stimulus": "<p id=\"stim\">CHURCH</p>", "key_press": -1, "type": "PRES_VIS", "word": "church", "wordID": 306, "conditions": [24, 1600, "v", 24000], "trial": 5, "serialpos": 8, "trial_type": "single-stim", "trial_index": 205, "time_elapsed": 1010900, "internal_node_id": "0.0-151.0"}}, {"uniqueid": "MTK0712:3PJUZCGDJ7N4UNES4YVCILRGOO598X", "current_trial": 206, "dateTime": 1512675158969, "trialdata": {"rt": -1, "stimulus": "<p id=\"stim\">FLASHLIGHT</p>", "key_press": -1, "type": "PRES_VIS", "word": "flashlight", "wordID": 574, "conditions": [24, 1600, "v", 24000], "trial": 5, "serialpos": 9, "trial_type": "single-stim", "trial_index": 206, "time_elapsed": 1013371, "internal_node_id": "0.0-152.0"}}, {"uniqueid": "MTK0712:3PJUZCGDJ7N4UNES4YVCILRGOO598X", "current_trial": 207, "dateTime": 1512675161517, "trialdata": {"rt": -1, "stimulus": "<p id=\"stim\">COMPASS</p>", "key_press": -1, "type": "PRES_VIS", "word": "compass", "wordID": 357, "conditions": [24, 1600, "v", 24000], "trial": 5, "serialpos": 10, "trial_type": "single-stim", "trial_index": 207, "time_elapsed": 1015920, "internal_node_id": "0.0-153.0"}}, {"uniqueid": "MTK0712:3PJUZCGDJ7N4UNES4YVCILRGOO598X", "current_trial": 208, "dateTime": 1512675164296, "trialdata": {"rt": -1, "stimulus": "<p id=\"stim\">CHAPEL</p>", "key_press": -1, "type": "PRES_VIS", "word": "chapel", "wordID": 279, "conditions": [24, 1600, "v", 24000], "trial": 5, "serialpos": 11, "trial_type": "single-stim", "trial_index": 208, "time_elapsed": 1018699, "internal_node_id": "0.0-154.0"}}, {"uniqueid": "MTK0712:3PJUZCGDJ7N4UNES4YVCILRGOO598X", "current_trial": 209, "dateTime": 1512675167120, "trialdata": {"rt": -1, "stimulus": "<p id=\"stim\">NOTEBOOK</p>", "key_press": -1, "type": "PRES_VIS", "word": "notebook", "wordID": 958, "conditions": [24, 1600, "v", 24000], "trial": 5, "serialpos": 12, "trial_type": "single-stim", "trial_index": 209, "time_elapsed": 1021523, "internal_node_id": "0.0-155.0"}}, {"uniqueid": "MTK0712:3PJUZCGDJ7N4UNES4YVCILRGOO598X", "current_trial": 210, "dateTime": 1512675169814, "trialdata": {"rt": -1, "stimulus": "<p id=\"stim\">CUPBOARD</p>", "key_press": -1, "type": "PRES_VIS", "word": "cupboard", "wordID": 424, "conditions": [24, 1600, "v", 24000], "trial": 5, "serialpos": 13, "trial_type": "single-stim", "trial_index": 210, "time_elapsed": 1024217, "internal_node_id": "0.0-156.0"}}, {"uniqueid": "MTK0712:3PJUZCGDJ7N4UNES4YVCILRGOO598X", "current_trial": 211, "dateTime": 1512675172266, "trialdata": {"rt": -1, "stimulus": "<p id=\"stim\">JUNGLE</p>", "key_press": -1, "type": "PRES_VIS", "word": "jungle", "wordID": 763, "conditions": [24, 1600, "v", 24000], "trial": 5, "serialpos": 14, "trial_type": "single-stim", "trial_index": 211, "time_elapsed": 1026669, "internal_node_id": "0.0-157.0"}}, {"uniqueid": "MTK0712:3PJUZCGDJ7N4UNES4YVCILRGOO598X", "current_trial": 212, "dateTime": 1512675174846, "trialdata": {"rt": -1, "stimulus": "<p id=\"stim\">JUDGE</p>", "key_press": -1, "type": "PRES_VIS", "word": "judge", "wordID": 760, "conditions": [24, 1600, "v", 24000], "trial": 5, "serialpos": 15, "trial_type": "single-stim", "trial_index": 212, "time_elapsed": 1029249, "internal_node_id": "0.0-158.0"}}, {"uniqueid": "MTK0712:3PJUZCGDJ7N4UNES4YVCILRGOO598X", "current_trial": 213, "dateTime": 1512675177640, "trialdata": {"rt": -1, "stimulus": "<p id=\"stim\">JURY</p>", "key_press": -1, "type": "PRES_VIS", "word": "jury", "wordID": 765, "conditions": [24, 1600, "v", 24000], "trial": 5, "serialpos": 16, "trial_type": "single-stim", "trial_index": 213, "time_elapsed": 1032043, "internal_node_id": "0.0-159.0"}}, {"uniqueid": "MTK0712:3PJUZCGDJ7N4UNES4YVCILRGOO598X", "current_trial": 214, "dateTime": 1512675180369, "trialdata": {"rt": -1, "stimulus": "<p id=\"stim\">TRUCK</p>", "key_press": -1, "type": "PRES_VIS", "word": "truck", "wordID": 1511, "conditions": [24, 1600, "v", 24000], "trial": 5, "serialpos": 17, "trial_type": "single-stim", "trial_index": 214, "time_elapsed": 1034772, "internal_node_id": "0.0-160.0"}}, {"uniqueid": "MTK0712:3PJUZCGDJ7N4UNES4YVCILRGOO598X", "current_trial": 215, "dateTime": 1512675183154, "trialdata": {"rt": -1, "stimulus": "<p id=\"stim\">PANTHER</p>", "key_press": -1, "type": "PRES_VIS", "word": "panther", "wordID": 1008, "conditions": [24, 1600, "v", 24000], "trial": 5, "serialpos": 18, "trial_type": "single-stim", "trial_index": 215, "time_elapsed": 1037557, "internal_node_id": "0.0-161.0"}}, {"uniqueid": "MTK0712:3PJUZCGDJ7N4UNES4YVCILRGOO598X", "current_trial": 216, "dateTime": 1512675185937, "trialdata": {"rt": -1, "stimulus": "<p id=\"stim\">TEMPLE</p>", "key_press": -1, "type": "PRES_VIS", "word": "temple", "wordID": 1447, "conditions": [24, 1600, "v", 24000], "trial": 5, "serialpos": 19, "trial_type": "single-stim", "trial_index": 216, "time_elapsed": 1040339, "internal_node_id": "0.0-162.0"}}, {"uniqueid": "MTK0712:3PJUZCGDJ7N4UNES4YVCILRGOO598X", "current_trial": 217, "dateTime": 1512675188536, "trialdata": {"rt": -1, "stimulus": "<p id=\"stim\">TRACTOR</p>", "key_press": -1, "type": "PRES_VIS", "word": "tractor", "wordID": 1492, "conditions": [24, 1600, "v", 24000], "trial": 5, "serialpos": 20, "trial_type": "single-stim", "trial_index": 217, "time_elapsed": 1042939, "internal_node_id": "0.0-163.0"}}, {"uniqueid": "MTK0712:3PJUZCGDJ7N4UNES4YVCILRGOO598X", "current_trial": 218, "dateTime": 1512675191239, "trialdata": {"rt": -1, "stimulus": "<p id=\"stim\">SHIRT</p>", "key_press": -1, "type": "PRES_VIS", "word": "shirt", "wordID": 1286, "conditions": [24, 1600, "v", 24000], "trial": 5, "serialpos": 21, "trial_type": "single-stim", "trial_index": 218, "time_elapsed": 1045642, "internal_node_id": "0.0-164.0"}}, {"uniqueid": "MTK0712:3PJUZCGDJ7N4UNES4YVCILRGOO598X", "current_trial": 219, "dateTime": 1512675193757, "trialdata": {"rt": -1, "stimulus": "<p id=\"stim\">RIFLE</p>", "key_press": -1, "type": "PRES_VIS", "word": "rifle", "wordID": 1191, "conditions": [24, 1600, "v", 24000], "trial": 5, "serialpos": 22, "trial_type": "single-stim", "trial_index": 219, "time_elapsed": 1048159, "internal_node_id": "0.0-165.0"}}, {"uniqueid": "MTK0712:3PJUZCGDJ7N4UNES4YVCILRGOO598X", "current_trial": 220, "dateTime": 1512675196207, "trialdata": {"rt": -1, "stimulus": "<p id=\"stim\">SCARF</p>", "key_press": -1, "type": "PRES_VIS", "word": "scarf", "wordID": 1245, "conditions": [24, 1600, "v", 24000], "trial": 5, "serialpos": 23, "trial_type": "single-stim", "trial_index": 220, "time_elapsed": 1050609, "internal_node_id": "0.0-166.0"}}, {"uniqueid": "MTK0712:3PJUZCGDJ7N4UNES4YVCILRGOO598X", "current_trial": 221, "dateTime": 1512675198682, "trialdata": {"rt": -1, "stimulus": "", "key_press": -1, "type": "PRE_RECALL_DELAY", "trial_type": "single-stim", "trial_index": 221, "time_elapsed": 1053085, "internal_node_id": "0.0-167.0-0.0"}}, {"uniqueid": "MTK0712:3PJUZCGDJ7N4UNES4YVCILRGOO598X", "current_trial": 222, "dateTime": 1512675199184, "trialdata": {"rt": -1000, "stimulus": "/static/audio/400Hz.wav", "key_press": -1, "type": "PRE_RECALL_ALERT", "trial_type": "single-audio", "trial_index": 222, "time_elapsed": 1053587, "internal_node_id": "0.0-168.0"}}, {"uniqueid": "MTK0712:3PJUZCGDJ7N4UNES4YVCILRGOO598X", "current_trial": 223, "dateTime": 1512675259196, "trialdata": {"rt": [3482, 4767, 5981, 8405, 9587, 12666, 14753, 15931, 20249, 21335, 22978, 27567, 34039, 36263, 37612, 38998, 39940, 41903, 44732, 46089, 48272, 52873, 53844, 56711, 58523], "recwords": ["truck", "driver", "police", "janitor", "sheep", "service", "talker", "thinker", "meat", "lunch", "couch", "misstatement", "wardrobe", "rocket", "skillet", "food", "dinner", "talker", "running", "siiting", "wisher", "teacher", "chef", "restaurant", "police"], "type": "FREE_RECALL", "conditions": [24, 1600, "v", 24000], "trial": 5, "trial_type": "free-recall", "trial_index": 223, "time_elapsed": 1113592, "internal_node_id": "0.0-169.0-0.0"}}, {"uniqueid": "MTK0712:3PJUZCGDJ7N4UNES4YVCILRGOO598X", "current_trial": 224, "dateTime": 1512675262573, "trialdata": {"rt": 1376, "key_press": 32, "type": "INSTRUCTIONS", "trial_type": "text", "trial_index": 224, "time_elapsed": 1116976, "internal_node_id": "0.0-170.0"}}, {"uniqueid": "MTK0712:3PJUZCGDJ7N4UNES4YVCILRGOO598X", "current_trial": 225, "dateTime": 1512675276580, "trialdata": {"rt": [3872, 7421, 9261, 10742], "responses": ["17", "12", "19", "13"], "num1": [5, 2, 8, 7, 6], "num2": [7, 6, 3, 3, 5], "num3": [5, 4, 8, 3, 2], "type": "DISTRACTOR", "conditions": [24, 1600, "a", 12000], "trial": 6, "trial_type": "math-distractor", "trial_index": 225, "time_elapsed": 1130983, "internal_node_id": "0.0-171.0"}}, {"uniqueid": "MTK0712:3PJUZCGDJ7N4UNES4YVCILRGOO598X", "current_trial": 226, "dateTime": 1512675279583, "trialdata": {"rt": -1, "stimulus": "<p id=\"stim\">10</p>", "key_press": -1, "trial_type": "single-stim", "trial_index": 226, "time_elapsed": 1133986, "internal_node_id": "0.0-172.0-0.0"}}, {"uniqueid": "MTK0712:3PJUZCGDJ7N4UNES4YVCILRGOO598X", "current_trial": 227, "dateTime": 1512675280585, "trialdata": {"rt": -1, "stimulus": "<p id=\"stim\">9</p>", "key_press": -1, "trial_type": "single-stim", "trial_index": 227, "time_elapsed": 1134987, "internal_node_id": "0.0-172.0-1.0"}}, {"uniqueid": "MTK0712:3PJUZCGDJ7N4UNES4YVCILRGOO598X", "current_trial": 228, "dateTime": 1512675281586, "trialdata": {"rt": -1, "stimulus": "<p id=\"stim\">8</p>", "key_press": -1, "trial_type": "single-stim", "trial_index": 228, "time_elapsed": 1135989, "internal_node_id": "0.0-172.0-2.0"}}, {"uniqueid": "MTK0712:3PJUZCGDJ7N4UNES4YVCILRGOO598X", "current_trial": 229, "dateTime": 1512675282588, "trialdata": {"rt": -1, "stimulus": "<p id=\"stim\">7</p>", "key_press": -1, "trial_type": "single-stim", "trial_index": 229, "time_elapsed": 1136991, "internal_node_id": "0.0-172.0-3.0"}}, {"uniqueid": "MTK0712:3PJUZCGDJ7N4UNES4YVCILRGOO598X", "current_trial": 230, "dateTime": 1512675283590, "trialdata": {"rt": -1, "stimulus": "<p id=\"stim\">6</p>", "key_press": -1, "trial_type": "single-stim", "trial_index": 230, "time_elapsed": 1137993, "internal_node_id": "0.0-172.0-4.0"}}, {"uniqueid": "MTK0712:3PJUZCGDJ7N4UNES4YVCILRGOO598X", "current_trial": 231, "dateTime": 1512675284592, "trialdata": {"rt": -1, "stimulus": "<p id=\"stim\">5</p>", "key_press": -1, "trial_type": "single-stim", "trial_index": 231, "time_elapsed": 1138994, "internal_node_id": "0.0-172.0-5.0"}}, {"uniqueid": "MTK0712:3PJUZCGDJ7N4UNES4YVCILRGOO598X", "current_trial": 232, "dateTime": 1512675285594, "trialdata": {"rt": -1, "stimulus": "<p id=\"stim\">4</p>", "key_press": -1, "trial_type": "single-stim", "trial_index": 232, "time_elapsed": 1139997, "internal_node_id": "0.0-172.0-6.0"}}, {"uniqueid": "MTK0712:3PJUZCGDJ7N4UNES4YVCILRGOO598X", "current_trial": 233, "dateTime": 1512675286595, "trialdata": {"rt": -1, "stimulus": "<p id=\"stim\">3</p>", "key_press": -1, "trial_type": "single-stim", "trial_index": 233, "time_elapsed": 1140998, "internal_node_id": "0.0-172.0-7.0"}}, {"uniqueid": "MTK0712:3PJUZCGDJ7N4UNES4YVCILRGOO598X", "current_trial": 234, "dateTime": 1512675287597, "trialdata": {"rt": -1, "stimulus": "<p id=\"stim\">2</p>", "key_press": -1, "trial_type": "single-stim", "trial_index": 234, "time_elapsed": 1141999, "internal_node_id": "0.0-172.0-8.0"}}, {"uniqueid": "MTK0712:3PJUZCGDJ7N4UNES4YVCILRGOO598X", "current_trial": 235, "dateTime": 1512675288598, "trialdata": {"rt": -1, "stimulus": "<p id=\"stim\">1</p>", "key_press": -1, "trial_type": "single-stim", "trial_index": 235, "time_elapsed": 1143000, "internal_node_id": "0.0-172.0-9.0"}}, {"uniqueid": "MTK0712:3PJUZCGDJ7N4UNES4YVCILRGOO598X", "current_trial": 236, "dateTime": 1512675290099, "trialdata": {"rt": -1, "stimulus": "<p id=\"stim\">+</p>", "key_press": -1, "type": "FIXATION", "trial_type": "single-stim", "trial_index": 236, "time_elapsed": 1144501, "internal_node_id": "0.0-173.0-0.0"}}, {"uniqueid": "MTK0712:3PJUZCGDJ7N4UNES4YVCILRGOO598X", "current_trial": 237, "dateTime": 1512675292889, "trialdata": {"rt": -1000, "stimulus": "/static/audio/wordpool/TURKEY.wav", "key_press": -1, "type": "PRES_AUD", "word": "turkey", "wordID": 1519, "conditions": [24, 1600, "a", 12000], "trial": 6, "serialpos": 0, "trial_type": "single-audio", "trial_index": 237, "time_elapsed": 1147292, "internal_node_id": "0.0-174.0"}}, {"uniqueid": "MTK0712:3PJUZCGDJ7N4UNES4YVCILRGOO598X", "current_trial": 238, "dateTime": 1512675295467, "trialdata": {"rt": -1000, "stimulus": "/static/audio/wordpool/MOTOR.wav", "key_press": -1, "type": "PRES_AUD", "word": "motor", "wordID": 921, "conditions": [24, 1600, "a", 12000], "trial": 6, "serialpos": 1, "trial_type": "single-audio", "trial_index": 238, "time_elapsed": 1149870, "internal_node_id": "0.0-175.0"}}, {"uniqueid": "MTK0712:3PJUZCGDJ7N4UNES4YVCILRGOO598X", "current_trial": 239, "dateTime": 1512675298190, "trialdata": {"rt": -1000, "stimulus": "/static/audio/wordpool/GARBAGE.wav", "key_press": -1, "type": "PRES_AUD", "word": "garbage", "wordID": 621, "conditions": [24, 1600, "a", 12000], "trial": 6, "serialpos": 2, "trial_type": "single-audio", "trial_index": 239, "time_elapsed": 1152587, "internal_node_id": "0.0-176.0"}}, {"uniqueid": "MTK0712:3PJUZCGDJ7N4UNES4YVCILRGOO598X", "current_trial": 240, "dateTime": 1512675300598, "trialdata": {"rt": -1000, "stimulus": "/static/audio/wordpool/MONEY.wav", "key_press": -1, "type": "PRES_AUD", "word": "money", "wordID": 907, "conditions": [24, 1600, "a", 12000], "trial": 6, "serialpos": 3, "trial_type": "single-audio", "trial_index": 240, "time_elapsed": 1155001, "internal_node_id": "0.0-177.0"}}, {"uniqueid": "MTK0712:3PJUZCGDJ7N4UNES4YVCILRGOO598X", "current_trial": 241, "dateTime": 1512675303175, "trialdata": {"rt": -1000, "stimulus": "/static/audio/wordpool/ZIPPER.wav", "key_press": -1, "type": "PRES_AUD", "word": "zipper", "wordID": 1635, "conditions": [24, 1600, "a", 12000], "trial": 6, "serialpos": 4, "trial_type": "single-audio", "trial_index": 241, "time_elapsed": 1157578, "internal_node_id": "0.0-178.0"}}, {"uniqueid": "MTK0712:3PJUZCGDJ7N4UNES4YVCILRGOO598X", "current_trial": 242, "dateTime": 1512675305817, "trialdata": {"rt": -1000, "stimulus": "/static/audio/wordpool/PEPPER.wav", "key_press": -1, "type": "PRES_AUD", "word": "pepper", "wordID": 1046, "conditions": [24, 1600, "a", 12000], "trial": 6, "serialpos": 5, "trial_type": "single-audio", "trial_index": 242, "time_elapsed": 1160220, "internal_node_id": "0.0-179.0"}}, {"uniqueid": "MTK0712:3PJUZCGDJ7N4UNES4YVCILRGOO598X", "current_trial": 243, "dateTime": 1512675308386, "trialdata": {"rt": -1000, "stimulus": "/static/audio/wordpool/SCOTCH.wav", "key_press": -1, "type": "PRES_AUD", "word": "scotch", "wordID": 1250, "conditions": [24, 1600, "a", 12000], "trial": 6, "serialpos": 6, "trial_type": "single-audio", "trial_index": 243, "time_elapsed": 1162788, "internal_node_id": "0.0-180.0"}}, {"uniqueid": "MTK0712:3PJUZCGDJ7N4UNES4YVCILRGOO598X", "current_trial": 244, "dateTime": 1512675310969, "trialdata": {"rt": -1000, "stimulus": "/static/audio/wordpool/MUFFIN.wav", "key_press": -1, "type": "PRES_AUD", "word": "muffin", "wordID": 928, "conditions": [24, 1600, "a", 12000], "trial": 6, "serialpos": 7, "trial_type": "single-audio", "trial_index": 244, "time_elapsed": 1165372, "internal_node_id": "0.0-181.0"}}, {"uniqueid": "MTK0712:3PJUZCGDJ7N4UNES4YVCILRGOO598X", "current_trial": 245, "dateTime": 1512675313757, "trialdata": {"rt": -1000, "stimulus": "/static/audio/wordpool/SPHINX.wav", "key_press": -1, "type": "PRES_AUD", "word": "sphinx", "wordID": 1348, "conditions": [24, 1600, "a", 12000], "trial": 6, "serialpos": 8, "trial_type": "single-audio", "trial_index": 245, "time_elapsed": 1168160, "internal_node_id": "0.0-182.0"}}, {"uniqueid": "MTK0712:3PJUZCGDJ7N4UNES4YVCILRGOO598X", "current_trial": 246, "dateTime": 1512675316196, "trialdata": {"rt": -1000, "stimulus": "/static/audio/wordpool/QUAIL.wav", "key_press": -1, "type": "PRES_AUD", "word": "quail", "wordID": 1146, "conditions": [24, 1600, "a", 12000], "trial": 6, "serialpos": 9, "trial_type": "single-audio", "trial_index": 246, "time_elapsed": 1170599, "internal_node_id": "0.0-183.0"}}, {"uniqueid": "MTK0712:3PJUZCGDJ7N4UNES4YVCILRGOO598X", "current_trial": 247, "dateTime": 1512675318944, "trialdata": {"rt": -1000, "stimulus": "/static/audio/wordpool/MARROW.wav", "key_press": -1, "type": "PRES_AUD", "word": "marrow", "wordID": 871, "conditions": [24, 1600, "a", 12000], "trial": 6, "serialpos": 10, "trial_type": "single-audio", "trial_index": 247, "time_elapsed": 1173346, "internal_node_id": "0.0-184.0"}}, {"uniqueid": "MTK0712:3PJUZCGDJ7N4UNES4YVCILRGOO598X", "current_trial": 248, "dateTime": 1512675321554, "trialdata": {"rt": -1000, "stimulus": "/static/audio/wordpool/KIDNEY.wav", "key_press": -1, "type": "PRES_AUD", "word": "kidney", "wordID": 775, "conditions": [24, 1600, "a", 12000], "trial": 6, "serialpos": 11, "trial_type": "single-audio", "trial_index": 248, "time_elapsed": 1175957, "internal_node_id": "0.0-185.0"}}, {"uniqueid": "MTK0712:3PJUZCGDJ7N4UNES4YVCILRGOO598X", "current_trial": 249, "dateTime": 1512675324345, "trialdata": {"rt": -1000, "stimulus": "/static/audio/wordpool/CANDY.wav", "key_press": -1, "type": "PRES_AUD", "word": "candy", "wordID": 229, "conditions": [24, 1600, "a", 12000], "trial": 6, "serialpos": 12, "trial_type": "single-audio", "trial_index": 249, "time_elapsed": 1178748, "internal_node_id": "0.0-186.0"}}, {"uniqueid": "MTK0712:3PJUZCGDJ7N4UNES4YVCILRGOO598X", "current_trial": 250, "dateTime": 1512675327044, "trialdata": {"rt": -1000, "stimulus": "/static/audio/wordpool/PACKAGE.wav", "key_press": -1, "type": "PRES_AUD", "word": "package", "wordID": 996, "conditions": [24, 1600, "a", 12000], "trial": 6, "serialpos": 13, "trial_type": "single-audio", "trial_index": 250, "time_elapsed": 1181447, "internal_node_id": "0.0-187.0"}}, {"uniqueid": "MTK0712:3PJUZCGDJ7N4UNES4YVCILRGOO598X", "current_trial": 251, "dateTime": 1512675329594, "trialdata": {"rt": -1000, "stimulus": "/static/audio/wordpool/FRAME.wav", "key_press": -1, "type": "PRES_AUD", "word": "frame", "wordID": 599, "conditions": [24, 1600, "a", 12000], "trial": 6, "serialpos": 14, "trial_type": "single-audio", "trial_index": 251, "time_elapsed": 1183996, "internal_node_id": "0.0-188.0"}}, {"uniqueid": "MTK0712:3PJUZCGDJ7N4UNES4YVCILRGOO598X", "current_trial": 252, "dateTime": 1512675332248, "trialdata": {"rt": -1000, "stimulus": "/static/audio/wordpool/FRAGRANCE.wav", "key_press": -1, "type": "PRES_AUD", "word": "fragrance", "wordID": 598, "conditions": [24, 1600, "a", 12000], "trial": 6, "serialpos": 15, "trial_type": "single-audio", "trial_index": 252, "time_elapsed": 1186651, "internal_node_id": "0.0-189.0"}}, {"uniqueid": "MTK0712:3PJUZCGDJ7N4UNES4YVCILRGOO598X", "current_trial": 253, "dateTime": 1512675334941, "trialdata": {"rt": -1000, "stimulus": "/static/audio/wordpool/GRAVEL.wav", "key_press": -1, "type": "PRES_AUD", "word": "gravel", "wordID": 658, "conditions": [24, 1600, "a", 12000], "trial": 6, "serialpos": 16, "trial_type": "single-audio", "trial_index": 253, "time_elapsed": 1189343, "internal_node_id": "0.0-190.0"}}, {"uniqueid": "MTK0712:3PJUZCGDJ7N4UNES4YVCILRGOO598X", "current_trial": 254, "dateTime": 1512675337627, "trialdata": {"rt": -1000, "stimulus": "/static/audio/wordpool/ONION.wav", "key_press": -1, "type": "PRES_AUD", "word": "onion", "wordID": 976, "conditions": [24, 1600, "a", 12000], "trial": 6, "serialpos": 17, "trial_type": "single-audio", "trial_index": 254, "time_elapsed": 1192030, "internal_node_id": "0.0-191.0"}}, {"uniqueid": "MTK0712:3PJUZCGDJ7N4UNES4YVCILRGOO598X", "current_trial": 255, "dateTime": 1512675340220, "trialdata": {"rt": -1000, "stimulus": "/static/audio/wordpool/SLIME.wav", "key_press": -1, "type": "PRES_AUD", "word": "slime", "wordID": 1326, "conditions": [24, 1600, "a", 12000], "trial": 6, "serialpos": 18, "trial_type": "single-audio", "trial_index": 255, "time_elapsed": 1194623, "internal_node_id": "0.0-192.0"}}, {"uniqueid": "MTK0712:3PJUZCGDJ7N4UNES4YVCILRGOO598X", "current_trial": 256, "dateTime": 1512675343013, "trialdata": {"rt": -1000, "stimulus": "/static/audio/wordpool/DIME.wav", "key_press": -1, "type": "PRES_AUD", "word": "dime", "wordID": 465, "conditions": [24, 1600, "a", 12000], "trial": 6, "serialpos": 19, "trial_type": "single-audio", "trial_index": 256, "time_elapsed": 1197412, "internal_node_id": "0.0-193.0"}}, {"uniqueid": "MTK0712:3PJUZCGDJ7N4UNES4YVCILRGOO598X", "current_trial": 257, "dateTime": 1512675345682, "trialdata": {"rt": -1000, "stimulus": "/static/audio/wordpool/PERFUME.wav", "key_press": -1, "type": "PRES_AUD", "word": "perfume", "wordID": 1048, "conditions": [24, 1600, "a", 12000], "trial": 6, "serialpos": 20, "trial_type": "single-audio", "trial_index": 257, "time_elapsed": 1200084, "internal_node_id": "0.0-194.0"}}, {"uniqueid": "MTK0712:3PJUZCGDJ7N4UNES4YVCILRGOO598X", "current_trial": 258, "dateTime": 1512675348350, "trialdata": {"rt": -1000, "stimulus": "/static/audio/wordpool/MARINE.wav", "key_press": -1, "type": "PRES_AUD", "word": "marine", "wordID": 868, "conditions": [24, 1600, "a", 12000], "trial": 6, "serialpos": 21, "trial_type": "single-audio", "trial_index": 258, "time_elapsed": 1202753, "internal_node_id": "0.0-195.0"}}, {"uniqueid": "MTK0712:3PJUZCGDJ7N4UNES4YVCILRGOO598X", "current_trial": 259, "dateTime": 1512675350916, "trialdata": {"rt": -1000, "stimulus": "/static/audio/wordpool/CRATER.wav", "key_press": -1, "type": "PRES_AUD", "word": "crater", "wordID": 399, "conditions": [24, 1600, "a", 12000], "trial": 6, "serialpos": 22, "trial_type": "single-audio", "trial_index": 259, "time_elapsed": 1205319, "internal_node_id": "0.0-196.0"}}, {"uniqueid": "MTK0712:3PJUZCGDJ7N4UNES4YVCILRGOO598X", "current_trial": 260, "dateTime": 1512675353394, "trialdata": {"rt": -1000, "stimulus": "/static/audio/wordpool/LAVA.wav", "key_press": -1, "type": "PRES_AUD", "word": "lava", "wordID": 803, "conditions": [24, 1600, "a", 12000], "trial": 6, "serialpos": 23, "trial_type": "single-audio", "trial_index": 260, "time_elapsed": 1207797, "internal_node_id": "0.0-197.0"}}, {"uniqueid": "MTK0712:3PJUZCGDJ7N4UNES4YVCILRGOO598X", "current_trial": 261, "dateTime": 1512675354682, "trialdata": {"rt": -1, "stimulus": "", "key_press": -1, "type": "PRE_RECALL_DELAY", "trial_type": "single-stim", "trial_index": 261, "time_elapsed": 1209085, "internal_node_id": "0.0-198.0-0.0"}}, {"uniqueid": "MTK0712:3PJUZCGDJ7N4UNES4YVCILRGOO598X", "current_trial": 262, "dateTime": 1512675355185, "trialdata": {"rt": -1000, "stimulus": "/static/audio/400Hz.wav", "key_press": -1, "type": "PRE_RECALL_ALERT", "trial_type": "single-audio", "trial_index": 262, "time_elapsed": 1209588, "internal_node_id": "0.0-199.0"}}, {"uniqueid": "MTK0712:3PJUZCGDJ7N4UNES4YVCILRGOO598X", "current_trial": 263, "dateTime": 1512675415200, "trialdata": {"rt": [2182, 11047, 12184, 13513, 15582, 18361, 20980, 23455, 25407, 28445, 30157, 33710, 35580, 38922, 43656, 49247, 52431, 56678, 59486], "recwords": ["perfume", "dinner", "money", "market", "drive", "scotch", "water", "dinner", "turkey", "house", "apartment", "service", "ricket", "croker", "sitting", "lance", "sword", "house", "chair"], "type": "FREE_RECALL", "conditions": [24, 1600, "a", 12000], "trial": 6, "trial_type": "free-recall", "trial_index": 263, "time_elapsed": 1269595, "internal_node_id": "0.0-200.0-0.0"}}, {"uniqueid": "MTK0712:3PJUZCGDJ7N4UNES4YVCILRGOO598X", "current_trial": 264, "dateTime": 1512675418071, "trialdata": {"rt": 869, "key_press": 32, "type": "INSTRUCTIONS", "trial_type": "text", "trial_index": 264, "time