{"condition": 0, "counterbalance": 2858, "assignmentId": "34X6J5FLPU5Z63RXC43PT6QJE4MQJD", "workerId": "MTK0851", "hitId": "3VMHWJRYHVN1NE8JPQ2UJWY02S8XFN", "currenttrial": 156, "bonus": 0, "data": [{"uniqueid": "MTK0851:34X6J5FLPU5Z63RXC43PT6QJE4MQJD", "current_trial": 0, "dateTime": 1512852301437, "trialdata": {"rt": 2224, "key_press": 32, "type": "INSTRUCTIONS", "trial_type": "text", "trial_index": 0, "time_elapsed": 2229, "internal_node_id": "0.0-0.0"}}, {"uniqueid": "MTK0851:34X6J5FLPU5Z63RXC43PT6QJE4MQJD", "current_trial": 1, "dateTime": 1512852330055, "trialdata": {"rt": 28613, "key_press": 32, "type": "INSTRUCTIONS", "trial_type": "text", "trial_index": 1, "time_elapsed": 30848, "internal_node_id": "0.0-1.0"}}, {"uniqueid": "MTK0851:34X6J5FLPU5Z63RXC43PT6QJE4MQJD", "current_trial": 2, "dateTime": 1512852343845, "trialdata": {"rt": [13775], "responses": ["ocean"], "type": "AUDIO_TEST", "trial_type": "audio-test", "trial_index": 2, "time_elapsed": 44638, "internal_node_id": "0.0-2.0"}}, {"uniqueid": "MTK0851:34X6J5FLPU5Z63RXC43PT6QJE4MQJD", "current_trial": 3, "dateTime": 1512852353907, "trialdata": {"rt": [10059], "responses": ["crystal"], "type": "AUDIO_TEST", "trial_type": "audio-test", "trial_index": 3, "time_elapsed": 54700, "internal_node_id": "0.0-3.0"}}, {"uniqueid": "MTK0851:34X6J5FLPU5Z63RXC43PT6QJE4MQJD", "current_trial": 4, "dateTime": 1512852451940, "trialdata": {"rt": [37012, 60496, 82803, 98029], "responses": ["vice", "fice", "bice", "spice"], "type": "AUDIO_TEST", "trial_type": "audio-test", "trial_index": 4, "time_elapsed": 152733, "internal_node_id": "0.0-4.0"}}, {"uniqueid": "MTK0851:34X6J5FLPU5Z63RXC43PT6QJE4MQJD", "current_trial": 5, "dateTime": 1512852484482, "trialdata": {"rt": 31786, "responses": "{\"Q0\":\"10pm\",\"Q1\":\"6am\",\"Q2\":\"4.5\"}", "type": "SLEEP_SURVEY", "trial_type": "survey-text", "trial_index": 5, "time_elapsed": 185275, "internal_node_id": "0.0-5.0"}}, {"uniqueid": "MTK0851:34X6J5FLPU5Z63RXC43PT6QJE4MQJD", "current_trial": 6, "dateTime": 1512852536411, "trialdata": {"rt": 50927, "key_press": 32, "type": "INSTRUCTIONS", "trial_type": "text", "trial_index": 6, "time_elapsed": 237203, "internal_node_id": "0.0-6.0"}}, {"uniqueid": "MTK0851:34X6J5FLPU5Z63RXC43PT6QJE4MQJD", "current_trial": 7, "dateTime": 1512852554019, "trialdata": {"rt": 17107, "key_press": 32, "type": "INSTRUCTIONS", "trial_type": "text", "trial_index": 7, "time_elapsed": 254812, "internal_node_id": "0.0-7.0"}}, {"uniqueid": "MTK0851:34X6J5FLPU5Z63RXC43PT6QJE4MQJD", "current_trial": 8, "dateTime": 1512852574467, "trialdata": {"rt": 19946, "key_press": 32, "type": "INSTRUCTIONS", "trial_type": "text", "trial_index": 8, "time_elapsed": 275260, "internal_node_id": "0.0-8.0"}}, {"uniqueid": "MTK0851:34X6J5FLPU5Z63RXC43PT6QJE4MQJD", "current_trial": 9, "dateTime": 1512852593474, "trialdata": {"rt": [4083, 7922, 11200, 13533, 16328], "responses": ["12", "15", "14", "14", "21"], "num1": [7, 7, 3, 7, 9, 7], "num2": [3, 6, 6, 3, 8, 3], "num3": [2, 2, 5, 4, 4, 3], "type": "DISTRACTOR", "conditions": [18, 1200, "a", 18000], "trial": 0, "trial_type": "math-distractor", "trial_index": 9, "time_elapsed": 294267, "internal_node_id": "0.0-9.0"}}, {"uniqueid": "MTK0851:34X6J5FLPU5Z63RXC43PT6QJE4MQJD", "current_trial": 10, "dateTime": 1512852596476, "trialdata": {"rt": -1, "stimulus": "<p id=\"stim\">10</p>", "key_press": -1, "trial_type": "single-stim", "trial_index": 10, "time_elapsed": 297269, "internal_node_id": "0.0-10.0-0.0"}}, {"uniqueid": "MTK0851:34X6J5FLPU5Z63RXC43PT6QJE4MQJD", "current_trial": 11, "dateTime": 1512852597478, "trialdata": {"rt": -1, "stimulus": "<p id=\"stim\">9</p>", "key_press": -1, "trial_type": "single-stim", "trial_index": 11, "time_elapsed": 298271, "internal_node_id": "0.0-10.0-1.0"}}, {"uniqueid": "MTK0851:34X6J5FLPU5Z63RXC43PT6QJE4MQJD", "current_trial": 12, "dateTime": 1512852598479, "trialdata": {"rt": -1, "stimulus": "<p id=\"stim\">8</p>", "key_press": -1, "trial_type": "single-stim", "trial_index": 12, "time_elapsed": 299272, "internal_node_id": "0.0-10.0-2.0"}}, {"uniqueid": "MTK0851:34X6J5FLPU5Z63RXC43PT6QJE4MQJD", "current_trial": 13, "dateTime": 1512852599483, "trialdata": {"rt": -1, "stimulus": "<p id=\"stim\">7</p>", "key_press": -1, "trial_type": "single-stim", "trial_index": 13, "time_elapsed": 300276, "internal_node_id": "0.0-10.0-3.0"}}, {"uniqueid": "MTK0851:34X6J5FLPU5Z63RXC43PT6QJE4MQJD", "current_trial": 14, "dateTime": 1512852600519, "trialdata": {"rt": -1, "stimulus": "<p id=\"stim\">6</p>", "key_press": -1, "trial_type": "single-stim", "trial_index": 14, "time_elapsed": 301312, "internal_node_id": "0.0-10.0-4.0"}}, {"uniqueid": "MTK0851:34X6J5FLPU5Z63RXC43PT6QJE4MQJD", "current_trial": 15, "dateTime": 1512852601522, "trialdata": {"rt": -1, "stimulus": "<p id=\"stim\">5</p>", "key_press": -1, "trial_type": "single-stim", "trial_index": 15, "time_elapsed": 302315, "internal_node_id": "0.0-10.0-5.0"}}, {"uniqueid": "MTK0851:34X6J5FLPU5Z63RXC43PT6QJE4MQJD", "current_trial": 16, "dateTime": 1512852602525, "trialdata": {"rt": -1, "stimulus": "<p id=\"stim\">4</p>", "key_press": -1, "trial_type": "single-stim", "trial_index": 16, "time_elapsed": 303318, "internal_node_id": "0.0-10.0-6.0"}}, {"uniqueid": "MTK0851:34X6J5FLPU5Z63RXC43PT6QJE4MQJD", "current_trial": 17, "dateTime": 1512852603552, "trialdata": {"rt": -1, "stimulus": "<p id=\"stim\">3</p>", "key_press": -1, "trial_type": "single-stim", "trial_index": 17, "time_elapsed": 304345, "internal_node_id": "0.0-10.0-7.0"}}, {"uniqueid": "MTK0851:34X6J5FLPU5Z63RXC43PT6QJE4MQJD", "current_trial": 18, "dateTime": 1512852604554, "trialdata": {"rt": -1, "stimulus": "<p id=\"stim\">2</p>", "key_press": -1, "trial_type": "single-stim", "trial_index": 18, "time_elapsed": 305347, "internal_node_id": "0.0-10.0-8.0"}}, {"uniqueid": "MTK0851:34X6J5FLPU5Z63RXC43PT6QJE4MQJD", "current_trial": 19, "dateTime": 1512852605556, "trialdata": {"rt": -1, "stimulus": "<p id=\"stim\">1</p>", "key_press": -1, "trial_type": "single-stim", "trial_index": 19, "time_elapsed": 306349, "internal_node_id": "0.0-10.0-9.0"}}, {"uniqueid": "MTK0851:34X6J5FLPU5Z63RXC43PT6QJE4MQJD", "current_trial": 20, "dateTime": 1512852607058, "trialdata": {"rt": -1, "stimulus": "<p id=\"stim\">+</p>", "key_press": -1, "type": "FIXATION", "trial_type": "single-stim", "trial_index": 20, "time_elapsed": 307851, "internal_node_id": "0.0-11.0-0.0"}}, {"uniqueid": "MTK0851:34X6J5FLPU5Z63RXC43PT6QJE4MQJD", "current_trial": 21, "dateTime": 1512852609280, "trialdata": {"rt": -1000, "stimulus": "/static/audio/wordpool/FREEZER.wav", "key_press": -1, "type": "PRES_AUD", "word": "freezer", "wordID": 603, "conditions": [18, 1200, "a", 18000], "trial": 0, "serialpos": 0, "trial_type": "single-audio", "trial_index": 21, "time_elapsed": 310073, "internal_node_id": "0.0-12.0"}}, {"uniqueid": "MTK0851:34X6J5FLPU5Z63RXC43PT6QJE4MQJD", "current_trial": 22, "dateTime": 1512852611556, "trialdata": {"rt": -1000, "stimulus": "/static/audio/wordpool/TABLET.wav", "key_press": -1, "type": "PRES_AUD", "word": "tablet", "wordID": 1426, "conditions": [18, 1200, "a", 18000], "trial": 0, "serialpos": 1, "trial_type": "single-audio", "trial_index": 22, "time_elapsed": 312348, "internal_node_id": "0.0-13.0"}}, {"uniqueid": "MTK0851:34X6J5FLPU5Z63RXC43PT6QJE4MQJD", "current_trial": 23, "dateTime": 1512852613866, "trialdata": {"rt": -1000, "stimulus": "/static/audio/wordpool/HOUND.wav", "key_press": -1, "type": "PRES_AUD", "word": "hound", "wordID": 723, "conditions": [18, 1200, "a", 18000], "trial": 0, "serialpos": 2, "trial_type": "single-audio", "trial_index": 23, "time_elapsed": 314659, "internal_node_id": "0.0-14.0"}}, {"uniqueid": "MTK0851:34X6J5FLPU5Z63RXC43PT6QJE4MQJD", "current_trial": 24, "dateTime": 1512852615946, "trialdata": {"rt": -1000, "stimulus": "/static/audio/wordpool/DRUG.wav", "key_press": -1, "type": "PRES_AUD", "word": "drug", "wordID": 500, "conditions": [18, 1200, "a", 18000], "trial": 0, "serialpos": 3, "trial_type": "single-audio", "trial_index": 24, "time_elapsed": 316739, "internal_node_id": "0.0-15.0"}}, {"uniqueid": "MTK0851:34X6J5FLPU5Z63RXC43PT6QJE4MQJD", "current_trial": 25, "dateTime": 1512852618184, "trialdata": {"rt": -1000, "stimulus": "/static/audio/wordpool/VENUS.wav", "key_press": -1, "type": "PRES_AUD", "word": "venus", "wordID": 1556, "conditions": [18, 1200, "a", 18000], "trial": 0, "serialpos": 4, "trial_type": "single-audio", "trial_index": 25, "time_elapsed": 318977, "internal_node_id": "0.0-16.0"}}, {"uniqueid": "MTK0851:34X6J5FLPU5Z63RXC43PT6QJE4MQJD", "current_trial": 26, "dateTime": 1512852620223, "trialdata": {"rt": -1000, "stimulus": "/static/audio/wordpool/MAILBOX.wav", "key_press": -1, "type": "PRES_AUD", "word": "mailbox", "wordID": 856, "conditions": [18, 1200, "a", 18000], "trial": 0, "serialpos": 5, "trial_type": "single-audio", "trial_index": 26, "time_elapsed": 321015, "internal_node_id": "0.0-17.0"}}, {"uniqueid": "MTK0851:34X6J5FLPU5Z63RXC43PT6QJE4MQJD", "current_trial": 27, "dateTime": 1512852622378, "trialdata": {"rt": -1000, "stimulus": "/static/audio/wordpool/BOUQUET.wav", "key_press": -1, "type": "PRES_AUD", "word": "bouquet", "wordID": 156, "conditions": [18, 1200, "a", 18000], "trial": 0, "serialpos": 6, "trial_type": "single-audio", "trial_index": 27, "time_elapsed": 323171, "internal_node_id": "0.0-18.0"}}, {"uniqueid": "MTK0851:34X6J5FLPU5Z63RXC43PT6QJE4MQJD", "current_trial": 28, "dateTime": 1512852624535, "trialdata": {"rt": -1000, "stimulus": "/static/audio/wordpool/GRAPE.wav", "key_press": -1, "type": "PRES_AUD", "word": "grape", "wordID": 653, "conditions": [18, 1200, "a", 18000], "trial": 0, "serialpos": 7, "trial_type": "single-audio", "trial_index": 28, "time_elapsed": 325328, "internal_node_id": "0.0-19.0"}}, {"uniqueid": "MTK0851:34X6J5FLPU5Z63RXC43PT6QJE4MQJD", "current_trial": 29, "dateTime": 1512852626636, "trialdata": {"rt": -1000, "stimulus": "/static/audio/wordpool/BABY.wav", "key_press": -1, "type": "PRES_AUD", "word": "baby", "wordID": 63, "conditions": [18, 1200, "a", 18000], "trial": 0, "serialpos": 8, "trial_type": "single-audio", "trial_index": 29, "time_elapsed": 327428, "internal_node_id": "0.0-20.0"}}, {"uniqueid": "MTK0851:34X6J5FLPU5Z63RXC43PT6QJE4MQJD", "current_trial": 30, "dateTime": 1512852628900, "trialdata": {"rt": -1000, "stimulus": "/static/audio/wordpool/GROUND.wav", "key_press": -1, "type": "PRES_AUD", "word": "ground", "wordID": 665, "conditions": [18, 1200, "a", 18000], "trial": 0, "serialpos": 9, "trial_type": "single-audio", "trial_index": 30, "time_elapsed": 329693, "internal_node_id": "0.0-21.0"}}, {"uniqueid": "MTK0851:34X6J5FLPU5Z63RXC43PT6QJE4MQJD", "current_trial": 31, "dateTime": 1512852631271, "trialdata": {"rt": -1000, "stimulus": "/static/audio/wordpool/PICTURE.wav", "key_press": -1, "type": "PRES_AUD", "word": "picture", "wordID": 1060, "conditions": [18, 1200, "a", 18000], "trial": 0, "serialpos": 10, "trial_type": "single-audio", "trial_index": 31, "time_elapsed": 332064, "internal_node_id": "0.0-22.0"}}, {"uniqueid": "MTK0851:34X6J5FLPU5Z63RXC43PT6QJE4MQJD", "current_trial": 32, "dateTime": 1512852633526, "trialdata": {"rt": -1000, "stimulus": "/static/audio/wordpool/RACKET.wav", "key_press": -1, "type": "PRES_AUD", "word": "racket", "wordID": 1154, "conditions": [18, 1200, "a", 18000], "trial": 0, "serialpos": 11, "trial_type": "single-audio", "trial_index": 32, "time_elapsed": 334319, "internal_node_id": "0.0-23.0"}}, {"uniqueid": "MTK0851:34X6J5FLPU5Z63RXC43PT6QJE4MQJD", "current_trial": 33, "dateTime": 1512852635755, "trialdata": {"rt": -1000, "stimulus": "/static/audio/wordpool/PENGUIN.wav", "key_press": -1, "type": "PRES_AUD", "word": "penguin", "wordID": 1043, "conditions": [18, 1200, "a", 18000], "trial": 0, "serialpos": 12, "trial_type": "single-audio", "trial_index": 33, "time_elapsed": 336547, "internal_node_id": "0.0-24.0"}}, {"uniqueid": "MTK0851:34X6J5FLPU5Z63RXC43PT6QJE4MQJD", "current_trial": 34, "dateTime": 1512852638063, "trialdata": {"rt": -1000, "stimulus": "/static/audio/wordpool/PASTRY.wav", "key_press": -1, "type": "PRES_AUD", "word": "pastry", "wordID": 1021, "conditions": [18, 1200, "a", 18000], "trial": 0, "serialpos": 13, "trial_type": "single-audio", "trial_index": 34, "time_elapsed": 338856, "internal_node_id": "0.0-25.0"}}, {"uniqueid": "MTK0851:34X6J5FLPU5Z63RXC43PT6QJE4MQJD", "current_trial": 35, "dateTime": 1512852640306, "trialdata": {"rt": -1000, "stimulus": "/static/audio/wordpool/SUPPER.wav", "key_press": -1, "type": "PRES_AUD", "word": "supper", "wordID": 1410, "conditions": [18, 1200, "a", 18000], "trial": 0, "serialpos": 14, "trial_type": "single-audio", "trial_index": 35, "time_elapsed": 341099, "internal_node_id": "0.0-26.0"}}, {"uniqueid": "MTK0851:34X6J5FLPU5Z63RXC43PT6QJE4MQJD", "current_trial": 36, "dateTime": 1512852642673, "trialdata": {"rt": -1000, "stimulus": "/static/audio/wordpool/SCALPEL.wav", "key_press": -1, "type": "PRES_AUD", "word": "scalpel", "wordID": 1242, "conditions": [18, 1200, "a", 18000], "trial": 0, "serialpos": 15, "trial_type": "single-audio", "trial_index": 36, "time_elapsed": 343466, "internal_node_id": "0.0-27.0"}}, {"uniqueid": "MTK0851:34X6J5FLPU5Z63RXC43PT6QJE4MQJD", "current_trial": 37, "dateTime": 1512852644987, "trialdata": {"rt": -1000, "stimulus": "/static/audio/wordpool/LILY.wav", "key_press": -1, "type": "PRES_AUD", "word": "lily", "wordID": 820, "conditions": [18, 1200, "a", 18000], "trial": 0, "serialpos": 16, "trial_type": "single-audio", "trial_index": 37, "time_elapsed": 345780, "internal_node_id": "0.0-28.0"}}, {"uniqueid": "MTK0851:34X6J5FLPU5Z63RXC43PT6QJE4MQJD", "current_trial": 38, "dateTime": 1512852647257, "trialdata": {"rt": -1000, "stimulus": "/static/audio/wordpool/HORNET.wav", "key_press": -1, "type": "PRES_AUD", "word": "hornet", "wordID": 717, "conditions": [18, 1200, "a", 18000], "trial": 0, "serialpos": 17, "trial_type": "single-audio", "trial_index": 38, "time_elapsed": 348049, "internal_node_id": "0.0-29.0"}}, {"uniqueid": "MTK0851:34X6J5FLPU5Z63RXC43PT6QJE4MQJD", "current_trial": 39, "dateTime": 1512852648579, "trialdata": {"rt": -1, "stimulus": "", "key_press": -1, "type": "PRE_RECALL_DELAY", "trial_type": "single-stim", "trial_index": 39, "time_elapsed": 349372, "internal_node_id": "0.0-30.0-0.0"}}, {"uniqueid": "MTK0851:34X6J5FLPU5Z63RXC43PT6QJE4MQJD", "current_trial": 40, "dateTime": 1512852649081, "trialdata": {"rt": -1000, "stimulus": "/static/audio/400Hz.wav", "key_press": -1, "type": "PRE_RECALL_ALERT", "trial_type": "single-audio", "trial_index": 40, "time_elapsed": 349874, "internal_node_id": "0.0-31.0"}}, {"uniqueid": "MTK0851:34X6J5FLPU5Z63RXC43PT6QJE4MQJD", "current_trial": 41, "dateTime": 1512852709088, "trialdata": {"rt": [3515, 5270, 7086, 11421, 24336], "recwords": ["hornet", "lily", "baby", "scalpel", "bouquet"], "type": "FREE_RECALL", "conditions": [18, 1200, "a", 18000], "trial": 0, "trial_type": "free-recall", "trial_index": 41, "time_elapsed": 409879, "internal_node_id": "0.0-32.0-0.0"}}, {"uniqueid": "MTK0851:34X6J5FLPU5Z63RXC43PT6QJE4MQJD", "current_trial": 42, "dateTime": 1512852713151, "trialdata": {"rt": 2061, "key_press": 32, "type": "INSTRUCTIONS", "trial_type": "text", "trial_index": 42, "time_elapsed": 413944, "internal_node_id": "0.0-33.0"}}, {"uniqueid": "MTK0851:34X6J5FLPU5Z63RXC43PT6QJE4MQJD", "current_trial": 43, "dateTime": 1512852733156, "trialdata": {"rt": [3740, 6078, 8836, 11809, 14706], "responses": ["14", "17", "12", "12", "17"], "num1": [8, 4, 2, 4, 9, 4], "num2": [2, 5, 6, 7, 6, 1], "num3": [4, 8, 4, 1, 2, 3], "type": "DISTRACTOR", "conditions": [18, 1200, "v", 18000], "trial": 1, "trial_type": "math-distractor", "trial_index": 43, "time_elapsed": 433948, "internal_node_id": "0.0-34.0"}}, {"uniqueid": "MTK0851:34X6J5FLPU5Z63RXC43PT6QJE4MQJD", "current_trial": 44, "dateTime": 1512852736159, "trialdata": {"rt": -1, "stimulus": "<p id=\"stim\">10</p>", "key_press": -1, "trial_type": "single-stim", "trial_index": 44, "time_elapsed": 436952, "internal_node_id": "0.0-35.0-0.0"}}, {"uniqueid": "MTK0851:34X6J5FLPU5Z63RXC43PT6QJE4MQJD", "current_trial": 45, "dateTime": 1512852737161, "trialdata": {"rt": -1, "stimulus": "<p id=\"stim\">9</p>", "key_press": -1, "trial_type": "single-stim", "trial_index": 45, "time_elapsed": 437954, "internal_node_id": "0.0-35.0-1.0"}}, {"uniqueid": "MTK0851:34X6J5FLPU5Z63RXC43PT6QJE4MQJD", "current_trial": 46, "dateTime": 1512852738162, "trialdata": {"rt": -1, "stimulus": "<p id=\"stim\">8</p>", "key_press": -1, "trial_type": "single-stim", "trial_index": 46, "time_elapsed": 438955, "internal_node_id": "0.0-35.0-2.0"}}, {"uniqueid": "MTK0851:34X6J5FLPU5Z63RXC43PT6QJE4MQJD", "current_trial": 47, "dateTime": 1512852739165, "trialdata": {"rt": -1, "stimulus": "<p id=\"stim\">7</p>", "key_press": -1, "trial_type": "single-stim", "trial_index": 47, "time_elapsed": 439958, "internal_node_id": "0.0-35.0-3.0"}}, {"uniqueid": "MTK0851:34X6J5FLPU5Z63RXC43PT6QJE4MQJD", "current_trial": 48, "dateTime": 1512852740166, "trialdata": {"rt": -1, "stimulus": "<p id=\"stim\">6</p>", "key_press": -1, "trial_type": "single-stim", "trial_index": 48, "time_elapsed": 440959, "internal_node_id": "0.0-35.0-4.0"}}, {"uniqueid": "MTK0851:34X6J5FLPU5Z63RXC43PT6QJE4MQJD", "current_trial": 49, "dateTime": 1512852741170, "trialdata": {"rt": -1, "stimulus": "<p id=\"stim\">5</p>", "key_press": -1, "trial_type": "single-stim", "trial_index": 49, "time_elapsed": 441963, "internal_node_id": "0.0-35.0-5.0"}}, {"uniqueid": "MTK0851:34X6J5FLPU5Z63RXC43PT6QJE4MQJD", "current_trial": 50, "dateTime": 1512852742171, "trialdata": {"rt": -1, "stimulus": "<p id=\"stim\">4</p>", "key_press": -1, "trial_type": "single-stim", "trial_index": 50, "time_elapsed": 442963, "internal_node_id": "0.0-35.0-6.0"}}, {"uniqueid": "MTK0851:34X6J5FLPU5Z63RXC43PT6QJE4MQJD", "current_trial": 51, "dateTime": 1512852743174, "trialdata": {"rt": -1, "stimulus": "<p id=\"stim\">3</p>", "key_press": -1, "trial_type": "single-stim", "trial_index": 51, "time_elapsed": 443966, "internal_node_id": "0.0-35.0-7.0"}}, {"uniqueid": "MTK0851:34X6J5FLPU5Z63RXC43PT6QJE4MQJD", "current_trial": 52, "dateTime": 1512852744176, "trialdata": {"rt": -1, "stimulus": "<p id=\"stim\">2</p>", "key_press": -1, "trial_type": "single-stim", "trial_index": 52, "time_elapsed": 444969, "internal_node_id": "0.0-35.0-8.0"}}, {"uniqueid": "MTK0851:34X6J5FLPU5Z63RXC43PT6QJE4MQJD", "current_trial": 53, "dateTime": 1512852745180, "trialdata": {"rt": -1, "stimulus": "<p id=\"stim\">1</p>", "key_press": -1, "trial_type": "single-stim", "trial_index": 53, "time_elapsed": 445973, "internal_node_id": "0.0-35.0-9.0"}}, {"uniqueid": "MTK0851:34X6J5FLPU5Z63RXC43PT6QJE4MQJD", "current_trial": 54, "dateTime": 1512852746683, "trialdata": {"rt": -1, "stimulus": "<p id=\"stim\">+</p>", "key_press": -1, "type": "FIXATION", "trial_type": "single-stim", "trial_index": 54, "time_elapsed": 447475, "internal_node_id": "0.0-36.0-0.0"}}, {"uniqueid": "MTK0851:34X6J5FLPU5Z63RXC43PT6QJE4MQJD", "current_trial": 55, "dateTime": 1512852747885, "trialdata": {"rt": -1, "stimulus": "<p id=\"stim\">COUNTY</p>", "key_press": -1, "type": "PRES_VIS", "word": "county", "wordID": 388, "conditions": [18, 1200, "v", 18000], "trial": 1, "serialpos": 0, "trial_type": "single-stim", "trial_index": 55, "time_elapsed": 448678, "internal_node_id": "0.0-37.0"}}, {"uniqueid": "MTK0851:34X6J5FLPU5Z63RXC43PT6QJE4MQJD", "current_trial": 56, "dateTime": 1512852750165, "trialdata": {"rt": -1, "stimulus": "<p id=\"stim\">TWIG</p>", "key_press": -1, "type": "PRES_VIS", "word": "twig", "wordID": 1526, "conditions": [18, 1200, "v", 18000], "trial": 1, "serialpos": 1, "trial_type": "single-stim", "trial_index": 56, "time_elapsed": 450958, "internal_node_id": "0.0-38.0"}}, {"uniqueid": "MTK0851:34X6J5FLPU5Z63RXC43PT6QJE4MQJD", "current_trial": 57, "dateTime": 1512852752212, "trialdata": {"rt": -1, "stimulus": "<p id=\"stim\">SIDEWALK</p>", "key_press": -1, "type": "PRES_VIS", "word": "sidewalk", "wordID": 1302, "conditions": [18, 1200, "v", 18000], "trial": 1, "serialpos": 2, "trial_type": "single-stim", "trial_index": 57, "time_elapsed": 453004, "internal_node_id": "0.0-39.0"}}, {"uniqueid": "MTK0851:34X6J5FLPU5Z63RXC43PT6QJE4MQJD", "current_trial": 58, "dateTime": 1512852754358, "trialdata": {"rt": -1, "stimulus": "<p id=\"stim\">MUMMY</p>", "key_press": -1, "type": "PRES_VIS", "word": "mummy", "wordID": 931, "conditions": [18, 1200, "v", 18000], "trial": 1, "serialpos": 3, "trial_type": "single-stim", "trial_index": 58, "time_elapsed": 455151, "internal_node_id": "0.0-40.0"}}, {"uniqueid": "MTK0851:34X6J5FLPU5Z63RXC43PT6QJE4MQJD", "current_trial": 59, "dateTime": 1512852756512, "trialdata": {"rt": -1, "stimulus": "<p id=\"stim\">SKIRT</p>", "key_press": -1, "type": "PRES_VIS", "word": "skirt", "wordID": 1318, "conditions": [18, 1200, "v", 18000], "trial": 1, "serialpos": 4, "trial_type": "single-stim", "trial_index": 59, "time_elapsed": 457305, "internal_node_id": "0.0-41.0"}}, {"uniqueid": "MTK0851:34X6J5FLPU5Z63RXC43PT6QJE4MQJD", "current_trial": 60, "dateTime": 1512852758768, "trialdata": {"rt": -1, "stimulus": "<p id=\"stim\">PLAID</p>", "key_press": -1, "type": "PRES_VIS", "word": "plaid", "wordID": 1079, "conditions": [18, 1200, "v", 18000], "trial": 1, "serialpos": 5, "trial_type": "single-stim", "trial_index": 60, "time_elapsed": 459561, "internal_node_id": "0.0-42.0"}}, {"uniqueid": "MTK0851:34X6J5FLPU5Z63RXC43PT6QJE4MQJD", "current_trial": 61, "dateTime": 1512852760958, "trialdata": {"rt": -1, "stimulus": "<p id=\"stim\">CYCLONE</p>", "key_press": -1, "type": "PRES_VIS", "word": "cyclone", "wordID": 430, "conditions": [18, 1200, "v", 18000], "trial": 1, "serialpos": 6, "trial_type": "single-stim", "trial_index": 61, "time_elapsed": 461751, "internal_node_id": "0.0-43.0"}}, {"uniqueid": "MTK0851:34X6J5FLPU5Z63RXC43PT6QJE4MQJD", "current_trial": 62, "dateTime": 1512852763135, "trialdata": {"rt": -1, "stimulus": "<p id=\"stim\">TABLE</p>", "key_press": -1, "type": "PRES_VIS", "word": "table", "wordID": 1425, "conditions": [18, 1200, "v", 18000], "trial": 1, "serialpos": 7, "trial_type": "single-stim", "trial_index": 62, "time_elapsed": 463928, "internal_node_id": "0.0-44.0"}}, {"uniqueid": "MTK0851:34X6J5FLPU5Z63RXC43PT6QJE4MQJD", "current_trial": 63, "dateTime": 1512852765492, "trialdata": {"rt": -1, "stimulus": "<p id=\"stim\">DUSTPAN</p>", "key_press": -1, "type": "PRES_VIS", "word": "dustpan", "wordID": 508, "conditions": [18, 1200, "v", 18000], "trial": 1, "serialpos": 8, "trial_type": "single-stim", "trial_index": 63, "time_elapsed": 466285, "internal_node_id": "0.0-45.0"}}, {"uniqueid": "MTK0851:34X6J5FLPU5Z63RXC43PT6QJE4MQJD", "current_trial": 64, "dateTime": 1512852767672, "trialdata": {"rt": -1, "stimulus": "<p id=\"stim\">DRINK</p>", "key_press": -1, "type": "PRES_VIS", "word": "drink", "wordID": 497, "conditions": [18, 1200, "v", 18000], "trial": 1, "serialpos": 9, "trial_type": "single-stim", "trial_index": 64, "time_elapsed": 468465, "internal_node_id": "0.0-46.0"}}, {"uniqueid": "MTK0851:34X6J5FLPU5Z63RXC43PT6QJE4MQJD", "current_trial": 65, "dateTime": 1512852769778, "trialdata": {"rt": -1, "stimulus": "<p id=\"stim\">CRATER</p>", "key_press": -1, "type": "PRES_VIS", "word": "crater", "wordID": 399, "conditions": [18, 1200, "v", 18000], "trial": 1, "serialpos": 10, "trial_type": "single-stim", "trial_index": 65, "time_elapsed": 470571, "internal_node_id": "0.0-47.0"}}, {"uniqueid": "MTK0851:34X6J5FLPU5Z63RXC43PT6QJE4MQJD", "current_trial": 66, "dateTime": 1512852772014, "trialdata": {"rt": -1, "stimulus": "<p id=\"stim\">BALLOON</p>", "key_press": -1, "type": "PRES_VIS", "word": "balloon", "wordID": 74, "conditions": [18, 1200, "v", 18000], "trial": 1, "serialpos": 11, "trial_type": "single-stim", "trial_index": 66, "time_elapsed": 472806, "internal_node_id": "0.0-48.0"}}, {"uniqueid": "MTK0851:34X6J5FLPU5Z63RXC43PT6QJE4MQJD", "current_trial": 67, "dateTime": 1512852774045, "trialdata": {"rt": -1, "stimulus": "<p id=\"stim\">ORCHID</p>", "key_press": -1, "type": "PRES_VIS", "word": "orchid", "wordID": 981, "conditions": [18, 1200, "v", 18000], "trial": 1, "serialpos": 12, "trial_type": "single-stim", "trial_index": 67, "time_elapsed": 474838, "internal_node_id": "0.0-49.0"}}, {"uniqueid": "MTK0851:34X6J5FLPU5Z63RXC43PT6QJE4MQJD", "current_trial": 68, "dateTime": 1512852776160, "trialdata": {"rt": -1, "stimulus": "<p id=\"stim\">SCALLOP</p>", "key_press": -1, "type": "PRES_VIS", "word": "scallop", "wordID": 1241, "conditions": [18, 1200, "v", 18000], "trial": 1, "serialpos": 13, "trial_type": "single-stim", "trial_index": 68, "time_elapsed": 476948, "internal_node_id": "0.0-50.0"}}, {"uniqueid": "MTK0851:34X6J5FLPU5Z63RXC43PT6QJE4MQJD", "current_trial": 69, "dateTime": 1512852778317, "trialdata": {"rt": -1, "stimulus": "<p id=\"stim\">WIFE</p>", "key_press": -1, "type": "PRES_VIS", "word": "wife", "wordID": 1608, "conditions": [18, 1200, "v", 18000], "trial": 1, "serialpos": 14, "trial_type": "single-stim", "trial_index": 69, "time_elapsed": 479109, "internal_node_id": "0.0-51.0"}}, {"uniqueid": "MTK0851:34X6J5FLPU5Z63RXC43PT6QJE4MQJD", "current_trial": 70, "dateTime": 1512852780532, "trialdata": {"rt": -1, "stimulus": "<p id=\"stim\">HEART</p>", "key_press": -1, "type": "PRES_VIS", "word": "heart", "wordID": 696, "conditions": [18, 1200, "v", 18000], "trial": 1, "serialpos": 15, "trial_type": "single-stim", "trial_index": 70, "time_elapsed": 481324, "internal_node_id": "0.0-52.0"}}, {"uniqueid": "MTK0851:34X6J5FLPU5Z63RXC43PT6QJE4MQJD", "current_trial": 71, "dateTime": 1512852782554, "trialdata": {"rt": -1, "stimulus": "<p id=\"stim\">NURSE</p>", "key_press": -1, "type": "PRES_VIS", "word": "nurse", "wordID": 962, "conditions": [18, 1200, "v", 18000], "trial": 1, "serialpos": 16, "trial_type": "single-stim", "trial_index": 71, "time_elapsed": 483347, "internal_node_id": "0.0-53.0"}}, {"uniqueid": "MTK0851:34X6J5FLPU5Z63RXC43PT6QJE4MQJD", "current_trial": 72, "dateTime": 1512852784732, "trialdata": {"rt": -1, "stimulus": "<p id=\"stim\">CHILD</p>", "key_press": -1, "type": "PRES_VIS", "word": "child", "wordID": 298, "conditions": [18, 1200, "v", 18000], "trial": 1, "serialpos": 17, "trial_type": "single-stim", "trial_index": 72, "time_elapsed": 485525, "internal_node_id": "0.0-54.0"}}, {"uniqueid": "MTK0851:34X6J5FLPU5Z63RXC43PT6QJE4MQJD", "current_trial": 73, "dateTime": 1512852787168, "trialdata": {"rt": -1, "stimulus": "", "key_press": -1, "type": "PRE_RECALL_DELAY", "trial_type": "single-stim", "trial_index": 73, "time_elapsed": 487961, "internal_node_id": "0.0-55.0-0.0"}}, {"uniqueid": "MTK0851:34X6J5FLPU5Z63RXC43PT6QJE4MQJD", "current_trial": 74, "dateTime": 1512852787670, "trialdata": {"rt": -1000, "stimulus": "/static/audio/400Hz.wav", "key_press": -1, "type": "PRE_RECALL_ALERT", "trial_type": "single-audio", "trial_index": 74, "time_elapsed": 488463, "internal_node_id": "0.0-56.0"}}, {"uniqueid": "MTK0851:34X6J5FLPU5Z63RXC43PT6QJE4MQJD", "current_trial": 75, "dateTime": 1512852847677, "trialdata": {"rt": [5122, 6911, 8659, 11530, 16982, 21290, 22903, 24488, 28901, 35814, 42468], "recwords": ["nurse", "heart", "wife", "scallop", "dustpan", "crater", "table", "drink", "skirt", "balloon", "mummy"], "type": "FREE_RECALL", "conditions": [18, 1200, "v", 18000], "trial": 1, "trial_type": "free-recall", "trial_index": 75, "time_elapsed": 548465, "internal_node_id": "0.0-57.0-0.0"}}, {"uniqueid": "MTK0851:34X6J5FLPU5Z63RXC43PT6QJE4MQJD", "current_trial": 76, "dateTime": 1512852864073, "trialdata": {"rt": 14388, "key_press": 32, "type": "INSTRUCTIONS", "trial_type": "text", "trial_index": 76, "time_elapsed": 564862, "internal_node_id": "0.0-58.0"}}, {"uniqueid": "MTK0851:34X6J5FLPU5Z63RXC43PT6QJE4MQJD", "current_trial": 77, "dateTime": 1512852889079, "trialdata": {"rt": [2732, 4449, 6900, 9495, 13175, 16485, 18746, 21051, 22987], "responses": ["19", "12", "14", "18", "22", "22", "15", "18", "15"], "num1": [1, 9, 4, 9, 8, 9, 8, 7, 6, 2], "num2": [9, 1, 2, 8, 6, 5, 6, 2, 7, 8], "num3": [9, 2, 8, 1, 8, 8, 1, 9, 2, 3], "type": "DISTRACTOR", "conditions": [24, 800, "v", 24000], "trial": 2, "trial_type": "math-distractor", "trial_index": 77, "time_elapsed": 589872, "internal_node_id": "0.0-59.0"}}, {"uniqueid": "MTK0851:34X6J5FLPU5Z63RXC43PT6QJE4MQJD", "current_trial": 78, "dateTime": 1512852892081, "trialdata": {"rt": -1, "stimulus": "<p id=\"stim\">10</p>", "key_press": -1, "trial_type": "single-stim", "trial_index": 78, "time_elapsed": 592874, "internal_node_id": "0.0-60.0-0.0"}}, {"uniqueid": "MTK0851:34X6J5FLPU5Z63RXC43PT6QJE4MQJD", "current_trial": 79, "dateTime": 1512852893084, "trialdata": {"rt": -1, "stimulus": "<p id=\"stim\">9</p>", "key_press": -1, "trial_type": "single-stim", "trial_index": 79, "time_elapsed": 593877, "internal_node_id": "0.0-60.0-1.0"}}, {"uniqueid": "MTK0851:34X6J5FLPU5Z63RXC43PT6QJE4MQJD", "current_trial": 80, "dateTime": 1512852894087, "trialdata": {"rt": -1, "stimulus": "<p id=\"stim\">8</p>", "key_press": -1, "trial_type": "single-stim", "trial_index": 80, "time_elapsed": 594880, "internal_node_id": "0.0-60.0-2.0"}}, {"uniqueid": "MTK0851:34X6J5FLPU5Z63RXC43PT6QJE4MQJD", "current_trial": 81, "dateTime": 1512852895089, "trialdata": {"rt": -1, "stimulus": "<p id=\"stim\">7</p>", "key_press": -1, "trial_type": "single-stim", "trial_index": 81, "time_elapsed": 595882, "internal_node_id": "0.0-60.0-3.0"}}, {"uniqueid": "MTK0851:34X6J5FLPU5Z63RXC43PT6QJE4MQJD", "current_trial": 82, "dateTime": 1512852896091, "trialdata": {"rt": -1, "stimulus": "<p id=\"stim\">6</p>", "key_press": -1, "trial_type": "single-stim", "trial_index": 82, "time_elapsed": 596884, "internal_node_id": "0.0-60.0-4.0"}}, {"uniqueid": "MTK0851:34X6J5FLPU5Z63RXC43PT6QJE4MQJD", "current_trial": 83, "dateTime": 1512852897095, "trialdata": {"rt": -1, "stimulus": "<p id=\"stim\">5</p>", "key_press": -1, "trial_type": "single-stim", "trial_index": 83, "time_elapsed": 597887, "internal_node_id": "0.0-60.0-5.0"}}, {"uniqueid": "MTK0851:34X6J5FLPU5Z63RXC43PT6QJE4MQJD", "current_trial": 84, "dateTime": 1512852898097, "trialdata": {"rt": -1, "stimulus": "<p id=\"stim\">4</p>", "key_press": -1, "trial_type": "single-stim", "trial_index": 84, "time_elapsed": 598890, "internal_node_id": "0.0-60.0-6.0"}}, {"uniqueid": "MTK0851:34X6J5FLPU5Z63RXC43PT6QJE4MQJD", "current_trial": 85, "dateTime": 1512852899099, "trialdata": {"rt": -1, "stimulus": "<p id=\"stim\">3</p>", "key_press": -1, "trial_type": "single-stim", "trial_index": 85, "time_elapsed": 599892, "internal_node_id": "0.0-60.0-7.0"}}, {"uniqueid": "MTK0851:34X6J5FLPU5Z63RXC43PT6QJE4MQJD", "current_trial": 86, "dateTime": 1512852900101, "trialdata": {"rt": -1, "stimulus": "<p id=\"stim\">2</p>", "key_press": -1, "trial_type": "single-stim", "trial_index": 86, "time_elapsed": 600894, "internal_node_id": "0.0-60.0-8.0"}}, {"uniqueid": "MTK0851:34X6J5FLPU5Z63RXC43PT6QJE4MQJD", "current_trial": 87, "dateTime": 1512852901104, "trialdata": {"rt": -1, "stimulus": "<p id=\"stim\">1</p>", "key_press": -1, "trial_type": "single-stim", "trial_index": 87, "time_elapsed": 601897, "internal_node_id": "0.0-60.0-9.0"}}, {"uniqueid": "MTK0851:34X6J5FLPU5Z63RXC43PT6QJE4MQJD", "current_trial": 88, "dateTime": 1512852902606, "trialdata": {"rt": -1, "stimulus": "<p id=\"stim\">+</p>", "key_press": -1, "type": "FIXATION", "trial_type": "single-stim", "trial_index": 88, "time_elapsed": 603399, "internal_node_id": "0.0-61.0-0.0"}}, {"uniqueid": "MTK0851:34X6J5FLPU5Z63RXC43PT6QJE4MQJD", "current_trial": 89, "dateTime": 1512852903409, "trialdata": {"rt": -1, "stimulus": "<p id=\"stim\">ATOM</p>", "key_press": -1, "type": "PRES_VIS", "word": "atom", "wordID": 54, "conditions": [24, 800, "v", 24000], "trial": 2, "serialpos": 0, "trial_type": "single-stim", "trial_index": 89, "time_elapsed": 604202, "internal_node_id": "0.0-62.0"}}, {"uniqueid": "MTK0851:34X6J5FLPU5Z63RXC43PT6QJE4MQJD", "current_trial": 90, "dateTime": 1512852905345, "trialdata": {"rt": -1, "stimulus": "<p id=\"stim\">LEOPARD</p>", "key_press": -1, "type": "PRES_VIS", "word": "leopard", "wordID": 811, "conditions": [24, 800, "v", 24000], "trial": 2, "serialpos": 1, "trial_type": "single-stim", "trial_index": 90, "time_elapsed": 606138, "internal_node_id": "0.0-63.0"}}, {"uniqueid": "MTK0851:34X6J5FLPU5Z63RXC43PT6QJE4MQJD", "current_trial": 91, "dateTime": 1512852907081, "trialdata": {"rt": -1, "stimulus": "<p id=\"stim\">SWORD</p>", "key_press": -1, "type": "PRES_VIS", "word": "sword", "wordID": 1422, "conditions": [24, 800, "v", 24000], "trial": 2, "serialpos": 2, "trial_type": "single-stim", "trial_index": 91, "time_elapsed": 607873, "internal_node_id": "0.0-64.0"}}, {"uniqueid": "MTK0851:34X6J5FLPU5Z63RXC43PT6QJE4MQJD", "current_trial": 92, "dateTime": 1512852909055, "trialdata": {"rt": -1, "stimulus": "<p id=\"stim\">KNAPSACK</p>", "key_press": -1, "type": "PRES_VIS", "word": "knapsack", "wordID": 782, "conditions": [24, 800, "v", 24000], "trial": 2, "serialpos": 3, "trial_type": "single-stim", "trial_index": 92, "time_elapsed": 609848, "internal_node_id": "0.0-65.0"}}, {"uniqueid": "MTK0851:34X6J5FLPU5Z63RXC43PT6QJE4MQJD", "current_trial": 93, "dateTime": 1512852910896, "trialdata": {"rt": -1, "stimulus": "<p id=\"stim\">BRIEFCASE</p>", "key_press": -1, "type": "PRES_VIS", "word": "briefcase", "wordID": 174, "conditions": [24, 800, "v", 24000], "trial": 2, "serialpos": 4, "trial_type": "single-stim", "trial_index": 93, "time_elapsed": 611689, "internal_node_id": "0.0-66.0"}}, {"uniqueid": "MTK0851:34X6J5FLPU5Z63RXC43PT6QJE4MQJD", "current_trial": 94, "dateTime": 1512852912865, "trialdata": {"rt": -1, "stimulus": "<p id=\"stim\">WASP</p>", "key_press": -1, "type": "PRES_VIS", "word": "wasp", "wordID": 1592, "conditions": [24, 800, "v", 24000], "trial": 2, "serialpos": 5, "trial_type": "single-stim", "trial_index": 94, "time_elapsed": 613658, "internal_node_id": "0.0-67.0"}}, {"uniqueid": "MTK0851:34X6J5FLPU5Z63RXC43PT6QJE4MQJD", "current_trial": 95, "dateTime": 1512852914742, "trialdata": {"rt": -1, "stimulus": "<p id=\"stim\">FOOT</p>", "key_press": -1, "type": "PRES_VIS", "word": "foot", "wordID": 589, "conditions": [24, 800, "v", 24000], "trial": 2, "serialpos": 6, "trial_type": "single-stim", "trial_index": 95, "time_elapsed": 615534, "internal_node_id": "0.0-68.0"}}, {"uniqueid": "MTK0851:34X6J5FLPU5Z63RXC43PT6QJE4MQJD", "current_trial": 96, "dateTime": 1512852916381, "trialdata": {"rt": -1, "stimulus": "<p id=\"stim\">GARDEN</p>", "key_press": -1, "type": "PRES_VIS", "word": "garden", "wordID": 622, "conditions": [24, 800, "v", 24000], "trial": 2, "serialpos": 7, "trial_type": "single-stim", "trial_index": 96, "time_elapsed": 617174, "internal_node_id": "0.0-69.0"}}, {"uniqueid": "MTK0851:34X6J5FLPU5Z63RXC43PT6QJE4MQJD", "current_trial": 97, "dateTime": 1512852918365, "trialdata": {"rt": -1, "stimulus": "<p id=\"stim\">PANTHER</p>", "key_press": -1, "type": "PRES_VIS", "word": "panther", "wordID": 1008, "conditions": [24, 800, "v", 24000], "trial": 2, "serialpos": 8, "trial_type": "single-stim", "trial_index": 97, "time_elapsed": 619158, "internal_node_id": "0.0-70.0"}}, {"uniqueid": "MTK0851:34X6J5FLPU5Z63RXC43PT6QJE4MQJD", "current_trial": 98, "dateTime": 1512852920229, "trialdata": {"rt": -1, "stimulus": "<p id=\"stim\">BIKE</p>", "key_press": -1, "type": "PRES_VIS", "word": "bike", "wordID": 124, "conditions": [24, 800, "v", 24000], "trial": 2, "serialpos": 9, "trial_type": "single-stim", "trial_index": 98, "time_elapsed": 621022, "internal_node_id": "0.0-71.0"}}, {"uniqueid": "MTK0851:34X6J5FLPU5Z63RXC43PT6QJE4MQJD", "current_trial": 99, "dateTime": 1512852921942, "trialdata": {"rt": -1, "stimulus": "<p id=\"stim\">PICNIC</p>", "key_press": -1, "type": "PRES_VIS", "word": "picnic", "wordID": 1059, "conditions": [24, 800, "v", 24000], "trial": 2, "serialpos": 10, "trial_type": "single-stim", "trial_index": 99, "time_elapsed": 622735, "internal_node_id": "0.0-72.0"}}, {"uniqueid": "MTK0851:34X6J5FLPU5Z63RXC43PT6QJE4MQJD", "current_trial": 100, "dateTime": 1512852923661, "trialdata": {"rt": -1, "stimulus": "<p id=\"stim\">FEMALE</p>", "key_press": -1, "type": "PRES_VIS", "word": "female", "wordID": 558, "conditions": [24, 800, "v", 24000], "trial": 2, "serialpos": 11, "trial_type": "single-stim", "trial_index": 100, "time_elapsed": 624454, "internal_node_id": "0.0-73.0"}}, {"uniqueid": "MTK0851:34X6J5FLPU5Z63RXC43PT6QJE4MQJD", "current_trial": 101, "dateTime": 1512852925594, "trialdata": {"rt": -1, "stimulus": "<p id=\"stim\">ROBIN</p>", "key_press": -1, "type": "PRES_VIS", "word": "robin", "wordID": 1198, "conditions": [24, 800, "v", 24000], "trial": 2, "serialpos": 12, "trial_type": "single-stim", "trial_index": 101, "time_elapsed": 626387, "internal_node_id": "0.0-74.0"}}, {"uniqueid": "MTK0851:34X6J5FLPU5Z63RXC43PT6QJE4MQJD", "current_trial": 102, "dateTime": 1512852927412, "trialdata": {"rt": -1, "stimulus": "<p id=\"stim\">TUBA</p>", "key_press": -1, "type": "PRES_VIS", "word": "tuba", "wordID": 1514, "conditions": [24, 800, "v", 24000], "trial": 2, "serialpos": 13, "trial_type": "single-stim", "trial_index": 102, "time_elapsed": 628204, "internal_node_id": "0.0-75.0"}}, {"uniqueid": "MTK0851:34X6J5FLPU5Z63RXC43PT6QJE4MQJD", "current_trial": 103, "dateTime": 1512852929396, "trialdata": {"rt": -1, "stimulus": "<p id=\"stim\">GUITAR</p>", "key_press": -1, "type": "PRES_VIS", "word": "guitar", "wordID": 669, "conditions": [24, 800, "v", 24000], "trial": 2, "serialpos": 14, "trial_type": "single-stim", "trial_index": 103, "time_elapsed": 630188, "internal_node_id": "0.0-76.0"}}, {"uniqueid": "MTK0851:34X6J5FLPU5Z63RXC43PT6QJE4MQJD", "current_trial": 104, "dateTime": 1512852931374, "trialdata": {"rt": -1, "stimulus": "<p id=\"stim\">SCARECROW</p>", "key_press": -1, "type": "PRES_VIS", "word": "scarecrow", "wordID": 1244, "conditions": [24, 800, "v", 24000], "trial": 2, "serialpos": 15, "trial_type": "single-stim", "trial_index": 104, "time_elapsed": 632167, "internal_node_id": "0.0-77.0"}}, {"uniqueid": "MTK0851:34X6J5FLPU5Z63RXC43PT6QJE4MQJD", "current_trial": 105, "dateTime": 1512852933029, "trialdata": {"rt": -1, "stimulus": "<p id=\"stim\">FLASK</p>", "key_press": -1, "type": "PRES_VIS", "word": "flask", "wordID": 575, "conditions": [24, 800, "v", 24000], "trial": 2, "serialpos": 16, "trial_type": "single-stim", "trial_index": 105, "time_elapsed": 633821, "internal_node_id": "0.0-78.0"}}, {"uniqueid": "MTK0851:34X6J5FLPU5Z63RXC43PT6QJE4MQJD", "current_trial": 106, "dateTime": 1512852934683, "trialdata": {"rt": -1, "stimulus": "<p id=\"stim\">CHIPMUNK</p>", "key_press": -1, "type": "PRES_VIS", "word": "chipmunk", "wordID": 303, "conditions": [24, 800, "v", 24000], "trial": 2, "serialpos": 17, "trial_type": "single-stim", "trial_index": 106, "time_elapsed": 635476, "internal_node_id": "0.0-79.0"}}, {"uniqueid": "MTK0851:34X6J5FLPU5Z63RXC43PT6QJE4MQJD", "current_trial": 107, "dateTime": 1512852936342, "trialdata": {"rt": -1, "stimulus": "<p id=\"stim\">PARENT</p>", "key_press": -1, "type": "PRES_VIS", "word": "parent", "wordID": 1012, "conditions": [24, 800, "v", 24000], "trial": 2, "serialpos": 18, "trial_type": "single-stim", "trial_index": 107, "time_elapsed": 637135, "internal_node_id": "0.0-80.0"}}, {"uniqueid": "MTK0851:34X6J5FLPU5Z63RXC43PT6QJE4MQJD", "current_trial": 108, "dateTime": 1512852938090, "trialdata": {"rt": -1, "stimulus": "<p id=\"stim\">SPARROW</p>", "key_press": -1, "type": "PRES_VIS", "word": "sparrow", "wordID": 1346, "conditions": [24, 800, "v", 24000], "trial": 2, "serialpos": 19, "trial_type": "single-stim", "trial_index": 108, "time_elapsed": 638883, "internal_node_id": "0.0-81.0"}}, {"uniqueid": "MTK0851:34X6J5FLPU5Z63RXC43PT6QJE4MQJD", "current_trial": 109, "dateTime": 1512852939862, "trialdata": {"rt": -1, "stimulus": "<p id=\"stim\">UMPIRE</p>", "key_press": -1, "type": "PRES_VIS", "word": "umpire", "wordID": 1534, "conditions": [24, 800, "v", 24000], "trial": 2, "serialpos": 20, "trial_type": "single-stim", "trial_index": 109, "time_elapsed": 640654, "internal_node_id": "0.0-82.0"}}, {"uniqueid": "MTK0851:34X6J5FLPU5Z63RXC43PT6QJE4MQJD", "current_trial": 110, "dateTime": 1512852941721, "trialdata": {"rt": -1, "stimulus": "<p id=\"stim\">PLAYGROUND</p>", "key_press": -1, "type": "PRES_VIS", "word": "playground", "wordID": 1086, "conditions": [24, 800, "v", 24000], "trial": 2, "serialpos": 21, "trial_type": "single-stim", "trial_index": 110, "time_elapsed": 642513, "internal_node_id": "0.0-83.0"}}, {"uniqueid": "MTK0851:34X6J5FLPU5Z63RXC43PT6QJE4MQJD", "current_trial": 111, "dateTime": 1512852943439, "trialdata": {"rt": -1, "stimulus": "<p id=\"stim\">CLAM</p>", "key_press": -1, "type": "PRES_VIS", "word": "clam", "wordID": 314, "conditions": [24, 800, "v", 24000], "trial": 2, "serialpos": 22, "trial_type": "single-stim", "trial_index": 111, "time_elapsed": 644232, "internal_node_id": "0.0-84.0"}}, {"uniqueid": "MTK0851:34X6J5FLPU5Z63RXC43PT6QJE4MQJD", "current_trial": 112, "dateTime": 1512852945407, "trialdata": {"rt": -1, "stimulus": "<p id=\"stim\">PLATE</p>", "key_press": -1, "type": "PRES_VIS", "word": "plate", "wordID": 1085, "conditions": [24, 800, "v", 24000], "trial": 2, "serialpos": 23, "trial_type": "single-stim", "trial_index": 112, "time_elapsed": 646200, "internal_node_id": "0.0-85.0"}}, {"uniqueid": "MTK0851:34X6J5FLPU5Z63RXC43PT6QJE4MQJD", "current_trial": 113, "dateTime": 1512852947605, "trialdata": {"rt": -1, "stimulus": "", "key_press": -1, "type": "PRE_RECALL_DELAY", "trial_type": "single-stim", "trial_index": 113, "time_elapsed": 648398, "internal_node_id": "0.0-86.0-0.0"}}, {"uniqueid": "MTK0851:34X6J5FLPU5Z63RXC43PT6QJE4MQJD", "current_trial": 114, "dateTime": 1512852948109, "trialdata": {"rt": -1000, "stimulus": "/static/audio/400Hz.wav", "key_press": -1, "type": "PRE_RECALL_ALERT", "trial_type": "single-audio", "trial_index": 114, "time_elapsed": 648902, "internal_node_id": "0.0-87.0"}}, {"uniqueid": "MTK0851:34X6J5FLPU5Z63RXC43PT6QJE4MQJD", "current_trial": 115, "dateTime": 1512853008114, "trialdata": {"rt": [4429, 6588, 9457, 12802, 19906, 21705, 25692, 27833, 35255, 40918, 43300, 46034], "recwords": ["plate", "clam", "umpire", "playground", "sparrow", "female", "picnic", "bike", "chipmunk", "plate", "female", "flash"], "type": "FREE_RECALL", "conditions": [24, 800, "v", 24000], "trial": 2, "trial_type": "free-recall", "trial_index": 115, "time_elapsed": 708905, "internal_node_id": "0.0-88.0-0.0"}}, {"uniqueid": "MTK0851:34X6J5FLPU5Z63RXC43PT6QJE4MQJD", "current_trial": 116, "dateTime": 1512853074947, "trialdata": {"rt": 64830, "key_press": 32, "type": "INSTRUCTIONS", "trial_type": "text", "trial_index": 116, "time_elapsed": 775740, "internal_node_id": "0.0-89.0"}}, {"uniqueid": "MTK0851:34X6J5FLPU5Z63RXC43PT6QJE4MQJD", "current_trial": 117, "dateTime": 1512853100952, "trialdata": {"rt": [3650, 6317, 9441, 11543, 13796, 16063, 18909, 21702], "responses": ["15", "16", "20", "9", "12", "19", "21", "21"], "num1": [7, 5, 9, 3, 5, 6, 4, 5, 5], "num2": [7, 7, 2, 2, 4, 4, 9, 9, 1], "num3": [1, 4, 9, 4, 3, 9, 8, 7, 5], "type": "DISTRACTOR", "conditions": [24, 800, "a", 24000], "trial": 3, "trial_type": "math-distractor", "trial_index": 117, "time_elapsed": 801745, "internal_node_id": "0.0-90.0"}}, {"uniqueid": "MTK0851:34X6J5FLPU5Z63RXC43PT6QJE4MQJD", "current_trial": 118, "dateTime": 1512853103955, "trialdata": {"rt": -1, "stimulus": "<p id=\"stim\">10</p>", "key_press": -1, "trial_type": "single-stim", "trial_index": 118, "time_elapsed": 804748, "internal_node_id": "0.0-91.0-0.0"}}, {"uniqueid": "MTK0851:34X6J5FLPU5Z63RXC43PT6QJE4MQJD", "current_trial": 119, "dateTime": 1512853104958, "trialdata": {"rt": -1, "stimulus": "<p id=\"stim\">9</p>", "key_press": -1, "trial_type": "single-stim", "trial_index": 119, "time_elapsed": 805751, "internal_node_id": "0.0-91.0-1.0"}}, {"uniqueid": "MTK0851:34X6J5FLPU5Z63RXC43PT6QJE4MQJD", "current_trial": 120, "dateTime": 1512853105960, "trialdata": {"rt": -1, "stimulus": "<p id=\"stim\">8</p>", "key_press": -1, "trial_type": "single-stim", "trial_index": 120, "time_elapsed": 806752, "internal_node_id": "0.0-91.0-2.0"}}, {"uniqueid": "MTK0851:34X6J5FLPU5Z63RXC43PT6QJE4MQJD", "current_trial": 121, "dateTime": 1512853106963, "trialdata": {"rt": -1, "stimulus": "<p id=\"stim\">7</p>", "key_press": -1, "trial_type": "single-stim", "trial_index": 121, "time_elapsed": 807756, "internal_node_id": "0.0-91.0-3.0"}}, {"uniqueid": "MTK0851:34X6J5FLPU5Z63RXC43PT6QJE4MQJD", "current_trial": 122, "dateTime": 1512853107965, "trialdata": {"rt": -1, "stimulus": "<p id=\"stim\">6</p>", "key_press": -1, "trial_type": "single-stim", "trial_index": 122, "time_elapsed": 808758, "internal_node_id": "0.0-91.0-4.0"}}, {"uniqueid": "MTK0851:34X6J5FLPU5Z63RXC43PT6QJE4MQJD", "current_trial": 123, "dateTime": 1512853108968, "trialdata": {"rt": -1, "stimulus": "<p id=\"stim\">5</p>", "key_press": -1, "trial_type": "single-stim", "trial_index": 123, "time_elapsed": 809761, "internal_node_id": "0.0-91.0-5.0"}}, {"uniqueid": "MTK0851:34X6J5FLPU5Z63RXC43PT6QJE4MQJD", "current_trial": 124, "dateTime": 1512853109970, "trialdata": {"rt": -1, "stimulus": "<p id=\"stim\">4</p>", "key_press": -1, "trial_type": "single-stim", "trial_index": 124, "time_elapsed": 810763, "internal_node_id": "0.0-91.0-6.0"}}, {"uniqueid": "MTK0851:34X6J5FLPU5Z63RXC43PT6QJE4MQJD", "current_trial": 125, "dateTime": 1512853110973, "trialdata": {"rt": -1, "stimulus": "<p id=\"stim\">3</p>", "key_press": -1, "trial_type": "single-stim", "trial_index": 125, "time_elapsed": 811765, "internal_node_id": "0.0-91.0-7.0"}}, {"uniqueid": "MTK0851:34X6J5FLPU5Z63RXC43PT6QJE4MQJD", "current_trial": 126, "dateTime": 1512853111974, "trialdata": {"rt": -1, "stimulus": "<p id=\"stim\">2</p>", "key_press": -1, "trial_type": "single-stim", "trial_index": 126, "time_elapsed": 812767, "internal_node_id": "0.0-91.0-8.0"}}, {"uniqueid": "MTK0851:34X6J5FLPU5Z63RXC43PT6QJE4MQJD", "current_trial": 127, "dateTime": 1512853112977, "trialdata": {"rt": -1, "stimulus": "<p id=\"stim\">1</p>", "key_press": -1, "trial_type": "single-stim", "trial_index": 127, "time_elapsed": 813770, "internal_node_id": "0.0-91.0-9.0"}}, {"uniqueid": "MTK0851:34X6J5FLPU5Z63RXC43PT6QJE4MQJD", "current_trial": 128, "dateTime": 1512853114479, "trialdata": {"rt": -1, "stimulus": "<p id=\"stim\">+</p>", "key_press": -1, "type": "FIXATION", "trial_type": "single-stim", "trial_index": 128, "time_elapsed": 815272, "internal_node_id": "0.0-92.0-0.0"}}, {"uniqueid": "MTK0851:34X6J5FLPU5Z63RXC43PT6QJE4MQJD", "current_trial": 129, "dateTime": 1512853116242, "trialdata": {"rt": -1000, "stimulus": "/static/audio/wordpool/CRAB.wav", "key_press": -1, "type": "PRES_AUD", "word": "crab", "wordID": 396, "conditions": [24, 800, "a", 24000], "trial": 3, "serialpos": 0, "trial_type": "single-audio", "trial_index": 129, "time_elapsed": 817035, "internal_node_id": "0.0-93.0"}}, {"uniqueid": "MTK0851:34X6J5FLPU5Z63RXC43PT6QJE4MQJD", "current_trial": 130, "dateTime": 1512853117849, "trialdata": {"rt": -1000, "stimulus": "/static/audio/wordpool/SUNRISE.wav", "key_press": -1, "type": "PRES_AUD", "word": "sunrise", "wordID": 1406, "conditions": [24, 800, "a", 24000], "trial": 3, "serialpos": 1, "trial_type": "single-audio", "trial_index": 130, "time_elapsed": 818642, "internal_node_id": "0.0-94.0"}}, {"uniqueid": "MTK0851:34X6J5FLPU5Z63RXC43PT6QJE4MQJD", "current_trial": 131, "dateTime": 1512853119801, "trialdata": {"rt": -1000, "stimulus": "/static/audio/wordpool/FLUTE.wav", "key_press": -1, "type": "PRES_AUD", "word": "flute", "wordID": 584, "conditions": [24, 800, "a", 24000], "trial": 3, "serialpos": 2, "trial_type": "single-audio", "trial_index": 131, "time_elapsed": 820594, "internal_node_id": "0.0-95.0"}}, {"uniqueid": "MTK0851:34X6J5FLPU5Z63RXC43PT6QJE4MQJD", "current_trial": 132, "dateTime": 1512853121489, "trialdata": {"rt": -1000, "stimulus": "/static/audio/wordpool/TROMBONE.wav", "key_press": -1, "type": "PRES_AUD", "word": "trombone", "wordID": 1507, "conditions": [24, 800, "a", 24000], "trial": 3, "serialpos": 3, "trial_type": "single-audio", "trial_index": 132, "time_elapsed": 822281, "internal_node_id": "0.0-96.0"}}, {"uniqueid": "MTK0851:34X6J5FLPU5Z63RXC43PT6QJE4MQJD", "current_trial": 133, "dateTime": 1512853123155, "trialdata": {"rt": -1000, "stimulus": "/static/audio/wordpool/RAZOR.wav", "key_press": -1, "type": "PRES_AUD", "word": "razor", "wordID": 1170, "conditions": [24, 800, "a", 24000], "trial": 3, "serialpos": 4, "trial_type": "single-audio", "trial_index": 133, "time_elapsed": 823947, "internal_node_id": "0.0-97.0"}}, {"uniqueid": "MTK0851:34X6J5FLPU5Z63RXC43PT6QJE4MQJD", "current_trial": 134, "dateTime": 1512853124800, "trialdata": {"rt": -1000, "stimulus": "/static/audio/wordpool/ONION.wav", "key_press": -1, "type": "PRES_AUD", "word": "onion", "wordID": 976, "conditions": [24, 800, "a", 24000], "trial": 3, "serialpos": 5, "trial_type": "single-audio", "trial_index": 134, "time_elapsed": 825592, "internal_node_id": "0.0-98.0"}}, {"uniqueid": "MTK0851:34X6J5FLPU5Z63RXC43PT6QJE4MQJD", "current_trial": 135, "dateTime": 1512853126428, "trialdata": {"rt": -1000, "stimulus": "/static/audio/wordpool/SPOUSE.wav", "key_press": -1, "type": "PRES_AUD", "word": "spouse", "wordID": 1357, "conditions": [24, 800, "a", 24000], "trial": 3, "serialpos": 6, "trial_type": "single-audio", "trial_index": 135, "time_elapsed": 827221, "internal_node_id": "0.0-99.0"}}, {"uniqueid": "MTK0851:34X6J5FLPU5Z63RXC43PT6QJE4MQJD", "current_trial": 136, "dateTime": 1512853128367, "trialdata": {"rt": -1000, "stimulus": "/static/audio/wordpool/IGLOO.wav", "key_press": -1, "type": "PRES_AUD", "word": "igloo", "wordID": 733, "conditions": [24, 800, "a", 24000], "trial": 3, "serialpos": 7, "trial_type": "single-audio", "trial_index": 136, "time_elapsed": 829159, "internal_node_id": "0.0-100.0"}}, {"uniqueid": "MTK0851:34X6J5FLPU5Z63RXC43PT6QJE4MQJD", "current_trial": 137, "dateTime": 1512853130005, "trialdata": {"rt": -1000, "stimulus": "/static/audio/wordpool/SHORTCAKE.wav", "key_press": -1, "type": "PRES_AUD", "word": "shortcake", "wordID": 1291, "conditions": [24, 800, "a", 24000], "trial": 3, "serialpos": 8, "trial_type": "single-audio", "trial_index": 137, "time_elapsed": 830798, "internal_node_id": "0.0-101.0"}}, {"uniqueid": "MTK0851:34X6J5FLPU5Z63RXC43PT6QJE4MQJD", "current_trial": 138, "dateTime": 1512853131766, "trialdata": {"rt": -1000, "stimulus": "/static/audio/wordpool/MUSTARD.wav", "key_press": -1, "type": "PRES_AUD", "word": "mustard", "wordID": 934, "conditions": [24, 800, "a", 24000], "trial": 3, "serialpos": 9, "trial_type": "single-audio", "trial_index": 138, "time_elapsed": 832559, "internal_node_id": "0.0-102.0"}}, {"uniqueid": "MTK0851:34X6J5FLPU5Z63RXC43PT6QJE4MQJD", "current_trial": 139, "dateTime": 1512853133590, "trialdata": {"rt": -1000, "stimulus": "/static/audio/wordpool/HUSBAND.wav", "key_press": -1, "type": "PRES_AUD", "word": "husband", "wordID": 727, "conditions": [24, 800, "a", 24000], "trial": 3, "serialpos": 10, "trial_type": "single-audio", "trial_index": 139, "time_elapsed": 834383, "internal_node_id": "0.0-103.0"}}, {"uniqueid": "MTK0851:34X6J5FLPU5Z63RXC43PT6QJE4MQJD", "current_trial": 140, "dateTime": 1512853135256, "trialdata": {"rt": -1000, "stimulus": "/static/audio/wordpool/BEEF.wav", "key_press": -1, "type": "PRES_AUD", "word": "beef", "wordID": 112, "conditions": [24, 800, "a", 24000], "trial": 3, "serialpos": 11, "trial_type": "single-audio", "trial_index": 140, "time_elapsed": 836049, "internal_node_id": "0.0-104.0"}}, {"uniqueid": "MTK0851:34X6J5FLPU5Z63RXC43PT6QJE4MQJD", "current_trial": 141, "dateTime": 1512853137115, "trialdata": {"rt": -1000, "stimulus": "/static/audio/wordpool/MAMMAL.wav", "key_press": -1, "type": "PRES_AUD", "word": "mammal", "wordID": 860, "conditions": [24, 800, "a", 24000], "trial": 3, "serialpos": 12, "trial_type": "single-audio", "trial_index": 141, "time_elapsed": 837908, "internal_node_id": "0.0-105.0"}}, {"uniqueid": "MTK0851:34X6J5FLPU5Z63RXC43PT6QJE4MQJD", "current_trial": 142, "dateTime": 1512853138744, "trialdata": {"rt": -1000, "stimulus": "/static/audio/wordpool/LIVER.wav", "key_press": -1, "type": "PRES_AUD", "word": "liver", "wordID": 832, "conditions": [24, 800, "a", 24000], "trial": 3, "serialpos": 13, "trial_type": "single-audio", "trial_index": 142, "time_elapsed": 839537, "internal_node_id": "0.0-106.0"}}, {"uniqueid": "MTK0851:34X6J5FLPU5Z63RXC43PT6QJE4MQJD", "current_trial": 143, "dateTime": 1512853140729, "trialdata": {"rt": -1000, "stimulus": "/static/audio/wordpool/MARROW.wav", "key_press": -1, "type": "PRES_AUD", "word": "marrow", "wordID": 871, "conditions": [24, 800, "a", 24000], "trial": 3, "serialpos": 14, "trial_type": "single-audio", "trial_index": 143, "time_elapsed": 841522, "internal_node_id": "0.0-107.0"}}, {"uniqueid": "MTK0851:34X6J5FLPU5Z63RXC43PT6QJE4MQJD", "current_trial": 144, "dateTime": 1512853142437, "trialdata": {"rt": -1000, "stimulus": "/static/audio/wordpool/CIGAR.wav", "key_press": -1, "type": "PRES_AUD", "word": "cigar", "wordID": 307, "conditions": [24, 800, "a", 24000], "trial": 3, "serialpos": 15, "trial_type": "single-audio", "trial_index": 144, "time_elapsed": 843230, "internal_node_id": "0.0-108.0"}}, {"uniqueid": "MTK0851:34X6J5FLPU5Z63RXC43PT6QJE4MQJD", "current_trial": 145, "dateTime": 1512853144403, "trialdata": {"rt": -1000, "stimulus": "/static/audio/wordpool/VICTIM.wav", "key_press": -1, "type": "PRES_AUD", "word": "victim", "wordID": 1561, "conditions": [24, 800, "a", 24000], "trial": 3, "serialpos": 16, "trial_type": "single-audio", "trial_index": 145, "time_elapsed": 845196, "internal_node_id": "0.0-109.0"}}, {"uniqueid": "MTK0851:34X6J5FLPU5Z63RXC43PT6QJE4MQJD", "current_trial": 146, "dateTime": 1512853146016, "trialdata": {"rt": -1000, "stimulus": "/static/audio/wordpool/TEACHER.wav", "key_press": -1, "type": "PRES_AUD", "word": "teacher", "wordID": 1439, "conditions": [24, 800, "a", 24000], "trial": 3, "serialpos": 17, "trial_type": "single-audio", "trial_index": 146, "time_elapsed": 846808, "internal_node_id": "0.0-110.0"}}, {"uniqueid": "MTK0851:34X6J5FLPU5Z63RXC43PT6QJE4MQJD", "current_trial": 147, "dateTime": 1512853147710, "trialdata": {"rt": -1000, "stimulus": "/static/audio/wordpool/POSTAGE.wav", "key_press": -1, "type": "PRES_AUD", "word": "postage", "wordID": 1112, "conditions": [24, 800, "a", 24000], "trial": 3, "serialpos": 18, "trial_type": "single-audio", "trial_index": 147, "time_elapsed": 848503, "internal_node_id": "0.0-111.0"}}, {"uniqueid": "MTK0851:34X6J5FLPU5Z63RXC43PT6QJE4MQJD", "current_trial": 148, "dateTime": 1512853149345, "trialdata": {"rt": -1000, "stimulus": "/static/audio/wordpool/COWBOY.wav", "key_press": -1, "type": "PRES_AUD", "word": "cowboy", "wordID": 394, "conditions": [24, 800, "a", 24000], "trial": 3, "serialpos": 19, "trial_type": "single-audio", "trial_index": 148, "time_elapsed": 850138, "internal_node_id": "0.0-112.0"}}, {"uniqueid": "MTK0851:34X6J5FLPU5Z63RXC43PT6QJE4MQJD", "current_trial": 149, "dateTime": 1512853150958, "trialdata": {"rt": -1000, "stimulus": "/static/audio/wordpool/GOBLIN.wav", "key_press": -1, "type": "PRES_AUD", "word": "goblin", "wordID": 644, "conditions": [24, 800, "a", 24000], "trial": 3, "serialpos": 20, "trial_type": "single-audio", "trial_index": 149, "time_elapsed": 851750, "internal_node_id": "0.0-113.0"}}, {"uniqueid": "MTK0851:34X6J5FLPU5Z63RXC43PT6QJE4MQJD", "current_trial": 150, "dateTime": 1512853152631, "trialdata": {"rt": -1000, "stimulus": "/static/audio/wordpool/SCOTCH.wav", "key_press": -1, "type": "PRES_AUD", "word": "scotch", "wordID": 1250, "conditions": [24, 800, "a", 24000], "trial": 3, "serialpos": 21, "trial_type": "single-audio", "trial_index": 150, "time_elapsed": 853423, "internal_node_id": "0.0-114.0"}}, {"uniqueid": "MTK0851:34X6J5FLPU5Z63RXC43PT6QJE4MQJD", "current_trial": 151, "dateTime": 1512853154260, "trialdata": {"rt": -1000, "stimulus": "/static/audio/wordpool/DORM.wav", "key_press": -1, "type": "PRES_AUD", "word": "dorm", "wordID": 487, "conditions": [24, 800, "a", 24000], "trial": 3, "serialpos": 22, "trial_type": "single-audio", "trial_index": 151, "time_elapsed": 855053, "internal_node_id": "0.0-115.0"}}, {"uniqueid": "MTK0851:34X6J5FLPU5Z63RXC43PT6QJE4MQJD", "current_trial": 152, "dateTime": 1512853156041, "trialdata": {"rt": -1000, "stimulus": "/static/audio/wordpool/PRIMATE.wav", "key_press": -1, "type": "PRES_AUD", "word": "primate", "wordID": 1122, "conditions": [24, 800, "a", 24000], "trial": 3, "serialpos": 23, "trial_type": "single-audio", "trial_index": 152, "time_elapsed": 856834, "internal_node_id": "0.0-116.0"}}, {"uniqueid": "MTK0851:34X6J5FLPU5Z63RXC43PT6QJE4MQJD", "current_trial": 153, "dateTime": 1512853157325, "trialdata": {"rt": -1, "stimulus": "", "key_press": -1, "type": "PRE_RECALL_DELAY", "trial_type": "single-stim", "trial_index": 153, "time_elapsed": 858118, "internal_node_id": "0.0-117.0-0.0"}}, {"uniqueid": "MTK0851:34X6J5FLPU5Z63RXC43PT6QJE4MQJD", "current_trial": 154, "dateTime": 1512853157827, "trialdata": {"rt": -1000, "stimulus": "/static/audio/400Hz.wav", "key_press": -1, "type": "PRE_RECALL_ALERT", "trial_type": "single-audio", "trial_index": 154, "time_elapsed": 858620, "internal_node_id": "0.0-118.0"}}, {"uniqueid": "MTK0851:34X6J5FLPU5Z63RXC43PT6QJE4MQJD", "current_trial": 155, "dateTime": 1512853217837, "trialdata": {"rt": [4411, 5978, 9428, 12128, 14437, 17224, 20373, 24457, 29415, 31905, 41946], "recwords": ["primate", "dorm", "cowboy", "marro", "beef", "mustard", "spouse", "husband", "victim", "teacher", "cowboy"], "type": "FREE_RECALL", "conditions": [24, 800, "a", 24000], "trial": 3, "trial_type": "free-recall", "trial_index": 155, "time_elapsed": 918625, "internal_node_id": "0.0-119.0-0.0"}}], "questiondata": {}, "eventdata": [{"eventtype": "initialized", "value": null, "timestamp": 1512852279806, "interval": 0}, {"eventtype": "window_resize", "value": [1366, 721], "timestamp": 1512852279806, "interval": 0}, {"eventtype": "focus", "value": "off", "timestamp": 1512852319865, "interval": 40059}, {"eventtype": "focus", "value": "on", "timestamp": 1512852327451, "interval": 7586}, {"eventtype": "focus", "value": "off", "timestamp": 1512852369694, "interval": 42243}, {"eventtype": "focus", "value": "on", "timestamp": 1512852374966, "interval": 5272}, {"eventtype": "focus", "value": "off", "timestamp": 1512852394170, "interval": 19204}, {"eventtype": "focus", "value": "on", "timestamp": 1512852394170, "interval": 0}, {"eventtype": "focus", "value": "off", "timestamp": 1512852416706, "interval": 22536}, {"eventtype": "focus", "value": "on", "timestamp": 1512852416707, "interval": 1}, {"eventtype": "focus", "value": "off", "timestamp": 1512852420740, "interval": 4033}, {"eventtype": "focus", "value": "on", "timestamp": 1512852426905, "interval": 6165}, {"eventtype": "focus", "value": "off", "timestamp": 1512852438924, "interval": 12019}, {"eventtype": "focus", "value": "on", "timestamp": 1512852438925, "interval": 1}, {"eventtype": "focus", "value": "off", "timestamp": 1512852682674, "interval": 243749}, {"eventtype": "focus", "value": "on", "timestamp": 1512852701441, "interval": 18767}], "useragent": "Mozilla/5.0 (Windows NT 10.0; Win64; x64) AppleWebKit/537.36 (KHTML, like Gecko) Chrome/62.0.3202.94 Safari/537.36", "mode": "live", "status": "user data saved"}