{"condition": 0, "counterbalance": 2237, "assignmentId": "30ZX6P7VF92IEKPCATDOXOSGYTQ2JJ", "workerId": "MTK0716", "hitId": "3PZDSVZ3J5OMD4XQ33J2UQABBNHN4V", "currenttrial": 116, "bonus": 0, "data": [{"uniqueid": "MTK0716:30ZX6P7VF92IEKPCATDOXOSGYTQ2JJ", "current_trial": 0, "dateTime": 1512676609043, "trialdata": {"rt": 5989, "key_press": 75, "type": "INSTRUCTIONS", "trial_type": "text", "trial_index": 0, "time_elapsed": 5991, "internal_node_id": "0.0-0.0"}}, {"uniqueid": "MTK0716:30ZX6P7VF92IEKPCATDOXOSGYTQ2JJ", "current_trial": 1, "dateTime": 1512676673348, "trialdata": {"rt": 64303, "key_press": 13, "type": "INSTRUCTIONS", "trial_type": "text", "trial_index": 1, "time_elapsed": 70296, "internal_node_id": "0.0-1.0"}}, {"uniqueid": "MTK0716:30ZX6P7VF92IEKPCATDOXOSGYTQ2JJ", "current_trial": 2, "dateTime": 1512676682169, "trialdata": {"rt": [8815], "responses": ["ocean"], "type": "AUDIO_TEST", "trial_type": "audio-test", "trial_index": 2, "time_elapsed": 79117, "internal_node_id": "0.0-2.0"}}, {"uniqueid": "MTK0716:30ZX6P7VF92IEKPCATDOXOSGYTQ2JJ", "current_trial": 3, "dateTime": 1512676736004, "trialdata": {"rt": [53832], "responses": ["crystal"], "type": "AUDIO_TEST", "trial_type": "audio-test", "trial_index": 3, "time_elapsed": 132952, "internal_node_id": "0.0-3.0"}}, {"uniqueid": "MTK0716:30ZX6P7VF92IEKPCATDOXOSGYTQ2JJ", "current_trial": 4, "dateTime": 1512676744299, "trialdata": {"rt": [8292], "responses": ["spice"], "type": "AUDIO_TEST", "trial_type": "audio-test", "trial_index": 4, "time_elapsed": 141247, "internal_node_id": "0.0-4.0"}}, {"uniqueid": "MTK0716:30ZX6P7VF92IEKPCATDOXOSGYTQ2JJ", "current_trial": 5, "dateTime": 1512676774633, "trialdata": {"rt": 29581, "responses": "{\"Q0\":\"8:45\",\"Q1\":\"6:30\",\"Q2\":\"8\"}", "type": "SLEEP_SURVEY", "trial_type": "survey-text", "trial_index": 5, "time_elapsed": 171581, "internal_node_id": "0.0-5.0"}}, {"uniqueid": "MTK0716:30ZX6P7VF92IEKPCATDOXOSGYTQ2JJ", "current_trial": 6, "dateTime": 1512677089782, "trialdata": {"rt": 314145, "key_press": 74, "type": "INSTRUCTIONS", "trial_type": "text", "trial_index": 6, "time_elapsed": 486730, "internal_node_id": "0.0-6.0"}}, {"uniqueid": "MTK0716:30ZX6P7VF92IEKPCATDOXOSGYTQ2JJ", "current_trial": 7, "dateTime": 1512677119378, "trialdata": {"rt": 29092, "key_press": 74, "type": "INSTRUCTIONS", "trial_type": "text", "trial_index": 7, "time_elapsed": 516326, "internal_node_id": "0.0-7.0"}}, {"uniqueid": "MTK0716:30ZX6P7VF92IEKPCATDOXOSGYTQ2JJ", "current_trial": 8, "dateTime": 1512677136628, "trialdata": {"rt": 16749, "key_press": 74, "type": "INSTRUCTIONS", "trial_type": "text", "trial_index": 8, "time_elapsed": 533576, "internal_node_id": "0.0-8.0"}}, {"uniqueid": "MTK0716:30ZX6P7VF92IEKPCATDOXOSGYTQ2JJ", "current_trial": 9, "dateTime": 1512677155638, "trialdata": {"rt": [4677, 7857, 11562, 13497, 15642, 17758], "responses": ["16", "11", "19", "9", "18", "15"], "num1": [8, 1, 4, 2, 6, 5, 1], "num2": [6, 6, 7, 1, 4, 1, 4], "num3": [2, 4, 8, 6, 8, 9, 2], "type": "DISTRACTOR", "conditions": [18, 1200, "a", 18000], "trial": 0, "trial_type": "math-distractor", "trial_index": 9, "time_elapsed": 552586, "internal_node_id": "0.0-9.0"}}, {"uniqueid": "MTK0716:30ZX6P7VF92IEKPCATDOXOSGYTQ2JJ", "current_trial": 10, "dateTime": 1512677158644, "trialdata": {"rt": -1, "stimulus": "<p id=\"stim\">10</p>", "key_press": -1, "trial_type": "single-stim", "trial_index": 10, "time_elapsed": 555592, "internal_node_id": "0.0-10.0-0.0"}}, {"uniqueid": "MTK0716:30ZX6P7VF92IEKPCATDOXOSGYTQ2JJ", "current_trial": 11, "dateTime": 1512677159648, "trialdata": {"rt": -1, "stimulus": "<p id=\"stim\">9</p>", "key_press": -1, "trial_type": "single-stim", "trial_index": 11, "time_elapsed": 556596, "internal_node_id": "0.0-10.0-1.0"}}, {"uniqueid": "MTK0716:30ZX6P7VF92IEKPCATDOXOSGYTQ2JJ", "current_trial": 12, "dateTime": 1512677160652, "trialdata": {"rt": -1, "stimulus": "<p id=\"stim\">8</p>", "key_press": -1, "trial_type": "single-stim", "trial_index": 12, "time_elapsed": 557600, "internal_node_id": "0.0-10.0-2.0"}}, {"uniqueid": "MTK0716:30ZX6P7VF92IEKPCATDOXOSGYTQ2JJ", "current_trial": 13, "dateTime": 1512677161656, "trialdata": {"rt": -1, "stimulus": "<p id=\"stim\">7</p>", "key_press": -1, "trial_type": "single-stim", "trial_index": 13, "time_elapsed": 558604, "internal_node_id": "0.0-10.0-3.0"}}, {"uniqueid": "MTK0716:30ZX6P7VF92IEKPCATDOXOSGYTQ2JJ", "current_trial": 14, "dateTime": 1512677162660, "trialdata": {"rt": -1, "stimulus": "<p id=\"stim\">6</p>", "key_press": -1, "trial_type": "single-stim", "trial_index": 14, "time_elapsed": 559608, "internal_node_id": "0.0-10.0-4.0"}}, {"uniqueid": "MTK0716:30ZX6P7VF92IEKPCATDOXOSGYTQ2JJ", "current_trial": 15, "dateTime": 1512677163665, "trialdata": {"rt": -1, "stimulus": "<p id=\"stim\">5</p>", "key_press": -1, "trial_type": "single-stim", "trial_index": 15, "time_elapsed": 560613, "internal_node_id": "0.0-10.0-5.0"}}, {"uniqueid": "MTK0716:30ZX6P7VF92IEKPCATDOXOSGYTQ2JJ", "current_trial": 16, "dateTime": 1512677164669, "trialdata": {"rt": -1, "stimulus": "<p id=\"stim\">4</p>", "key_press": -1, "trial_type": "single-stim", "trial_index": 16, "time_elapsed": 561617, "internal_node_id": "0.0-10.0-6.0"}}, {"uniqueid": "MTK0716:30ZX6P7VF92IEKPCATDOXOSGYTQ2JJ", "current_trial": 17, "dateTime": 1512677165673, "trialdata": {"rt": -1, "stimulus": "<p id=\"stim\">3</p>", "key_press": -1, "trial_type": "single-stim", "trial_index": 17, "time_elapsed": 562621, "internal_node_id": "0.0-10.0-7.0"}}, {"uniqueid": "MTK0716:30ZX6P7VF92IEKPCATDOXOSGYTQ2JJ", "current_trial": 18, "dateTime": 1512677166677, "trialdata": {"rt": -1, "stimulus": "<p id=\"stim\">2</p>", "key_press": -1, "trial_type": "single-stim", "trial_index": 18, "time_elapsed": 563625, "internal_node_id": "0.0-10.0-8.0"}}, {"uniqueid": "MTK0716:30ZX6P7VF92IEKPCATDOXOSGYTQ2JJ", "current_trial": 19, "dateTime": 1512677167681, "trialdata": {"rt": -1, "stimulus": "<p id=\"stim\">1</p>", "key_press": -1, "trial_type": "single-stim", "trial_index": 19, "time_elapsed": 564629, "internal_node_id": "0.0-10.0-9.0"}}, {"uniqueid": "MTK0716:30ZX6P7VF92IEKPCATDOXOSGYTQ2JJ", "current_trial": 20, "dateTime": 1512677169184, "trialdata": {"rt": -1, "stimulus": "<p id=\"stim\">+</p>", "key_press": -1, "type": "FIXATION", "trial_type": "single-stim", "trial_index": 20, "time_elapsed": 566132, "internal_node_id": "0.0-11.0-0.0"}}, {"uniqueid": "MTK0716:30ZX6P7VF92IEKPCATDOXOSGYTQ2JJ", "current_trial": 21, "dateTime": 1512677171568, "trialdata": {"rt": -1000, "stimulus": "/static/audio/wordpool/JURY.wav", "key_press": -1, "type": "PRES_AUD", "word": "jury", "wordID": 765, "conditions": [18, 1200, "a", 18000], "trial": 0, "serialpos": 0, "trial_type": "single-audio", "trial_index": 21, "time_elapsed": 568516, "internal_node_id": "0.0-12.0"}}, {"uniqueid": "MTK0716:30ZX6P7VF92IEKPCATDOXOSGYTQ2JJ", "current_trial": 22, "dateTime": 1512677173687, "trialdata": {"rt": -1000, "stimulus": "/static/audio/wordpool/INMATE.wav", "key_press": -1, "type": "PRES_AUD", "word": "inmate", "wordID": 737, "conditions": [18, 1200, "a", 18000], "trial": 0, "serialpos": 1, "trial_type": "single-audio", "trial_index": 22, "time_elapsed": 570635, "internal_node_id": "0.0-13.0"}}, {"uniqueid": "MTK0716:30ZX6P7VF92IEKPCATDOXOSGYTQ2JJ", "current_trial": 23, "dateTime": 1512677175823, "trialdata": {"rt": -1000, "stimulus": "/static/audio/wordpool/COUNTRY.wav", "key_press": -1, "type": "PRES_AUD", "word": "country", "wordID": 387, "conditions": [18, 1200, "a", 18000], "trial": 0, "serialpos": 2, "trial_type": "single-audio", "trial_index": 23, "time_elapsed": 572771, "internal_node_id": "0.0-14.0"}}, {"uniqueid": "MTK0716:30ZX6P7VF92IEKPCATDOXOSGYTQ2JJ", "current_trial": 24, "dateTime": 1512677178046, "trialdata": {"rt": -1000, "stimulus": "/static/audio/wordpool/PADDING.wav", "key_press": -1, "type": "PRES_AUD", "word": "padding", "wordID": 998, "conditions": [18, 1200, "a", 18000], "trial": 0, "serialpos": 3, "trial_type": "single-audio", "trial_index": 24, "time_elapsed": 574994, "internal_node_id": "0.0-15.0"}}, {"uniqueid": "MTK0716:30ZX6P7VF92IEKPCATDOXOSGYTQ2JJ", "current_trial": 25, "dateTime": 1512677180322, "trialdata": {"rt": -1000, "stimulus": "/static/audio/wordpool/BOUQUET.wav", "key_press": -1, "type": "PRES_AUD", "word": "bouquet", "wordID": 156, "conditions": [18, 1200, "a", 18000], "trial": 0, "serialpos": 4, "trial_type": "single-audio", "trial_index": 25, "time_elapsed": 577270, "internal_node_id": "0.0-16.0"}}, {"uniqueid": "MTK0716:30ZX6P7VF92IEKPCATDOXOSGYTQ2JJ", "current_trial": 26, "dateTime": 1512677182389, "trialdata": {"rt": -1000, "stimulus": "/static/audio/wordpool/MAILBOX.wav", "key_press": -1, "type": "PRES_AUD", "word": "mailbox", "wordID": 856, "conditions": [18, 1200, "a", 18000], "trial": 0, "serialpos": 5, "trial_type": "single-audio", "trial_index": 26, "time_elapsed": 579336, "internal_node_id": "0.0-17.0"}}, {"uniqueid": "MTK0716:30ZX6P7VF92IEKPCATDOXOSGYTQ2JJ", "current_trial": 27, "dateTime": 1512677184426, "trialdata": {"rt": -1000, "stimulus": "/static/audio/wordpool/FRAGRANCE.wav", "key_press": -1, "type": "PRES_AUD", "word": "fragrance", "wordID": 598, "conditions": [18, 1200, "a", 18000], "trial": 0, "serialpos": 6, "trial_type": "single-audio", "trial_index": 27, "time_elapsed": 581374, "internal_node_id": "0.0-18.0"}}, {"uniqueid": "MTK0716:30ZX6P7VF92IEKPCATDOXOSGYTQ2JJ", "current_trial": 28, "dateTime": 1512677186816, "trialdata": {"rt": -1000, "stimulus": "/static/audio/wordpool/LOVER.wav", "key_press": -1, "type": "PRES_AUD", "word": "lover", "wordID": 845, "conditions": [18, 1200, "a", 18000], "trial": 0, "serialpos": 7, "trial_type": "single-audio", "trial_index": 28, "time_elapsed": 583764, "internal_node_id": "0.0-19.0"}}, {"uniqueid": "MTK0716:30ZX6P7VF92IEKPCATDOXOSGYTQ2JJ", "current_trial": 29, "dateTime": 1512677188878, "trialdata": {"rt": -1000, "stimulus": "/static/audio/wordpool/DANDRUFF.wav", "key_press": -1, "type": "PRES_AUD", "word": "dandruff", "wordID": 438, "conditions": [18, 1200, "a", 18000], "trial": 0, "serialpos": 8, "trial_type": "single-audio", "trial_index": 29, "time_elapsed": 585826, "internal_node_id": "0.0-20.0"}}, {"uniqueid": "MTK0716:30ZX6P7VF92IEKPCATDOXOSGYTQ2JJ", "current_trial": 30, "dateTime": 1512677191264, "trialdata": {"rt": -1000, "stimulus": "/static/audio/wordpool/BUBBLE.wav", "key_press": -1, "type": "PRES_AUD", "word": "bubble", "wordID": 182, "conditions": [18, 1200, "a", 18000], "trial": 0, "serialpos": 9, "trial_type": "single-audio", "trial_index": 30, "time_elapsed": 588212, "internal_node_id": "0.0-21.0"}}, {"uniqueid": "MTK0716:30ZX6P7VF92IEKPCATDOXOSGYTQ2JJ", "current_trial": 31, "dateTime": 1512677193383, "trialdata": {"rt": -1000, "stimulus": "/static/audio/wordpool/HOUND.wav", "key_press": -1, "type": "PRES_AUD", "word": "hound", "wordID": 723, "conditions": [18, 1200, "a", 18000], "trial": 0, "serialpos": 10, "trial_type": "single-audio", "trial_index": 31, "time_elapsed": 590331, "internal_node_id": "0.0-22.0"}}, {"uniqueid": "MTK0716:30ZX6P7VF92IEKPCATDOXOSGYTQ2JJ", "current_trial": 32, "dateTime": 1512677195726, "trialdata": {"rt": -1000, "stimulus": "/static/audio/wordpool/FOREST.wav", "key_press": -1, "type": "PRES_AUD", "word": "forest", "wordID": 592, "conditions": [18, 1200, "a", 18000], "trial": 0, "serialpos": 11, "trial_type": "single-audio", "trial_index": 32, "time_elapsed": 592674, "internal_node_id": "0.0-23.0"}}, {"uniqueid": "MTK0716:30ZX6P7VF92IEKPCATDOXOSGYTQ2JJ", "current_trial": 33, "dateTime": 1512677197847, "trialdata": {"rt": -1000, "stimulus": "/static/audio/wordpool/SNAKE.wav", "key_press": -1, "type": "PRES_AUD", "word": "snake", "wordID": 1332, "conditions": [18, 1200, "a", 18000], "trial": 0, "serialpos": 12, "trial_type": "single-audio", "trial_index": 33, "time_elapsed": 594795, "internal_node_id": "0.0-24.0"}}, {"uniqueid": "MTK0716:30ZX6P7VF92IEKPCATDOXOSGYTQ2JJ", "current_trial": 34, "dateTime": 1512677200087, "trialdata": {"rt": -1000, "stimulus": "/static/audio/wordpool/REPORT.wav", "key_press": -1, "type": "PRES_AUD", "word": "report", "wordID": 1183, "conditions": [18, 1200, "a", 18000], "trial": 0, "serialpos": 13, "trial_type": "single-audio", "trial_index": 34, "time_elapsed": 597035, "internal_node_id": "0.0-25.0"}}, {"uniqueid": "MTK0716:30ZX6P7VF92IEKPCATDOXOSGYTQ2JJ", "current_trial": 35, "dateTime": 1512677202445, "trialdata": {"rt": -1000, "stimulus": "/static/audio/wordpool/CANYON.wav", "key_press": -1, "type": "PRES_AUD", "word": "canyon", "wordID": 234, "conditions": [18, 1200, "a", 18000], "trial": 0, "serialpos": 14, "trial_type": "single-audio", "trial_index": 35, "time_elapsed": 599393, "internal_node_id": "0.0-26.0"}}, {"uniqueid": "MTK0716:30ZX6P7VF92IEKPCATDOXOSGYTQ2JJ", "current_trial": 36, "dateTime": 1512677204819, "trialdata": {"rt": -1000, "stimulus": "/static/audio/wordpool/BURGLAR.wav", "key_press": -1, "type": "PRES_AUD", "word": "burglar", "wordID": 199, "conditions": [18, 1200, "a", 18000], "trial": 0, "serialpos": 15, "trial_type": "single-audio", "trial_index": 36, "time_elapsed": 601767, "internal_node_id": "0.0-27.0"}}, {"uniqueid": "MTK0716:30ZX6P7VF92IEKPCATDOXOSGYTQ2JJ", "current_trial": 37, "dateTime": 1512677207042, "trialdata": {"rt": -1000, "stimulus": "/static/audio/wordpool/GRAVE.wav", "key_press": -1, "type": "PRES_AUD", "word": "grave", "wordID": 657, "conditions": [18, 1200, "a", 18000], "trial": 0, "serialpos": 16, "trial_type": "single-audio", "trial_index": 37, "time_elapsed": 603990, "internal_node_id": "0.0-28.0"}}, {"uniqueid": "MTK0716:30ZX6P7VF92IEKPCATDOXOSGYTQ2JJ", "current_trial": 38, "dateTime": 1512677209329, "trialdata": {"rt": -1000, "stimulus": "/static/audio/wordpool/CATTLE.wav", "key_press": -1, "type": "PRES_AUD", "word": "cattle", "wordID": 260, "conditions": [18, 1200, "a", 18000], "trial": 0, "serialpos": 17, "trial_type": "single-audio", "trial_index": 38, "time_elapsed": 606277, "internal_node_id": "0.0-29.0"}}, {"uniqueid": "MTK0716:30ZX6P7VF92IEKPCATDOXOSGYTQ2JJ", "current_trial": 39, "dateTime": 1512677210636, "trialdata": {"rt": -1, "stimulus": "", "key_press": -1, "type": "PRE_RECALL_DELAY", "trial_type": "single-stim", "trial_index": 39, "time_elapsed": 607583, "internal_node_id": "0.0-30.0-0.0"}}, {"uniqueid": "MTK0716:30ZX6P7VF92IEKPCATDOXOSGYTQ2JJ", "current_trial": 40, "dateTime": 1512677211137, "trialdata": {"rt": -1000, "stimulus": "/static/audio/400Hz.wav", "key_press": -1, "type": "PRE_RECALL_ALERT", "trial_type": "single-audio", "trial_index": 40, "time_elapsed": 608085, "internal_node_id": "0.0-31.0"}}, {"uniqueid": "MTK0716:30ZX6P7VF92IEKPCATDOXOSGYTQ2JJ", "current_trial": 41, "dateTime": 1512677271143, "trialdata": {"rt": [2545, 4270, 7150, 29860, 55421], "recwords": ["cattle", "canyon", "inmate", "burgler", "pony"], "type": "FREE_RECALL", "conditions": [18, 1200, "a", 18000], "trial": 0, "trial_type": "free-recall", "trial_index": 41, "time_elapsed": 668090, "internal_node_id": "0.0-32.0-0.0"}}, {"uniqueid": "MTK0716:30ZX6P7VF92IEKPCATDOXOSGYTQ2JJ", "current_trial": 42, "dateTime": 1512677274779, "trialdata": {"rt": 1635, "key_press": 32, "type": "INSTRUCTIONS", "trial_type": "text", "trial_index": 42, "time_elapsed": 671727, "internal_node_id": "0.0-33.0"}}, {"uniqueid": "MTK0716:30ZX6P7VF92IEKPCATDOXOSGYTQ2JJ", "current_trial": 43, "dateTime": 1512677294787, "trialdata": {"rt": [2001, 5556, 11001, 13071, 15141, 17076], "responses": ["11", "14", "17", "19", "11", "12"], "num1": [6, 4, 8, 4, 1, 6, 8], "num2": [3, 2, 5, 6, 6, 4, 1], "num3": [1, 6, 4, 9, 4, 2, 5], "type": "DISTRACTOR", "conditions": [18, 1200, "v", 18000], "trial": 1, "trial_type": "math-distractor", "trial_index": 43, "time_elapsed": 691735, "internal_node_id": "0.0-34.0"}}, {"uniqueid": "MTK0716:30ZX6P7VF92IEKPCATDOXOSGYTQ2JJ", "current_trial": 44, "dateTime": 1512677297793, "trialdata": {"rt": -1, "stimulus": "<p id=\"stim\">10</p>", "key_press": -1, "trial_type": "single-stim", "trial_index": 44, "time_elapsed": 694741, "internal_node_id": "0.0-35.0-0.0"}}, {"uniqueid": "MTK0716:30ZX6P7VF92IEKPCATDOXOSGYTQ2JJ", "current_trial": 45, "dateTime": 1512677298797, "trialdata": {"rt": -1, "stimulus": "<p id=\"stim\">9</p>", "key_press": -1, "trial_type": "single-stim", "trial_index": 45, "time_elapsed": 695745, "internal_node_id": "0.0-35.0-1.0"}}, {"uniqueid": "MTK0716:30ZX6P7VF92IEKPCATDOXOSGYTQ2JJ", "current_trial": 46, "dateTime": 1512677299801, "trialdata": {"rt": -1, "stimulus": "<p id=\"stim\">8</p>", "key_press": -1, "trial_type": "single-stim", "trial_index": 46, "time_elapsed": 696749, "internal_node_id": "0.0-35.0-2.0"}}, {"uniqueid": "MTK0716:30ZX6P7VF92IEKPCATDOXOSGYTQ2JJ", "current_trial": 47, "dateTime": 1512677300806, "trialdata": {"rt": -1, "stimulus": "<p id=\"stim\">7</p>", "key_press": -1, "trial_type": "single-stim", "trial_index": 47, "time_elapsed": 697753, "internal_node_id": "0.0-35.0-3.0"}}, {"uniqueid": "MTK0716:30ZX6P7VF92IEKPCATDOXOSGYTQ2JJ", "current_trial": 48, "dateTime": 1512677301810, "trialdata": {"rt": -1, "stimulus": "<p id=\"stim\">6</p>", "key_press": -1, "trial_type": "single-stim", "trial_index": 48, "time_elapsed": 698758, "internal_node_id": "0.0-35.0-4.0"}}, {"uniqueid": "MTK0716:30ZX6P7VF92IEKPCATDOXOSGYTQ2JJ", "current_trial": 49, "dateTime": 1512677302813, "trialdata": {"rt": -1, "stimulus": "<p id=\"stim\">5</p>", "key_press": -1, "trial_type": "single-stim", "trial_index": 49, "time_elapsed": 699761, "internal_node_id": "0.0-35.0-5.0"}}, {"uniqueid": "MTK0716:30ZX6P7VF92IEKPCATDOXOSGYTQ2JJ", "current_trial": 50, "dateTime": 1512677303818, "trialdata": {"rt": -1, "stimulus": "<p id=\"stim\">4</p>", "key_press": -1, "trial_type": "single-stim", "trial_index": 50, "time_elapsed": 700766, "internal_node_id": "0.0-35.0-6.0"}}, {"uniqueid": "MTK0716:30ZX6P7VF92IEKPCATDOXOSGYTQ2JJ", "current_trial": 51, "dateTime": 1512677304821, "trialdata": {"rt": -1, "stimulus": "<p id=\"stim\">3</p>", "key_press": -1, "trial_type": "single-stim", "trial_index": 51, "time_elapsed": 701769, "internal_node_id": "0.0-35.0-7.0"}}, {"uniqueid": "MTK0716:30ZX6P7VF92IEKPCATDOXOSGYTQ2JJ", "current_trial": 52, "dateTime": 1512677305826, "trialdata": {"rt": -1, "stimulus": "<p id=\"stim\">2</p>", "key_press": -1, "trial_type": "single-stim", "trial_index": 52, "time_elapsed": 702774, "internal_node_id": "0.0-35.0-8.0"}}, {"uniqueid": "MTK0716:30ZX6P7VF92IEKPCATDOXOSGYTQ2JJ", "current_trial": 53, "dateTime": 1512677306829, "trialdata": {"rt": -1, "stimulus": "<p id=\"stim\">1</p>", "key_press": -1, "trial_type": "single-stim", "trial_index": 53, "time_elapsed": 703777, "internal_node_id": "0.0-35.0-9.0"}}, {"uniqueid": "MTK0716:30ZX6P7VF92IEKPCATDOXOSGYTQ2JJ", "current_trial": 54, "dateTime": 1512677308333, "trialdata": {"rt": -1, "stimulus": "<p id=\"stim\">+</p>", "key_press": -1, "type": "FIXATION", "trial_type": "single-stim", "trial_index": 54, "time_elapsed": 705281, "internal_node_id": "0.0-36.0-0.0"}}, {"uniqueid": "MTK0716:30ZX6P7VF92IEKPCATDOXOSGYTQ2JJ", "current_trial": 55, "dateTime": 1512677309534, "trialdata": {"rt": -1, "stimulus": "<p id=\"stim\">FLEET</p>", "key_press": -1, "type": "PRES_VIS", "word": "fleet", "wordID": 577, "conditions": [18, 1200, "v", 18000], "trial": 1, "serialpos": 0, "trial_type": "single-stim", "trial_index": 55, "time_elapsed": 706482, "internal_node_id": "0.0-37.0"}}, {"uniqueid": "MTK0716:30ZX6P7VF92IEKPCATDOXOSGYTQ2JJ", "current_trial": 56, "dateTime": 1512677311827, "trialdata": {"rt": -1, "stimulus": "<p id=\"stim\">PERCH</p>", "key_press": -1, "type": "PRES_VIS", "word": "perch", "wordID": 1047, "conditions": [18, 1200, "v", 18000], "trial": 1, "serialpos": 1, "trial_type": "single-stim", "trial_index": 56, "time_elapsed": 708775, "internal_node_id": "0.0-38.0"}}, {"uniqueid": "MTK0716:30ZX6P7VF92IEKPCATDOXOSGYTQ2JJ", "current_trial": 57, "dateTime": 1512677314001, "trialdata": {"rt": -1, "stimulus": "<p id=\"stim\">HUMAN</p>", "key_press": -1, "type": "PRES_VIS", "word": "human", "wordID": 725, "conditions": [18, 1200, "v", 18000], "trial": 1, "serialpos": 2, "trial_type": "single-stim", "trial_index": 57, "time_elapsed": 710949, "internal_node_id": "0.0-39.0"}}, {"uniqueid": "MTK0716:30ZX6P7VF92IEKPCATDOXOSGYTQ2JJ", "current_trial": 58, "dateTime": 1512677316342, "trialdata": {"rt": -1, "stimulus": "<p id=\"stim\">DONOR</p>", "key_press": -1, "type": "PRES_VIS", "word": "donor", "wordID": 484, "conditions": [18, 1200, "v", 18000], "trial": 1, "serialpos": 3, "trial_type": "single-stim", "trial_index": 58, "time_elapsed": 713290, "internal_node_id": "0.0-40.0"}}, {"uniqueid": "MTK0716:30ZX6P7VF92IEKPCATDOXOSGYTQ2JJ", "current_trial": 59, "dateTime": 1512677318670, "trialdata": {"rt": -1, "stimulus": "<p id=\"stim\">TRANSPLANT</p>", "key_press": -1, "type": "PRES_VIS", "word": "transplant", "wordID": 1495, "conditions": [18, 1200, "v", 18000], "trial": 1, "serialpos": 4, "trial_type": "single-stim", "trial_index": 59, "time_elapsed": 715618, "internal_node_id": "0.0-41.0"}}, {"uniqueid": "MTK0716:30ZX6P7VF92IEKPCATDOXOSGYTQ2JJ", "current_trial": 60, "dateTime": 1512677320992, "trialdata": {"rt": -1, "stimulus": "<p id=\"stim\">SHOVEL</p>", "key_press": -1, "type": "PRES_VIS", "word": "shovel", "wordID": 1294, "conditions": [18, 1200, "v", 18000], "trial": 1, "serialpos": 5, "trial_type": "single-stim", "trial_index": 60, "time_elapsed": 717939, "internal_node_id": "0.0-42.0"}}, {"uniqueid": "MTK0716:30ZX6P7VF92IEKPCATDOXOSGYTQ2JJ", "current_trial": 61, "dateTime": 1512677323249, "trialdata": {"rt": -1, "stimulus": "<p id=\"stim\">BODY</p>", "key_press": -1, "type": "PRES_VIS", "word": "body", "wordID": 144, "conditions": [18, 1200, "v", 18000], "trial": 1, "serialpos": 6, "trial_type": "single-stim", "trial_index": 61, "time_elapsed": 720197, "internal_node_id": "0.0-43.0"}}, {"uniqueid": "MTK0716:30ZX6P7VF92IEKPCATDOXOSGYTQ2JJ", "current_trial": 62, "dateTime": 1512677325577, "trialdata": {"rt": -1, "stimulus": "<p id=\"stim\">SPONGE</p>", "key_press": -1, "type": "PRES_VIS", "word": "sponge", "wordID": 1354, "conditions": [18, 1200, "v", 18000], "trial": 1, "serialpos": 7, "trial_type": "single-stim", "trial_index": 62, "time_elapsed": 722525, "internal_node_id": "0.0-44.0"}}, {"uniqueid": "MTK0716:30ZX6P7VF92IEKPCATDOXOSGYTQ2JJ", "current_trial": 63, "dateTime": 1512677327621, "trialdata": {"rt": -1, "stimulus": "<p id=\"stim\">BELLY</p>", "key_press": -1, "type": "PRES_VIS", "word": "belly", "wordID": 118, "conditions": [18, 1200, "v", 18000], "trial": 1, "serialpos": 8, "trial_type": "single-stim", "trial_index": 63, "time_elapsed": 724569, "internal_node_id": "0.0-45.0"}}, {"uniqueid": "MTK0716:30ZX6P7VF92IEKPCATDOXOSGYTQ2JJ", "current_trial": 64, "dateTime": 1512677329848, "trialdata": {"rt": -1, "stimulus": "<p id=\"stim\">QUARTER</p>", "key_press": -1, "type": "PRES_VIS", "word": "quarter", "wordID": 1147, "conditions": [18, 1200, "v", 18000], "trial": 1, "serialpos": 9, "trial_type": "single-stim", "trial_index": 64, "time_elapsed": 726796, "internal_node_id": "0.0-46.0"}}, {"uniqueid": "MTK0716:30ZX6P7VF92IEKPCATDOXOSGYTQ2JJ", "current_trial": 65, "dateTime": 1512677331874, "trialdata": {"rt": -1, "stimulus": "<p id=\"stim\">SCISSORS</p>", "key_press": -1, "type": "PRES_VIS", "word": "scissors", "wordID": 1249, "conditions": [18, 1200, "v", 18000], "trial": 1, "serialpos": 10, "trial_type": "single-stim", "trial_index": 65, "time_elapsed": 728822, "internal_node_id": "0.0-47.0"}}, {"uniqueid": "MTK0716:30ZX6P7VF92IEKPCATDOXOSGYTQ2JJ", "current_trial": 66, "dateTime": 1512677334132, "trialdata": {"rt": -1, "stimulus": "<p id=\"stim\">DANCER</p>", "key_press": -1, "type": "PRES_VIS", "word": "dancer", "wordID": 436, "conditions": [18, 1200, "v", 18000], "trial": 1, "serialpos": 11, "trial_type": "single-stim", "trial_index": 66, "time_elapsed": 731080, "internal_node_id": "0.0-48.0"}}, {"uniqueid": "MTK0716:30ZX6P7VF92IEKPCATDOXOSGYTQ2JJ", "current_trial": 67, "dateTime": 1512677336326, "trialdata": {"rt": -1, "stimulus": "<p id=\"stim\">GUITAR</p>", "key_press": -1, "type": "PRES_VIS", "word": "guitar", "wordID": 669, "conditions": [18, 1200, "v", 18000], "trial": 1, "serialpos": 12, "trial_type": "single-stim", "trial_index": 67, "time_elapsed": 733273, "internal_node_id": "0.0-49.0"}}, {"uniqueid": "MTK0716:30ZX6P7VF92IEKPCATDOXOSGYTQ2JJ", "current_trial": 68, "dateTime": 1512677338462, "trialdata": {"rt": -1, "stimulus": "<p id=\"stim\">CHAUFFEUR</p>", "key_press": -1, "type": "PRES_VIS", "word": "chauffeur", "wordID": 282, "conditions": [18, 1200, "v", 18000], "trial": 1, "serialpos": 13, "trial_type": "single-stim", "trial_index": 68, "time_elapsed": 735409, "internal_node_id": "0.0-50.0"}}, {"uniqueid": "MTK0716:30ZX6P7VF92IEKPCATDOXOSGYTQ2JJ", "current_trial": 69, "dateTime": 1512677340684, "trialdata": {"rt": -1, "stimulus": "<p id=\"stim\">CAFE</p>", "key_press": -1, "type": "PRES_VIS", "word": "cafe", "wordID": 215, "conditions": [18, 1200, "v", 18000], "trial": 1, "serialpos": 14, "trial_type": "single-stim", "trial_index": 69, "time_elapsed": 737632, "internal_node_id": "0.0-51.0"}}, {"uniqueid": "MTK0716:30ZX6P7VF92IEKPCATDOXOSGYTQ2JJ", "current_trial": 70, "dateTime": 1512677343044, "trialdata": {"rt": -1, "stimulus": "<p id=\"stim\">WORKER</p>", "key_press": -1, "type": "PRES_VIS", "word": "worker", "wordID": 1620, "conditions": [18, 1200, "v", 18000], "trial": 1, "serialpos": 15, "trial_type": "single-stim", "trial_index": 70, "time_elapsed": 739992, "internal_node_id": "0.0-52.0"}}, {"uniqueid": "MTK0716:30ZX6P7VF92IEKPCATDOXOSGYTQ2JJ", "current_trial": 71, "dateTime": 1512677345101, "trialdata": {"rt": -1, "stimulus": "<p id=\"stim\">FARMER</p>", "key_press": -1, "type": "PRES_VIS", "word": "farmer", "wordID": 552, "conditions": [18, 1200, "v", 18000], "trial": 1, "serialpos": 16, "trial_type": "single-stim", "trial_index": 71, "time_elapsed": 742049, "internal_node_id": "0.0-53.0"}}, {"uniqueid": "MTK0716:30ZX6P7VF92IEKPCATDOXOSGYTQ2JJ", "current_trial": 72, "dateTime": 1512677347225, "trialdata": {"rt": -1, "stimulus": "<p id=\"stim\">JOURNAL</p>", "key_press": -1, "type": "PRES_VIS", "word": "journal", "wordID": 759, "conditions": [18, 1200, "v", 18000], "trial": 1, "serialpos": 17, "trial_type": "single-stim", "trial_index": 72, "time_elapsed": 744173, "internal_node_id": "0.0-54.0"}}, {"uniqueid": "MTK0716:30ZX6P7VF92IEKPCATDOXOSGYTQ2JJ", "current_trial": 73, "dateTime": 1512677349698, "trialdata": {"rt": -1, "stimulus": "", "key_press": -1, "type": "PRE_RECALL_DELAY", "trial_type": "single-stim", "trial_index": 73, "time_elapsed": 746646, "internal_node_id": "0.0-55.0-0.0"}}, {"uniqueid": "MTK0716:30ZX6P7VF92IEKPCATDOXOSGYTQ2JJ", "current_trial": 74, "dateTime": 1512677350202, "trialdata": {"rt": -1000, "stimulus": "/static/audio/400Hz.wav", "key_press": -1, "type": "PRE_RECALL_ALERT", "trial_type": "single-audio", "trial_index": 74, "time_elapsed": 747149, "internal_node_id": "0.0-56.0"}}, {"uniqueid": "MTK0716:30ZX6P7VF92IEKPCATDOXOSGYTQ2JJ", "current_trial": 75, "dateTime": 1512677410205, "trialdata": {"rt": [6356, 11547, 16527, 25557, 32607, 39297, 45837, 56442], "recwords": ["canyon", "belly", "scissors", "bodyt", "quarter", "guitar", "worker", "sponge"], "type": "FREE_RECALL", "conditions": [18, 1200, "v", 18000], "trial": 1, "trial_type": "free-recall", "trial_index": 75, "time_elapsed": 807152, "internal_node_id": "0.0-57.0-0.0"}}, {"uniqueid": "MTK0716:30ZX6P7VF92IEKPCATDOXOSGYTQ2JJ", "current_trial": 76, "dateTime": 1512677420392, "trialdata": {"rt": 8180, "key_press": 32, "type": "INSTRUCTIONS", "trial_type": "text", "trial_index": 76, "time_elapsed": 817334, "internal_node_id": "0.0-58.0"}}, {"uniqueid": "MTK0716:30ZX6P7VF92IEKPCATDOXOSGYTQ2JJ", "current_trial": 77, "dateTime": 1512677445399, "trialdata": {"rt": [3580, 7060, 9026, 12505, 15521, 18941, 20666, 23306], "responses": ["13", "22", "12", "16", "19", "20", "6", "16"], "num1": [2, 8, 6, 3, 8, 9, 2, 9, 1], "num2": [6, 5, 3, 8, 4, 7, 3, 6, 7], "num3": [5, 9, 3, 5, 7, 4, 1, 1, 4], "type": "DISTRACTOR", "conditions": [24, 800, "v", 24000], "trial": 2, "trial_type": "math-distractor", "trial_index": 77, "time_elapsed": 842347, "internal_node_id": "0.0-59.0"}}, {"uniqueid": "MTK0716:30ZX6P7VF92IEKPCATDOXOSGYTQ2JJ", "current_trial": 78, "dateTime": 1512677448406, "trialdata": {"rt": -1, "stimulus": "<p id=\"stim\">10</p>", "key_press": -1, "trial_type": "single-stim", "trial_index": 78, "time_elapsed": 845354, "internal_node_id": "0.0-60.0-0.0"}}, {"uniqueid": "MTK0716:30ZX6P7VF92IEKPCATDOXOSGYTQ2JJ", "current_trial": 79, "dateTime": 1512677449410, "trialdata": {"rt": -1, "stimulus": "<p id=\"stim\">9</p>", "key_press": -1, "trial_type": "single-stim", "trial_index": 79, "time_elapsed": 846358, "internal_node_id": "0.0-60.0-1.0"}}, {"uniqueid": "MTK0716:30ZX6P7VF92IEKPCATDOXOSGYTQ2JJ", "current_trial": 80, "dateTime": 1512677450413, "trialdata": {"rt": -1, "stimulus": "<p id=\"stim\">8</p>", "key_press": -1, "trial_type": "single-stim", "trial_index": 80, "time_elapsed": 847361, "internal_node_id": "0.0-60.0-2.0"}}, {"uniqueid": "MTK0716:30ZX6P7VF92IEKPCATDOXOSGYTQ2JJ", "current_trial": 81, "dateTime": 1512677451418, "trialdata": {"rt": -1, "stimulus": "<p id=\"stim\">7</p>", "key_press": -1, "trial_type": "single-stim", "trial_index": 81, "time_elapsed": 848366, "internal_node_id": "0.0-60.0-3.0"}}, {"uniqueid": "MTK0716:30ZX6P7VF92IEKPCATDOXOSGYTQ2JJ", "current_trial": 82, "dateTime": 1512677452422, "trialdata": {"rt": -1, "stimulus": "<p id=\"stim\">6</p>", "key_press": -1, "trial_type": "single-stim", "trial_index": 82, "time_elapsed": 849370, "internal_node_id": "0.0-60.0-4.0"}}, {"uniqueid": "MTK0716:30ZX6P7VF92IEKPCATDOXOSGYTQ2JJ", "current_trial": 83, "dateTime": 1512677453425, "trialdata": {"rt": -1, "stimulus": "<p id=\"stim\">5</p>", "key_press": -1, "trial_type": "single-stim", "trial_index": 83, "time_elapsed": 850373, "internal_node_id": "0.0-60.0-5.0"}}, {"uniqueid": "MTK0716:30ZX6P7VF92IEKPCATDOXOSGYTQ2JJ", "current_trial": 84, "dateTime": 1512677454430, "trialdata": {"rt": -1, "stimulus": "<p id=\"stim\">4</p>", "key_press": -1, "trial_type": "single-stim", "trial_index": 84, "time_elapsed": 851378, "internal_node_id": "0.0-60.0-6.0"}}, {"uniqueid": "MTK0716:30ZX6P7VF92IEKPCATDOXOSGYTQ2JJ", "current_trial": 85, "dateTime": 1512677455434, "trialdata": {"rt": -1, "stimulus": "<p id=\"stim\">3</p>", "key_press": -1, "trial_type": "single-stim", "trial_index": 85, "time_elapsed": 852381, "internal_node_id": "0.0-60.0-7.0"}}, {"uniqueid": "MTK0716:30ZX6P7VF92IEKPCATDOXOSGYTQ2JJ", "current_trial": 86, "dateTime": 1512677456438, "trialdata": {"rt": -1, "stimulus": "<p id=\"stim\">2</p>", "key_press": -1, "trial_type": "single-stim", "trial_index": 86, "time_elapsed": 853386, "internal_node_id": "0.0-60.0-8.0"}}, {"uniqueid": "MTK0716:30ZX6P7VF92IEKPCATDOXOSGYTQ2JJ", "current_trial": 87, "dateTime": 1512677457442, "trialdata": {"rt": -1, "stimulus": "<p id=\"stim\">1</p>", "key_press": -1, "trial_type": "single-stim", "trial_index": 87, "time_elapsed": 854390, "internal_node_id": "0.0-60.0-9.0"}}, {"uniqueid": "MTK0716:30ZX6P7VF92IEKPCATDOXOSGYTQ2JJ", "current_trial": 88, "dateTime": 1512677458946, "trialdata": {"rt": -1, "stimulus": "<p id=\"stim\">+</p>", "key_press": -1, "type": "FIXATION", "trial_type": "single-stim", "trial_index": 88, "time_elapsed": 855893, "internal_node_id": "0.0-61.0-0.0"}}, {"uniqueid": "MTK0716:30ZX6P7VF92IEKPCATDOXOSGYTQ2JJ", "current_trial": 89, "dateTime": 1512677459747, "trialdata": {"rt": -1, "stimulus": "<p id=\"stim\">BEAKER</p>", "key_press": -1, "type": "PRES_VIS", "word": "beaker", "wordID": 103, "conditions": [24, 800, "v", 24000], "trial": 2, "serialpos": 0, "trial_type": "single-stim", "trial_index": 89, "time_elapsed": 856694, "internal_node_id": "0.0-62.0"}}, {"uniqueid": "MTK0716:30ZX6P7VF92IEKPCATDOXOSGYTQ2JJ", "current_trial": 90, "dateTime": 1512677461673, "trialdata": {"rt": -1, "stimulus": "<p id=\"stim\">FIREPLACE</p>", "key_press": -1, "type": "PRES_VIS", "word": "fireplace", "wordID": 569, "conditions": [24, 800, "v", 24000], "trial": 2, "serialpos": 1, "trial_type": "single-stim", "trial_index": 90, "time_elapsed": 858621, "internal_node_id": "0.0-63.0"}}, {"uniqueid": "MTK0716:30ZX6P7VF92IEKPCATDOXOSGYTQ2JJ", "current_trial": 91, "dateTime": 1512677463490, "trialdata": {"rt": -1, "stimulus": "<p id=\"stim\">ROBOT</p>", "key_press": -1, "type": "PRES_VIS", "word": "robot", "wordID": 1199, "conditions": [24, 800, "v", 24000], "trial": 2, "serialpos": 2, "trial_type": "single-stim", "trial_index": 91, "time_elapsed": 860438, "internal_node_id": "0.0-64.0"}}, {"uniqueid": "MTK0716:30ZX6P7VF92IEKPCATDOXOSGYTQ2JJ", "current_trial": 92, "dateTime": 1512677465316, "trialdata": {"rt": -1, "stimulus": "<p id=\"stim\">CASKET</p>", "key_press": -1, "type": "PRES_VIS", "word": "casket", "wordID": 254, "conditions": [24, 800, "v", 24000], "trial": 2, "serialpos": 3, "trial_type": "single-stim", "trial_index": 92, "time_elapsed": 862264, "internal_node_id": "0.0-65.0"}}, {"uniqueid": "MTK0716:30ZX6P7VF92IEKPCATDOXOSGYTQ2JJ", "current_trial": 93, "dateTime": 1512677466978, "trialdata": {"rt": -1, "stimulus": "<p id=\"stim\">BRANCH</p>", "key_press": -1, "type": "PRES_VIS", "word": "branch", "wordID": 167, "conditions": [24, 800, "v", 24000], "trial": 2, "serialpos": 4, "trial_type": "single-stim", "trial_index": 93, "time_elapsed": 863926, "internal_node_id": "0.0-66.0"}}, {"uniqueid": "MTK0716:30ZX6P7VF92IEKPCATDOXOSGYTQ2JJ", "current_trial": 94, "dateTime": 1512677468731, "trialdata": {"rt": -1, "stimulus": "<p id=\"stim\">FOX</p>", "key_press": -1, "type": "PRES_VIS", "word": "fox", "wordID": 597, "conditions": [24, 800, "v", 24000], "trial": 2, "serialpos": 5, "trial_type": "single-stim", "trial_index": 94, "time_elapsed": 865679, "internal_node_id": "0.0-67.0"}}, {"uniqueid": "MTK0716:30ZX6P7VF92IEKPCATDOXOSGYTQ2JJ", "current_trial": 95, "dateTime": 1512677470640, "trialdata": {"rt": -1, "stimulus": "<p id=\"stim\">PORTRAIT</p>", "key_press": -1, "type": "PRES_VIS", "word": "portrait", "wordID": 1110, "conditions": [24, 800, "v", 24000], "trial": 2, "serialpos": 6, "trial_type": "single-stim", "trial_index": 95, "time_elapsed": 867588, "internal_node_id": "0.0-68.0"}}, {"uniqueid": "MTK0716:30ZX6P7VF92IEKPCATDOXOSGYTQ2JJ", "current_trial": 96, "dateTime": 1512677472283, "trialdata": {"rt": -1, "stimulus": "<p id=\"stim\">PICTURE</p>", "key_press": -1, "type": "PRES_VIS", "word": "picture", "wordID": 1060, "conditions": [24, 800, "v", 24000], "trial": 2, "serialpos": 7, "trial_type": "single-stim", "trial_index": 96, "time_elapsed": 869231, "internal_node_id": "0.0-69.0"}}, {"uniqueid": "MTK0716:30ZX6P7VF92IEKPCATDOXOSGYTQ2JJ", "current_trial": 97, "dateTime": 1512677474088, "trialdata": {"rt": -1, "stimulus": "<p id=\"stim\">SLIME</p>", "key_press": -1, "type": "PRES_VIS", "word": "slime", "wordID": 1326, "conditions": [24, 800, "v", 24000], "trial": 2, "serialpos": 8, "trial_type": "single-stim", "trial_index": 97, "time_elapsed": 871036, "internal_node_id": "0.0-70.0"}}, {"uniqueid": "MTK0716:30ZX6P7VF92IEKPCATDOXOSGYTQ2JJ", "current_trial": 98, "dateTime": 1512677476021, "trialdata": {"rt": -1, "stimulus": "<p id=\"stim\">PARROT</p>", "key_press": -1, "type": "PRES_VIS", "word": "parrot", "wordID": 1014, "conditions": [24, 800, "v", 24000], "trial": 2, "serialpos": 9, "trial_type": "single-stim", "trial_index": 98, "time_elapsed": 872968, "internal_node_id": "0.0-71.0"}}, {"uniqueid": "MTK0716:30ZX6P7VF92IEKPCATDOXOSGYTQ2JJ", "current_trial": 99, "dateTime": 1512677477797, "trialdata": {"rt": -1, "stimulus": "<p id=\"stim\">CREATURE</p>", "key_press": -1, "type": "PRES_VIS", "word": "creature", "wordID": 402, "conditions": [24, 800, "v", 24000], "trial": 2, "serialpos": 10, "trial_type": "single-stim", "trial_index": 99, "time_elapsed": 874745, "internal_node_id": "0.0-72.0"}}, {"uniqueid": "MTK0716:30ZX6P7VF92IEKPCATDOXOSGYTQ2JJ", "current_trial": 100, "dateTime": 1512677479596, "trialdata": {"rt": -1, "stimulus": "<p id=\"stim\">CRATER</p>", "key_press": -1, "type": "PRES_VIS", "word": "crater", "wordID": 399, "conditions": [24, 800, "v", 24000], "trial": 2, "serialpos": 11, "trial_type": "single-stim", "trial_index": 100, "time_elapsed": 876544, "internal_node_id": "0.0-73.0"}}, {"uniqueid": "MTK0716:30ZX6P7VF92IEKPCATDOXOSGYTQ2JJ", "current_trial": 101, "dateTime": 1512677481517, "trialdata": {"rt": -1, "stimulus": "<p id=\"stim\">PECAN</p>", "key_press": -1, "type": "PRES_VIS", "word": "pecan", "wordID": 1035, "conditions": [24, 800, "v", 24000], "trial": 2, "serialpos": 12, "trial_type": "single-stim", "trial_index": 101, "time_elapsed": 878465, "internal_node_id": "0.0-74.0"}}, {"uniqueid": "MTK0716:30ZX6P7VF92IEKPCATDOXOSGYTQ2JJ", "current_trial": 102, "dateTime": 1512677483197, "trialdata": {"rt": -1, "stimulus": "<p id=\"stim\">LAGOON</p>", "key_press": -1, "type": "PRES_VIS", "word": "lagoon", "wordID": 794, "conditions": [24, 800, "v", 24000], "trial": 2, "serialpos": 13, "trial_type": "single-stim", "trial_index": 102, "time_elapsed": 880145, "internal_node_id": "0.0-75.0"}}, {"uniqueid": "MTK0716:30ZX6P7VF92IEKPCATDOXOSGYTQ2JJ", "current_trial": 103, "dateTime": 1512677484872, "trialdata": {"rt": -1, "stimulus": "<p id=\"stim\">SCOTCH</p>", "key_press": -1, "type": "PRES_VIS", "word": "scotch", "wordID": 1250, "conditions": [24, 800, "v", 24000], "trial": 2, "serialpos": 14, "trial_type": "single-stim", "trial_index": 103, "time_elapsed": 881820, "internal_node_id": "0.0-76.0"}}, {"uniqueid": "MTK0716:30ZX6P7VF92IEKPCATDOXOSGYTQ2JJ", "current_trial": 104, "dateTime": 1512677486520, "trialdata": {"rt": -1, "stimulus": "<p id=\"stim\">BRANDY</p>", "key_press": -1, "type": "PRES_VIS", "word": "brandy", "wordID": 168, "conditions": [24, 800, "v", 24000], "trial": 2, "serialpos": 15, "trial_type": "single-stim", "trial_index": 104, "time_elapsed": 883468, "internal_node_id": "0.0-77.0"}}, {"uniqueid": "MTK0716:30ZX6P7VF92IEKPCATDOXOSGYTQ2JJ", "current_trial": 105, "dateTime": 1512677488348, "trialdata": {"rt": -1, "stimulus": "<p id=\"stim\">RIVER</p>", "key_press": -1, "type": "PRES_VIS", "word": "river", "wordID": 1193, "conditions": [24, 800, "v", 24000], "trial": 2, "serialpos": 16, "trial_type": "single-stim", "trial_index": 105, "time_elapsed": 885296, "internal_node_id": "0.0-78.0"}}, {"uniqueid": "MTK0716:30ZX6P7VF92IEKPCATDOXOSGYTQ2JJ", "current_trial": 106, "dateTime": 1512677490043, "trialdata": {"rt": -1, "stimulus": "<p id=\"stim\">SANDWICH</p>", "key_press": -1, "type": "PRES_VIS", "word": "sandwich", "wordID": 1231, "conditions": [24, 800, "v", 24000], "trial": 2, "serialpos": 17, "trial_type": "single-stim", "trial_index": 106, "time_elapsed": 886991, "internal_node_id": "0.0-79.0"}}, {"uniqueid": "MTK0716:30ZX6P7VF92IEKPCATDOXOSGYTQ2JJ", "current_trial": 107, "dateTime": 1512677491900, "trialdata": {"rt": -1, "stimulus": "<p id=\"stim\">SEAFOOD</p>", "key_press": -1, "type": "PRES_VIS", "word": "seafood", "wordID": 1259, "conditions": [24, 800, "v", 24000], "trial": 2, "serialpos": 18, "trial_type": "single-stim", "trial_index": 107, "time_elapsed": 888848, "internal_node_id": "0.0-80.0"}}, {"uniqueid": "MTK0716:30ZX6P7VF92IEKPCATDOXOSGYTQ2JJ", "current_trial": 108, "dateTime": 1512677493595, "trialdata": {"rt": -1, "stimulus": "<p id=\"stim\">ROBBER</p>", "key_press": -1, "type": "PRES_VIS", "word": "robber", "wordID": 1196, "conditions": [24, 800, "v", 24000], "trial": 2, "serialpos": 19, "trial_type": "single-stim", "trial_index": 108, "time_elapsed": 890543, "internal_node_id": "0.0-81.0"}}, {"uniqueid": "MTK0716:30ZX6P7VF92IEKPCATDOXOSGYTQ2JJ", "current_trial": 109, "dateTime": 1512677495475, "trialdata": {"rt": -1, "stimulus": "<p id=\"stim\">SUITCASE</p>", "key_press": -1, "type": "PRES_VIS", "word": "suitcase", "wordID": 1402, "conditions": [24, 800, "v", 24000], "trial": 2, "serialpos": 20, "trial_type": "single-stim", "trial_index": 109, "time_elapsed": 892423, "internal_node_id": "0.0-82.0"}}, {"uniqueid": "MTK0716:30ZX6P7VF92IEKPCATDOXOSGYTQ2JJ", "current_trial": 110, "dateTime": 1512677497135, "trialdata": {"rt": -1, "stimulus": "<p id=\"stim\">COCKTAIL</p>", "key_press": -1, "type": "PRES_VIS", "word": "cocktail", "wordID": 337, "conditions": [24, 800, "v", 24000], "trial": 2, "serialpos": 21, "trial_type": "single-stim", "trial_index": 110, "time_elapsed": 894083, "internal_node_id": "0.0-83.0"}}, {"uniqueid": "MTK0716:30ZX6P7VF92IEKPCATDOXOSGYTQ2JJ", "current_trial": 111, "dateTime": 1512677498749, "trialdata": {"rt": -1, "stimulus": "<p id=\"stim\">HUSBAND</p>", "key_press": -1, "type": "PRES_VIS", "word": "husband", "wordID": 727, "conditions": [24, 800, "v", 24000], "trial": 2, "serialpos": 22, "trial_type": "single-stim", "trial_index": 111, "time_elapsed": 895697, "internal_node_id": "0.0-84.0"}}, {"uniqueid": "MTK0716:30ZX6P7VF92IEKPCATDOXOSGYTQ2JJ", "current_trial": 112, "dateTime": 1512677500535, "trialdata": {"rt": -1, "stimulus": "<p id=\"stim\">RECEIPT</p>", "key_press": -1, "type": "PRES_VIS", "word": "receipt", "wordID": 1172, "conditions": [24, 800, "v", 24000], "trial": 2, "serialpos": 23, "trial_type": "single-stim", "trial_index": 112, "time_elapsed": 897483, "internal_node_id": "0.0-85.0"}}, {"uniqueid": "MTK0716:30ZX6P7VF92IEKPCATDOXOSGYTQ2JJ", "current_trial": 113, "dateTime": 1512677503061, "trialdata": {"rt": -1, "stimulus": "", "key_press": -1, "type": "PRE_RECALL_DELAY", "trial_type": "single-stim", "trial_index": 113, "time_elapsed": 900009, "internal_node_id": "0.0-86.0-0.0"}}, {"uniqueid": "MTK0716:30ZX6P7VF92IEKPCATDOXOSGYTQ2JJ", "current_trial": 114, "dateTime": 1512677503567, "trialdata": {"rt": -1000, "stimulus": "/static/audio/400Hz.wav", "key_press": -1, "type": "PRE_RECALL_ALERT", "trial_type": "single-audio", "trial_index": 114, "time_elapsed": 900515, "internal_node_id": "0.0-87.0"}}, {"uniqueid": "MTK0716:30ZX6P7VF92IEKPCATDOXOSGYTQ2JJ", "current_trial": 115, "dateTime": 1512677563574, "trialdata": {"rt": [3848, 5228, 6488, 8213, 37104, 39624, 46164], "recwords": ["casket", "fox", "slime", "beaker", "sponge", "horse", "beaker"], "type": "FREE_RECALL", "conditions": [24, 800, "v", 24000], "trial": 2, "trial_type": "free-recall", "trial_index": 115, "time_elapsed": 960520, "internal_node_id": "0.0-88.0-0.0"}}], "questiondata": {}, "eventdata": [{"eventtype": "initialized", "value": null, "timestamp": 1512676598260, "interval": 0}, {"eventtype": "window_resize", "value": [1920, 925], "timestamp": 1512676598260, "interval": 0}, {"eventtype": "focus", "value": "off", "timestamp": 1512676749110, "interval": 150850}, {"eventtype": "focus", "value": "on", "timestamp": 1512676751740, "interval": 2630}, {"eventtype": "focus", "value": "off", "timestamp": 1512677228582, "interval": 476842}, {"eventtype": "focus", "value": "on", "timestamp": 1512677233771, "interval": 5189}], "useragent": "Mozilla/5.0 (Macintosh; Intel Mac OS X 10_13_1) AppleWebKit/537.36 (KHTML, like Gecko) Chrome/62.0.3202.94 Safari/537.36", "mode": "live", "status": "user data saved"}