{"condition": 0, "counterbalance": 622, "assignmentId": "3NJM2BJS4XDRYDKC2Z7E6XNEHJECP5", "workerId": "MTK0378", "hitId": "39AYGO6AFFR0SR14MRCHROUP7WR6N3", "currenttrial": 224, "bonus": 0, "data": [{"uniqueid": "MTK0378:3NJM2BJS4XDRYDKC2Z7E6XNEHJECP5", "current_trial": 0, "dateTime": 1510776761634, "trialdata": {"rt": 7743, "key_press": 68, "type": "INSTRUCTIONS", "trial_type": "text", "trial_index": 0, "time_elapsed": 7747, "internal_node_id": "0.0-0.0"}}, {"uniqueid": "MTK0378:3NJM2BJS4XDRYDKC2Z7E6XNEHJECP5", "current_trial": 1, "dateTime": 1510776787865, "trialdata": {"rt": 26228, "key_press": 68, "type": "INSTRUCTIONS", "trial_type": "text", "trial_index": 1, "time_elapsed": 33979, "internal_node_id": "0.0-1.0"}}, {"uniqueid": "MTK0378:3NJM2BJS4XDRYDKC2Z7E6XNEHJECP5", "current_trial": 2, "dateTime": 1510776795756, "trialdata": {"rt": [7872], "responses": ["ocean"], "type": "AUDIO_TEST", "trial_type": "audio-test", "trial_index": 2, "time_elapsed": 41868, "internal_node_id": "0.0-2.0"}}, {"uniqueid": "MTK0378:3NJM2BJS4XDRYDKC2Z7E6XNEHJECP5", "current_trial": 3, "dateTime": 1510776800354, "trialdata": {"rt": [4589], "responses": ["crystal"], "type": "AUDIO_TEST", "trial_type": "audio-test", "trial_index": 3, "time_elapsed": 46468, "internal_node_id": "0.0-3.0"}}, {"uniqueid": "MTK0378:3NJM2BJS4XDRYDKC2Z7E6XNEHJECP5", "current_trial": 4, "dateTime": 1510776805027, "trialdata": {"rt": [4663], "responses": ["spice"], "type": "AUDIO_TEST", "trial_type": "audio-test", "trial_index": 4, "time_elapsed": 51141, "internal_node_id": "0.0-4.0"}}, {"uniqueid": "MTK0378:3NJM2BJS4XDRYDKC2Z7E6XNEHJECP5", "current_trial": 5, "dateTime": 1510776830668, "trialdata": {"rt": 24886, "responses": "{\"Q0\":\"12:00 am\",\"Q1\":\"5:30 am\",\"Q2\":\"5\"}", "type": "SLEEP_SURVEY", "trial_type": "survey-text", "trial_index": 5, "time_elapsed": 76782, "internal_node_id": "0.0-5.0"}}, {"uniqueid": "MTK0378:3NJM2BJS4XDRYDKC2Z7E6XNEHJECP5", "current_trial": 6, "dateTime": 1510776885016, "trialdata": {"rt": 53347, "key_press": 68, "type": "INSTRUCTIONS", "trial_type": "text", "trial_index": 6, "time_elapsed": 131130, "internal_node_id": "0.0-6.0"}}, {"uniqueid": "MTK0378:3NJM2BJS4XDRYDKC2Z7E6XNEHJECP5", "current_trial": 7, "dateTime": 1510776898592, "trialdata": {"rt": 13075, "key_press": 68, "type": "INSTRUCTIONS", "trial_type": "text", "trial_index": 7, "time_elapsed": 144706, "internal_node_id": "0.0-7.0"}}, {"uniqueid": "MTK0378:3NJM2BJS4XDRYDKC2Z7E6XNEHJECP5", "current_trial": 8, "dateTime": 1510776907929, "trialdata": {"rt": 8836, "key_press": 68, "type": "INSTRUCTIONS", "trial_type": "text", "trial_index": 8, "time_elapsed": 154043, "internal_node_id": "0.0-8.0"}}, {"uniqueid": "MTK0378:3NJM2BJS4XDRYDKC2Z7E6XNEHJECP5", "current_trial": 9, "dateTime": 1510776926934, "trialdata": {"rt": [2811, 5674, 7850, 9914, 13963, 16403], "responses": ["7", "13", "13", "19", "22", "14"], "num1": [1, 3, 4, 6, 6, 3, 5], "num2": [1, 5, 6, 9, 7, 9, 8], "num3": [5, 5, 3, 4, 9, 2, 9], "type": "DISTRACTOR", "conditions": [18, 1200, "a", 18000], "trial": 0, "trial_type": "math-distractor", "trial_index": 9, "time_elapsed": 173048, "internal_node_id": "0.0-9.0"}}, {"uniqueid": "MTK0378:3NJM2BJS4XDRYDKC2Z7E6XNEHJECP5", "current_trial": 10, "dateTime": 1510776929936, "trialdata": {"rt": -1, "stimulus": "<p id=\"stim\">10</p>", "key_press": -1, "trial_type": "single-stim", "trial_index": 10, "time_elapsed": 176050, "internal_node_id": "0.0-10.0-0.0"}}, {"uniqueid": "MTK0378:3NJM2BJS4XDRYDKC2Z7E6XNEHJECP5", "current_trial": 11, "dateTime": 1510776930938, "trialdata": {"rt": -1, "stimulus": "<p id=\"stim\">9</p>", "key_press": -1, "trial_type": "single-stim", "trial_index": 11, "time_elapsed": 177051, "internal_node_id": "0.0-10.0-1.0"}}, {"uniqueid": "MTK0378:3NJM2BJS4XDRYDKC2Z7E6XNEHJECP5", "current_trial": 12, "dateTime": 1510776931939, "trialdata": {"rt": -1, "stimulus": "<p id=\"stim\">8</p>", "key_press": -1, "trial_type": "single-stim", "trial_index": 12, "time_elapsed": 178053, "internal_node_id": "0.0-10.0-2.0"}}, {"uniqueid": "MTK0378:3NJM2BJS4XDRYDKC2Z7E6XNEHJECP5", "current_trial": 13, "dateTime": 1510776932940, "trialdata": {"rt": -1, "stimulus": "<p id=\"stim\">7</p>", "key_press": -1, "trial_type": "single-stim", "trial_index": 13, "time_elapsed": 179054, "internal_node_id": "0.0-10.0-3.0"}}, {"uniqueid": "MTK0378:3NJM2BJS4XDRYDKC2Z7E6XNEHJECP5", "current_trial": 14, "dateTime": 1510776933941, "trialdata": {"rt": -1, "stimulus": "<p id=\"stim\">6</p>", "key_press": -1, "trial_type": "single-stim", "trial_index": 14, "time_elapsed": 180055, "internal_node_id": "0.0-10.0-4.0"}}, {"uniqueid": "MTK0378:3NJM2BJS4XDRYDKC2Z7E6XNEHJECP5", "current_trial": 15, "dateTime": 1510776934942, "trialdata": {"rt": -1, "stimulus": "<p id=\"stim\">5</p>", "key_press": -1, "trial_type": "single-stim", "trial_index": 15, "time_elapsed": 181056, "internal_node_id": "0.0-10.0-5.0"}}, {"uniqueid": "MTK0378:3NJM2BJS4XDRYDKC2Z7E6XNEHJECP5", "current_trial": 16, "dateTime": 1510776935944, "trialdata": {"rt": -1, "stimulus": "<p id=\"stim\">4</p>", "key_press": -1, "trial_type": "single-stim", "trial_index": 16, "time_elapsed": 182057, "internal_node_id": "0.0-10.0-6.0"}}, {"uniqueid": "MTK0378:3NJM2BJS4XDRYDKC2Z7E6XNEHJECP5", "current_trial": 17, "dateTime": 1510776936945, "trialdata": {"rt": -1, "stimulus": "<p id=\"stim\">3</p>", "key_press": -1, "trial_type": "single-stim", "trial_index": 17, "time_elapsed": 183059, "internal_node_id": "0.0-10.0-7.0"}}, {"uniqueid": "MTK0378:3NJM2BJS4XDRYDKC2Z7E6XNEHJECP5", "current_trial": 18, "dateTime": 1510776937946, "trialdata": {"rt": -1, "stimulus": "<p id=\"stim\">2</p>", "key_press": -1, "trial_type": "single-stim", "trial_index": 18, "time_elapsed": 184059, "internal_node_id": "0.0-10.0-8.0"}}, {"uniqueid": "MTK0378:3NJM2BJS4XDRYDKC2Z7E6XNEHJECP5", "current_trial": 19, "dateTime": 1510776938946, "trialdata": {"rt": -1, "stimulus": "<p id=\"stim\">1</p>", "key_press": -1, "trial_type": "single-stim", "trial_index": 19, "time_elapsed": 185060, "internal_node_id": "0.0-10.0-9.0"}}, {"uniqueid": "MTK0378:3NJM2BJS4XDRYDKC2Z7E6XNEHJECP5", "current_trial": 20, "dateTime": 1510776940448, "trialdata": {"rt": -1, "stimulus": "<p id=\"stim\">+</p>", "key_press": -1, "type": "FIXATION", "trial_type": "single-stim", "trial_index": 20, "time_elapsed": 186561, "internal_node_id": "0.0-11.0-0.0"}}, {"uniqueid": "MTK0378:3NJM2BJS4XDRYDKC2Z7E6XNEHJECP5", "current_trial": 21, "dateTime": 1510776942819, "trialdata": {"rt": -1000, "stimulus": "/static/audio/wordpool/EYELASH.wav", "key_press": -1, "type": "PRES_AUD", "word": "eyelash", "wordID": 545, "conditions": [18, 1200, "a", 18000], "trial": 0, "serialpos": 0, "trial_type": "single-audio", "trial_index": 21, "time_elapsed": 188932, "internal_node_id": "0.0-12.0"}}, {"uniqueid": "MTK0378:3NJM2BJS4XDRYDKC2Z7E6XNEHJECP5", "current_trial": 22, "dateTime": 1510776944910, "trialdata": {"rt": -1000, "stimulus": "/static/audio/wordpool/HIKER.wav", "key_press": -1, "type": "PRES_AUD", "word": "hiker", "wordID": 707, "conditions": [18, 1200, "a", 18000], "trial": 0, "serialpos": 1, "trial_type": "single-audio", "trial_index": 22, "time_elapsed": 191024, "internal_node_id": "0.0-13.0"}}, {"uniqueid": "MTK0378:3NJM2BJS4XDRYDKC2Z7E6XNEHJECP5", "current_trial": 23, "dateTime": 1510776947030, "trialdata": {"rt": -1000, "stimulus": "/static/audio/wordpool/PIMPLE.wav", "key_press": -1, "type": "PRES_AUD", "word": "pimple", "wordID": 1070, "conditions": [18, 1200, "a", 18000], "trial": 0, "serialpos": 2, "trial_type": "single-audio", "trial_index": 23, "time_elapsed": 193144, "internal_node_id": "0.0-14.0"}}, {"uniqueid": "MTK0378:3NJM2BJS4XDRYDKC2Z7E6XNEHJECP5", "current_trial": 24, "dateTime": 1510776949089, "trialdata": {"rt": -1000, "stimulus": "/static/audio/wordpool/LILY.wav", "key_press": -1, "type": "PRES_AUD", "word": "lily", "wordID": 820, "conditions": [18, 1200, "a", 18000], "trial": 0, "serialpos": 3, "trial_type": "single-audio", "trial_index": 24, "time_elapsed": 195203, "internal_node_id": "0.0-15.0"}}, {"uniqueid": "MTK0378:3NJM2BJS4XDRYDKC2Z7E6XNEHJECP5", "current_trial": 25, "dateTime": 1510776951268, "trialdata": {"rt": -1000, "stimulus": "/static/audio/wordpool/CONTRACT.wav", "key_press": -1, "type": "PRES_AUD", "word": "contract", "wordID": 367, "conditions": [18, 1200, "a", 18000], "trial": 0, "serialpos": 4, "trial_type": "single-audio", "trial_index": 25, "time_elapsed": 197382, "internal_node_id": "0.0-16.0"}}, {"uniqueid": "MTK0378:3NJM2BJS4XDRYDKC2Z7E6XNEHJECP5", "current_trial": 26, "dateTime": 1510776953456, "trialdata": {"rt": -1000, "stimulus": "/static/audio/wordpool/TABLET.wav", "key_press": -1, "type": "PRES_AUD", "word": "tablet", "wordID": 1426, "conditions": [18, 1200, "a", 18000], "trial": 0, "serialpos": 5, "trial_type": "single-audio", "trial_index": 26, "time_elapsed": 199570, "internal_node_id": "0.0-17.0"}}, {"uniqueid": "MTK0378:3NJM2BJS4XDRYDKC2Z7E6XNEHJECP5", "current_trial": 27, "dateTime": 1510776955778, "trialdata": {"rt": -1000, "stimulus": "/static/audio/wordpool/REPORT.wav", "key_press": -1, "type": "PRES_AUD", "word": "report", "wordID": 1183, "conditions": [18, 1200, "a", 18000], "trial": 0, "serialpos": 6, "trial_type": "single-audio", "trial_index": 27, "time_elapsed": 201892, "internal_node_id": "0.0-18.0"}}, {"uniqueid": "MTK0378:3NJM2BJS4XDRYDKC2Z7E6XNEHJECP5", "current_trial": 28, "dateTime": 1510776957821, "trialdata": {"rt": -1000, "stimulus": "/static/audio/wordpool/ATOM.wav", "key_press": -1, "type": "PRES_AUD", "word": "atom", "wordID": 54, "conditions": [18, 1200, "a", 18000], "trial": 0, "serialpos": 7, "trial_type": "single-audio", "trial_index": 28, "time_elapsed": 203935, "internal_node_id": "0.0-19.0"}}, {"uniqueid": "MTK0378:3NJM2BJS4XDRYDKC2Z7E6XNEHJECP5", "current_trial": 29, "dateTime": 1510776960040, "trialdata": {"rt": -1000, "stimulus": "/static/audio/wordpool/VENUS.wav", "key_press": -1, "type": "PRES_AUD", "word": "venus", "wordID": 1556, "conditions": [18, 1200, "a", 18000], "trial": 0, "serialpos": 8, "trial_type": "single-audio", "trial_index": 29, "time_elapsed": 206154, "internal_node_id": "0.0-20.0"}}, {"uniqueid": "MTK0378:3NJM2BJS4XDRYDKC2Z7E6XNEHJECP5", "current_trial": 30, "dateTime": 1510776962147, "trialdata": {"rt": -1000, "stimulus": "/static/audio/wordpool/CHAMPAGNE.wav", "key_press": -1, "type": "PRES_AUD", "word": "champagne", "wordID": 277, "conditions": [18, 1200, "a", 18000], "trial": 0, "serialpos": 9, "trial_type": "single-audio", "trial_index": 30, "time_elapsed": 208261, "internal_node_id": "0.0-21.0"}}, {"uniqueid": "MTK0378:3NJM2BJS4XDRYDKC2Z7E6XNEHJECP5", "current_trial": 31, "dateTime": 1510776964150, "trialdata": {"rt": -1000, "stimulus": "/static/audio/wordpool/SUNSET.wav", "key_press": -1, "type": "PRES_AUD", "word": "sunset", "wordID": 1407, "conditions": [18, 1200, "a", 18000], "trial": 0, "serialpos": 10, "trial_type": "single-audio", "trial_index": 31, "time_elapsed": 210264, "internal_node_id": "0.0-22.0"}}, {"uniqueid": "MTK0378:3NJM2BJS4XDRYDKC2Z7E6XNEHJECP5", "current_trial": 32, "dateTime": 1510776966291, "trialdata": {"rt": -1000, "stimulus": "/static/audio/wordpool/COTTAGE.wav", "key_press": -1, "type": "PRES_AUD", "word": "cottage", "wordID": 383, "conditions": [18, 1200, "a", 18000], "trial": 0, "serialpos": 11, "trial_type": "single-audio", "trial_index": 32, "time_elapsed": 212405, "internal_node_id": "0.0-23.0"}}, {"uniqueid": "MTK0378:3NJM2BJS4XDRYDKC2Z7E6XNEHJECP5", "current_trial": 33, "dateTime": 1510776968470, "trialdata": {"rt": -1000, "stimulus": "/static/audio/wordpool/DRIVER.wav", "key_press": -1, "type": "PRES_AUD", "word": "driver", "wordID": 498, "conditions": [18, 1200, "a", 18000], "trial": 0, "serialpos": 12, "trial_type": "single-audio", "trial_index": 33, "time_elapsed": 214584, "internal_node_id": "0.0-24.0"}}, {"uniqueid": "MTK0378:3NJM2BJS4XDRYDKC2Z7E6XNEHJECP5", "current_trial": 34, "dateTime": 1510776970537, "trialdata": {"rt": -1000, "stimulus": "/static/audio/wordpool/SANDWICH.wav", "key_press": -1, "type": "PRES_AUD", "word": "sandwich", "wordID": 1231, "conditions": [18, 1200, "a", 18000], "trial": 0, "serialpos": 13, "trial_type": "single-audio", "trial_index": 34, "time_elapsed": 216651, "internal_node_id": "0.0-25.0"}}, {"uniqueid": "MTK0378:3NJM2BJS4XDRYDKC2Z7E6XNEHJECP5", "current_trial": 35, "dateTime": 1510776972734, "trialdata": {"rt": -1000, "stimulus": "/static/audio/wordpool/ACTOR.wav", "key_press": -1, "type": "PRES_AUD", "word": "actor", "wordID": 4, "conditions": [18, 1200, "a", 18000], "trial": 0, "serialpos": 14, "trial_type": "single-audio", "trial_index": 35, "time_elapsed": 218848, "internal_node_id": "0.0-26.0"}}, {"uniqueid": "MTK0378:3NJM2BJS4XDRYDKC2Z7E6XNEHJECP5", "current_trial": 36, "dateTime": 1510776974796, "trialdata": {"rt": -1000, "stimulus": "/static/audio/wordpool/FEMALE.wav", "key_press": -1, "type": "PRES_AUD", "word": "female", "wordID": 558, "conditions": [18, 1200, "a", 18000], "trial": 0, "serialpos": 15, "trial_type": "single-audio", "trial_index": 36, "time_elapsed": 220910, "internal_node_id": "0.0-27.0"}}, {"uniqueid": "MTK0378:3NJM2BJS4XDRYDKC2Z7E6XNEHJECP5", "current_trial": 37, "dateTime": 1510776976835, "trialdata": {"rt": -1000, "stimulus": "/static/audio/wordpool/GRAVE.wav", "key_press": -1, "type": "PRES_AUD", "word": "grave", "wordID": 657, "conditions": [18, 1200, "a", 18000], "trial": 0, "serialpos": 16, "trial_type": "single-audio", "trial_index": 37, "time_elapsed": 222949, "internal_node_id": "0.0-28.0"}}, {"uniqueid": "MTK0378:3NJM2BJS4XDRYDKC2Z7E6XNEHJECP5", "current_trial": 38, "dateTime": 1510776979178, "trialdata": {"rt": -1000, "stimulus": "/static/audio/wordpool/VELVET.wav", "key_press": -1, "type": "PRES_AUD", "word": "velvet", "wordID": 1554, "conditions": [18, 1200, "a", 18000], "trial": 0, "serialpos": 17, "trial_type": "single-audio", "trial_index": 38, "time_elapsed": 225292, "internal_node_id": "0.0-29.0"}}, {"uniqueid": "MTK0378:3NJM2BJS4XDRYDKC2Z7E6XNEHJECP5", "current_trial": 39, "dateTime": 1510776980421, "trialdata": {"rt": -1, "stimulus": "", "key_press": -1, "type": "PRE_RECALL_DELAY", "trial_type": "single-stim", "trial_index": 39, "time_elapsed": 226534, "internal_node_id": "0.0-30.0-0.0"}}, {"uniqueid": "MTK0378:3NJM2BJS4XDRYDKC2Z7E6XNEHJECP5", "current_trial": 40, "dateTime": 1510776980921, "trialdata": {"rt": -1000, "stimulus": "/static/audio/400Hz.wav", "key_press": -1, "type": "PRE_RECALL_ALERT", "trial_type": "single-audio", "trial_index": 40, "time_elapsed": 227035, "internal_node_id": "0.0-31.0"}}, {"uniqueid": "MTK0378:3NJM2BJS4XDRYDKC2Z7E6XNEHJECP5", "current_trial": 41, "dateTime": 1510777040928, "trialdata": {"rt": [2013, 4876, 6108, 7140, 8644, 22812, 50172], "recwords": ["female", "grade", "velvet", "sunset", "eyelash", "hiker", "champagne"], "type": "FREE_RECALL", "conditions": [18, 1200, "a", 18000], "trial": 0, "trial_type": "free-recall", "trial_index": 41, "time_elapsed": 287038, "internal_node_id": "0.0-32.0-0.0"}}, {"uniqueid": "MTK0378:3NJM2BJS4XDRYDKC2Z7E6XNEHJECP5", "current_trial": 42, "dateTime": 1510777044112, "trialdata": {"rt": 1183, "key_press": 68, "type": "INSTRUCTIONS", "trial_type": "text", "trial_index": 42, "time_elapsed": 290226, "internal_node_id": "0.0-33.0"}}, {"uniqueid": "MTK0378:3NJM2BJS4XDRYDKC2Z7E6XNEHJECP5", "current_trial": 43, "dateTime": 1510777064114, "trialdata": {"rt": [3295, 6918, 8886, 10662, 12486, 14742, 16599], "responses": ["14", "18", "17", "11", "11", "19", "13"], "num1": [5, 5, 7, 3, 1, 7, 1, 5], "num2": [4, 7, 1, 7, 5, 8, 8, 4], "num3": [5, 6, 9, 1, 5, 4, 4, 1], "type": "DISTRACTOR", "conditions": [18, 1200, "v", 18000], "trial": 1, "trial_type": "math-distractor", "trial_index": 43, "time_elapsed": 310228, "internal_node_id": "0.0-34.0"}}, {"uniqueid": "MTK0378:3NJM2BJS4XDRYDKC2Z7E6XNEHJECP5", "current_trial": 44, "dateTime": 1510777067115, "trialdata": {"rt": -1, "stimulus": "<p id=\"stim\">10</p>", "key_press": -1, "trial_type": "single-stim", "trial_index": 44, "time_elapsed": 313228, "internal_node_id": "0.0-35.0-0.0"}}, {"uniqueid": "MTK0378:3NJM2BJS4XDRYDKC2Z7E6XNEHJECP5", "current_trial": 45, "dateTime": 1510777068116, "trialdata": {"rt": -1, "stimulus": "<p id=\"stim\">9</p>", "key_press": -1, "trial_type": "single-stim", "trial_index": 45, "time_elapsed": 314229, "internal_node_id": "0.0-35.0-1.0"}}, {"uniqueid": "MTK0378:3NJM2BJS4XDRYDKC2Z7E6XNEHJECP5", "current_trial": 46, "dateTime": 1510777069116, "trialdata": {"rt": -1, "stimulus": "<p id=\"stim\">8</p>", "key_press": -1, "trial_type": "single-stim", "trial_index": 46, "time_elapsed": 315230, "internal_node_id": "0.0-35.0-2.0"}}, {"uniqueid": "MTK0378:3NJM2BJS4XDRYDKC2Z7E6XNEHJECP5", "current_trial": 47, "dateTime": 1510777070117, "trialdata": {"rt": -1, "stimulus": "<p id=\"stim\">7</p>", "key_press": -1, "trial_type": "single-stim", "trial_index": 47, "time_elapsed": 316231, "internal_node_id": "0.0-35.0-3.0"}}, {"uniqueid": "MTK0378:3NJM2BJS4XDRYDKC2Z7E6XNEHJECP5", "current_trial": 48, "dateTime": 1510777071118, "trialdata": {"rt": -1, "stimulus": "<p id=\"stim\">6</p>", "key_press": -1, "trial_type": "single-stim", "trial_index": 48, "time_elapsed": 317232, "internal_node_id": "0.0-35.0-4.0"}}, {"uniqueid": "MTK0378:3NJM2BJS4XDRYDKC2Z7E6XNEHJECP5", "current_trial": 49, "dateTime": 1510777072120, "trialdata": {"rt": -1, "stimulus": "<p id=\"stim\">5</p>", "key_press": -1, "trial_type": "single-stim", "trial_index": 49, "time_elapsed": 318233, "internal_node_id": "0.0-35.0-5.0"}}, {"uniqueid": "MTK0378:3NJM2BJS4XDRYDKC2Z7E6XNEHJECP5", "current_trial": 50, "dateTime": 1510777073121, "trialdata": {"rt": -1, "stimulus": "<p id=\"stim\">4</p>", "key_press": -1, "trial_type": "single-stim", "trial_index": 50, "time_elapsed": 319234, "internal_node_id": "0.0-35.0-6.0"}}, {"uniqueid": "MTK0378:3NJM2BJS4XDRYDKC2Z7E6XNEHJECP5", "current_trial": 51, "dateTime": 1510777074121, "trialdata": {"rt": -1, "stimulus": "<p id=\"stim\">3</p>", "key_press": -1, "trial_type": "single-stim", "trial_index": 51, "time_elapsed": 320235, "internal_node_id": "0.0-35.0-7.0"}}, {"uniqueid": "MTK0378:3NJM2BJS4XDRYDKC2Z7E6XNEHJECP5", "current_trial": 52, "dateTime": 1510777075122, "trialdata": {"rt": -1, "stimulus": "<p id=\"stim\">2</p>", "key_press": -1, "trial_type": "single-stim", "trial_index": 52, "time_elapsed": 321236, "internal_node_id": "0.0-35.0-8.0"}}, {"uniqueid": "MTK0378:3NJM2BJS4XDRYDKC2Z7E6XNEHJECP5", "current_trial": 53, "dateTime": 1510777076124, "trialdata": {"rt": -1, "stimulus": "<p id=\"stim\">1</p>", "key_press": -1, "trial_type": "single-stim", "trial_index": 53, "time_elapsed": 322238, "internal_node_id": "0.0-35.0-9.0"}}, {"uniqueid": "MTK0378:3NJM2BJS4XDRYDKC2Z7E6XNEHJECP5", "current_trial": 54, "dateTime": 1510777077625, "trialdata": {"rt": -1, "stimulus": "<p id=\"stim\">+</p>", "key_press": -1, "type": "FIXATION", "trial_type": "single-stim", "trial_index": 54, "time_elapsed": 323739, "internal_node_id": "0.0-36.0-0.0"}}, {"uniqueid": "MTK0378:3NJM2BJS4XDRYDKC2Z7E6XNEHJECP5", "current_trial": 55, "dateTime": 1510777078826, "trialdata": {"rt": -1, "stimulus": "<p id=\"stim\">DENTIST</p>", "key_press": -1, "type": "PRES_VIS", "word": "dentist", "wordID": 446, "conditions": [18, 1200, "v", 18000], "trial": 1, "serialpos": 0, "trial_type": "single-stim", "trial_index": 55, "time_elapsed": 324940, "internal_node_id": "0.0-37.0"}}, {"uniqueid": "MTK0378:3NJM2BJS4XDRYDKC2Z7E6XNEHJECP5", "current_trial": 56, "dateTime": 1510777081018, "trialdata": {"rt": -1, "stimulus": "<p id=\"stim\">WASP</p>", "key_press": -1, "type": "PRES_VIS", "word": "wasp", "wordID": 1592, "conditions": [18, 1200, "v", 18000], "trial": 1, "serialpos": 1, "trial_type": "single-stim", "trial_index": 56, "time_elapsed": 327131, "internal_node_id": "0.0-38.0"}}, {"uniqueid": "MTK0378:3NJM2BJS4XDRYDKC2Z7E6XNEHJECP5", "current_trial": 57, "dateTime": 1510777083386, "trialdata": {"rt": -1, "stimulus": "<p id=\"stim\">SPONGE</p>", "key_press": -1, "type": "PRES_VIS", "word": "sponge", "wordID": 1354, "conditions": [18, 1200, "v", 18000], "trial": 1, "serialpos": 2, "trial_type": "single-stim", "trial_index": 57, "time_elapsed": 329500, "internal_node_id": "0.0-39.0"}}, {"uniqueid": "MTK0378:3NJM2BJS4XDRYDKC2Z7E6XNEHJECP5", "current_trial": 58, "dateTime": 1510777085712, "trialdata": {"rt": -1, "stimulus": "<p id=\"stim\">POPCORN</p>", "key_press": -1, "type": "PRES_VIS", "word": "popcorn", "wordID": 1103, "conditions": [18, 1200, "v", 18000], "trial": 1, "serialpos": 3, "trial_type": "single-stim", "trial_index": 58, "time_elapsed": 331826, "internal_node_id": "0.0-40.0"}}, {"uniqueid": "MTK0378:3NJM2BJS4XDRYDKC2Z7E6XNEHJECP5", "current_trial": 59, "dateTime": 1510777087907, "trialdata": {"rt": -1, "stimulus": "<p id=\"stim\">HEART</p>", "key_press": -1, "type": "PRES_VIS", "word": "heart", "wordID": 696, "conditions": [18, 1200, "v", 18000], "trial": 1, "serialpos": 4, "trial_type": "single-stim", "trial_index": 59, "time_elapsed": 334021, "internal_node_id": "0.0-41.0"}}, {"uniqueid": "MTK0378:3NJM2BJS4XDRYDKC2Z7E6XNEHJECP5", "current_trial": 60, "dateTime": 1510777090018, "trialdata": {"rt": -1, "stimulus": "<p id=\"stim\">LUGGAGE</p>", "key_press": -1, "type": "PRES_VIS", "word": "luggage", "wordID": 846, "conditions": [18, 1200, "v", 18000], "trial": 1, "serialpos": 5, "trial_type": "single-stim", "trial_index": 60, "time_elapsed": 336132, "internal_node_id": "0.0-42.0"}}, {"uniqueid": "MTK0378:3NJM2BJS4XDRYDKC2Z7E6XNEHJECP5", "current_trial": 61, "dateTime": 1510777092317, "trialdata": {"rt": -1, "stimulus": "<p id=\"stim\">PASSAGE</p>", "key_press": -1, "type": "PRES_VIS", "word": "passage", "wordID": 1018, "conditions": [18, 1200, "v", 18000], "trial": 1, "serialpos": 6, "trial_type": "single-stim", "trial_index": 61, "time_elapsed": 338430, "internal_node_id": "0.0-43.0"}}, {"uniqueid": "MTK0378:3NJM2BJS4XDRYDKC2Z7E6XNEHJECP5", "current_trial": 62, "dateTime": 1510777094450, "trialdata": {"rt": -1, "stimulus": "<p id=\"stim\">LASER</p>", "key_press": -1, "type": "PRES_VIS", "word": "laser", "wordID": 800, "conditions": [18, 1200, "v", 18000], "trial": 1, "serialpos": 7, "trial_type": "single-stim", "trial_index": 62, "time_elapsed": 340563, "internal_node_id": "0.0-44.0"}}, {"uniqueid": "MTK0378:3NJM2BJS4XDRYDKC2Z7E6XNEHJECP5", "current_trial": 63, "dateTime": 1510777096814, "trialdata": {"rt": -1, "stimulus": "<p id=\"stim\">MARROW</p>", "key_press": -1, "type": "PRES_VIS", "word": "marrow", "wordID": 871, "conditions": [18, 1200, "v", 18000], "trial": 1, "serialpos": 8, "trial_type": "single-stim", "trial_index": 63, "time_elapsed": 342927, "internal_node_id": "0.0-45.0"}}, {"uniqueid": "MTK0378:3NJM2BJS4XDRYDKC2Z7E6XNEHJECP5", "current_trial": 64, "dateTime": 1510777098898, "trialdata": {"rt": -1, "stimulus": "<p id=\"stim\">JUGGLER</p>", "key_press": -1, "type": "PRES_VIS", "word": "juggler", "wordID": 762, "conditions": [18, 1200, "v", 18000], "trial": 1, "serialpos": 9, "trial_type": "single-stim", "trial_index": 64, "time_elapsed": 345012, "internal_node_id": "0.0-46.0"}}, {"uniqueid": "MTK0378:3NJM2BJS4XDRYDKC2Z7E6XNEHJECP5", "current_trial": 65, "dateTime": 1510777101264, "trialdata": {"rt": -1, "stimulus": "<p id=\"stim\">TROMBONE</p>", "key_press": -1, "type": "PRES_VIS", "word": "trombone", "wordID": 1507, "conditions": [18, 1200, "v", 18000], "trial": 1, "serialpos": 10, "trial_type": "single-stim", "trial_index": 65, "time_elapsed": 347377, "internal_node_id": "0.0-47.0"}}, {"uniqueid": "MTK0378:3NJM2BJS4XDRYDKC2Z7E6XNEHJECP5", "current_trial": 66, "dateTime": 1510777103371, "trialdata": {"rt": -1, "stimulus": "<p id=\"stim\">PLASTER</p>", "key_press": -1, "type": "PRES_VIS", "word": "plaster", "wordID": 1084, "conditions": [18, 1200, "v", 18000], "trial": 1, "serialpos": 11, "trial_type": "single-stim", "trial_index": 66, "time_elapsed": 349484, "internal_node_id": "0.0-48.0"}}, {"uniqueid": "MTK0378:3NJM2BJS4XDRYDKC2Z7E6XNEHJECP5", "current_trial": 67, "dateTime": 1510777105529, "trialdata": {"rt": -1, "stimulus": "<p id=\"stim\">SCARF</p>", "key_press": -1, "type": "PRES_VIS", "word": "scarf", "wordID": 1245, "conditions": [18, 1200, "v", 18000], "trial": 1, "serialpos": 12, "trial_type": "single-stim", "trial_index": 67, "time_elapsed": 351643, "internal_node_id": "0.0-49.0"}}, {"uniqueid": "MTK0378:3NJM2BJS4XDRYDKC2Z7E6XNEHJECP5", "current_trial": 68, "dateTime": 1510777107557, "trialdata": {"rt": -1, "stimulus": "<p id=\"stim\">SUITCASE</p>", "key_press": -1, "type": "PRES_VIS", "word": "suitcase", "wordID": 1402, "conditions": [18, 1200, "v", 18000], "trial": 1, "serialpos": 13, "trial_type": "single-stim", "trial_index": 68, "time_elapsed": 353668, "internal_node_id": "0.0-50.0"}}, {"uniqueid": "MTK0378:3NJM2BJS4XDRYDKC2Z7E6XNEHJECP5", "current_trial": 69, "dateTime": 1510777109721, "trialdata": {"rt": -1, "stimulus": "<p id=\"stim\">BANJO</p>", "key_press": -1, "type": "PRES_VIS", "word": "banjo", "wordID": 81, "conditions": [18, 1200, "v", 18000], "trial": 1, "serialpos": 14, "trial_type": "single-stim", "trial_index": 69, "time_elapsed": 355835, "internal_node_id": "0.0-51.0"}}, {"uniqueid": "MTK0378:3NJM2BJS4XDRYDKC2Z7E6XNEHJECP5", "current_trial": 70, "dateTime": 1510777111999, "trialdata": {"rt": -1, "stimulus": "<p id=\"stim\">CRAB</p>", "key_press": -1, "type": "PRES_VIS", "word": "crab", "wordID": 396, "conditions": [18, 1200, "v", 18000], "trial": 1, "serialpos": 15, "trial_type": "single-stim", "trial_index": 70, "time_elapsed": 358113, "internal_node_id": "0.0-52.0"}}, {"uniqueid": "MTK0378:3NJM2BJS4XDRYDKC2Z7E6XNEHJECP5", "current_trial": 71, "dateTime": 1510777114086, "trialdata": {"rt": -1, "stimulus": "<p id=\"stim\">MARSH</p>", "key_press": -1, "type": "PRES_VIS", "word": "marsh", "wordID": 873, "conditions": [18, 1200, "v", 18000], "trial": 1, "serialpos": 16, "trial_type": "single-stim", "trial_index": 71, "time_elapsed": 360200, "internal_node_id": "0.0-53.0"}}, {"uniqueid": "MTK0378:3NJM2BJS4XDRYDKC2Z7E6XNEHJECP5", "current_trial": 72, "dateTime": 1510777116389, "trialdata": {"rt": -1, "stimulus": "<p id=\"stim\">EAGLE</p>", "key_press": -1, "type": "PRES_VIS", "word": "eagle", "wordID": 511, "conditions": [18, 1200, "v", 18000], "trial": 1, "serialpos": 17, "trial_type": "single-stim", "trial_index": 72, "time_elapsed": 362502, "internal_node_id": "0.0-54.0"}}, {"uniqueid": "MTK0378:3NJM2BJS4XDRYDKC2Z7E6XNEHJECP5", "current_trial": 73, "dateTime": 1510777118667, "trialdata": {"rt": -1, "stimulus": "", "key_press": -1, "type": "PRE_RECALL_DELAY", "trial_type": "single-stim", "trial_index": 73, "time_elapsed": 364781, "internal_node_id": "0.0-55.0-0.0"}}, {"uniqueid": "MTK0378:3NJM2BJS4XDRYDKC2Z7E6XNEHJECP5", "current_trial": 74, "dateTime": 1510777119168, "trialdata": {"rt": -1000, "stimulus": "/static/audio/400Hz.wav", "key_press": -1, "type": "PRE_RECALL_ALERT", "trial_type": "single-audio", "trial_index": 74, "time_elapsed": 365282, "internal_node_id": "0.0-56.0"}}, {"uniqueid": "MTK0378:3NJM2BJS4XDRYDKC2Z7E6XNEHJECP5", "current_trial": 75, "dateTime": 1510777179174, "trialdata": {"rt": [1446, 2799, 3599, 5678, 54693], "recwords": ["crab", "marsh", "eagle", "dentist", "morrow"], "type": "FREE_RECALL", "conditions": [18, 1200, "v", 18000], "trial": 1, "trial_type": "free-recall", "trial_index": 75, "time_elapsed": 425285, "internal_node_id": "0.0-57.0-0.0"}}, {"uniqueid": "MTK0378:3NJM2BJS4XDRYDKC2Z7E6XNEHJECP5", "current_trial": 76, "dateTime": 1510777195389, "trialdata": {"rt": 14209, "key_press": 68, "type": "INSTRUCTIONS", "trial_type": "text", "trial_index": 76, "time_elapsed": 441498, "internal_node_id": "0.0-58.0"}}, {"uniqueid": "MTK0378:3NJM2BJS4XDRYDKC2Z7E6XNEHJECP5", "current_trial": 77, "dateTime": 1510777208391, "trialdata": {"rt": [2377, 4361, 5778, 8138, 11338], "responses": ["15", "12", "12", "11", "18"], "num1": [2, 8, 4, 4, 7, 7], "num2": [9, 1, 2, 3, 5, 9], "num3": [4, 3, 6, 4, 6, 7], "type": "DISTRACTOR", "conditions": [12, 800, "a", 12000], "trial": 2, "trial_type": "math-distractor", "trial_index": 77, "time_elapsed": 454505, "internal_node_id": "0.0-59.0"}}, {"uniqueid": "MTK0378:3NJM2BJS4XDRYDKC2Z7E6XNEHJECP5", "current_trial": 78, "dateTime": 1510777211392, "trialdata": {"rt": -1, "stimulus": "<p id=\"stim\">10</p>", "key_press": -1, "trial_type": "single-stim", "trial_index": 78, "time_elapsed": 457505, "internal_node_id": "0.0-60.0-0.0"}}, {"uniqueid": "MTK0378:3NJM2BJS4XDRYDKC2Z7E6XNEHJECP5", "current_trial": 79, "dateTime": 1510777212393, "trialdata": {"rt": -1, "stimulus": "<p id=\"stim\">9</p>", "key_press": -1, "trial_type": "single-stim", "trial_index": 79, "time_elapsed": 458507, "internal_node_id": "0.0-60.0-1.0"}}, {"uniqueid": "MTK0378:3NJM2BJS4XDRYDKC2Z7E6XNEHJECP5", "current_trial": 80, "dateTime": 1510777213393, "trialdata": {"rt": -1, "stimulus": "<p id=\"stim\">8</p>", "key_press": -1, "trial_type": "single-stim", "trial_index": 80, "time_elapsed": 459507, "internal_node_id": "0.0-60.0-2.0"}}, {"uniqueid": "MTK0378:3NJM2BJS4XDRYDKC2Z7E6XNEHJECP5", "current_trial": 81, "dateTime": 1510777214395, "trialdata": {"rt": -1, "stimulus": "<p id=\"stim\">7</p>", "key_press": -1, "trial_type": "single-stim", "trial_index": 81, "time_elapsed": 460508, "internal_node_id": "0.0-60.0-3.0"}}, {"uniqueid": "MTK0378:3NJM2BJS4XDRYDKC2Z7E6XNEHJECP5", "current_trial": 82, "dateTime": 1510777215395, "trialdata": {"rt": -1, "stimulus": "<p id=\"stim\">6</p>", "key_press": -1, "trial_type": "single-stim", "trial_index": 82, "time_elapsed": 461509, "internal_node_id": "0.0-60.0-4.0"}}, {"uniqueid": "MTK0378:3NJM2BJS4XDRYDKC2Z7E6XNEHJECP5", "current_trial": 83, "dateTime": 1510777216396, "trialdata": {"rt": -1, "stimulus": "<p id=\"stim\">5</p>", "key_press": -1, "trial_type": "single-stim", "trial_index": 83, "time_elapsed": 462510, "internal_node_id": "0.0-60.0-5.0"}}, {"uniqueid": "MTK0378:3NJM2BJS4XDRYDKC2Z7E6XNEHJECP5", "current_trial": 84, "dateTime": 1510777217398, "trialdata": {"rt": -1, "stimulus": "<p id=\"stim\">4</p>", "key_press": -1, "trial_type": "single-stim", "trial_index": 84, "time_elapsed": 463511, "internal_node_id": "0.0-60.0-6.0"}}, {"uniqueid": "MTK0378:3NJM2BJS4XDRYDKC2Z7E6XNEHJECP5", "current_trial": 85, "dateTime": 1510777218401, "trialdata": {"rt": -1, "stimulus": "<p id=\"stim\">3</p>", "key_press": -1, "trial_type": "single-stim", "trial_index": 85, "time_elapsed": 464513, "internal_node_id": "0.0-60.0-7.0"}}, {"uniqueid": "MTK0378:3NJM2BJS4XDRYDKC2Z7E6XNEHJECP5", "current_trial": 86, "dateTime": 1510777219402, "trialdata": {"rt": -1, "stimulus": "<p id=\"stim\">2</p>", "key_press": -1, "trial_type": "single-stim", "trial_index": 86, "time_elapsed": 465516, "internal_node_id": "0.0-60.0-8.0"}}, {"uniqueid": "MTK0378:3NJM2BJS4XDRYDKC2Z7E6XNEHJECP5", "current_trial": 87, "dateTime": 1510777220403, "trialdata": {"rt": -1, "stimulus": "<p id=\"stim\">1</p>", "key_press": -1, "trial_type": "single-stim", "trial_index": 87, "time_elapsed": 466517, "internal_node_id": "0.0-60.0-9.0"}}, {"uniqueid": "MTK0378:3NJM2BJS4XDRYDKC2Z7E6XNEHJECP5", "current_trial": 88, "dateTime": 1510777221904, "trialdata": {"rt": -1, "stimulus": "<p id=\"stim\">+</p>", "key_press": -1, "type": "FIXATION", "trial_type": "single-stim", "trial_index": 88, "time_elapsed": 468018, "internal_node_id": "0.0-61.0-0.0"}}, {"uniqueid": "MTK0378:3NJM2BJS4XDRYDKC2Z7E6XNEHJECP5", "current_trial": 89, "dateTime": 1510777223587, "trialdata": {"rt": -1000, "stimulus": "/static/audio/wordpool/KNAPSACK.wav", "key_press": -1, "type": "PRES_AUD", "word": "knapsack", "wordID": 782, "conditions": [12, 800, "a", 12000], "trial": 2, "serialpos": 0, "trial_type": "single-audio", "trial_index": 89, "time_elapsed": 469701, "internal_node_id": "0.0-62.0"}}, {"uniqueid": "MTK0378:3NJM2BJS4XDRYDKC2Z7E6XNEHJECP5", "current_trial": 90, "dateTime": 1510777225377, "trialdata": {"rt": -1000, "stimulus": "/static/audio/wordpool/TEACHER.wav", "key_press": -1, "type": "PRES_AUD", "word": "teacher", "wordID": 1439, "conditions": [12, 800, "a", 12000], "trial": 2, "serialpos": 1, "trial_type": "single-audio", "trial_index": 90, "time_elapsed": 471491, "internal_node_id": "0.0-63.0"}}, {"uniqueid": "MTK0378:3NJM2BJS4XDRYDKC2Z7E6XNEHJECP5", "current_trial": 91, "dateTime": 1510777227363, "trialdata": {"rt": -1000, "stimulus": "/static/audio/wordpool/PLAZA.wav", "key_press": -1, "type": "PRES_AUD", "word": "plaza", "wordID": 1087, "conditions": [12, 800, "a", 12000], "trial": 2, "serialpos": 2, "trial_type": "single-audio", "trial_index": 91, "time_elapsed": 473477, "internal_node_id": "0.0-64.0"}}, {"uniqueid": "MTK0378:3NJM2BJS4XDRYDKC2Z7E6XNEHJECP5", "current_trial": 92, "dateTime": 1510777229013, "trialdata": {"rt": -1000, "stimulus": "/static/audio/wordpool/JUDGE.wav", "key_press": -1, "type": "PRES_AUD", "word": "judge", "wordID": 760, "conditions": [12, 800, "a", 12000], "trial": 2, "serialpos": 3, "trial_type": "single-audio", "trial_index": 92, "time_elapsed": 475127, "internal_node_id": "0.0-65.0"}}, {"uniqueid": "MTK0378:3NJM2BJS4XDRYDKC2Z7E6XNEHJECP5", "current_trial": 93, "dateTime": 1510777230716, "trialdata": {"rt": -1000, "stimulus": "/static/audio/wordpool/JURY.wav", "key_press": -1, "type": "PRES_AUD", "word": "jury", "wordID": 765, "conditions": [12, 800, "a", 12000], "trial": 2, "serialpos": 4, "trial_type": "single-audio", "trial_index": 93, "time_elapsed": 476830, "internal_node_id": "0.0-66.0"}}, {"uniqueid": "MTK0378:3NJM2BJS4XDRYDKC2Z7E6XNEHJECP5", "current_trial": 94, "dateTime": 1510777232549, "trialdata": {"rt": -1000, "stimulus": "/static/audio/wordpool/HOOD.wav", "key_press": -1, "type": "PRES_AUD", "word": "hood", "wordID": 713, "conditions": [12, 800, "a", 12000], "trial": 2, "serialpos": 5, "trial_type": "single-audio", "trial_index": 94, "time_elapsed": 478663, "internal_node_id": "0.0-67.0"}}, {"uniqueid": "MTK0378:3NJM2BJS4XDRYDKC2Z7E6XNEHJECP5", "current_trial": 95, "dateTime": 1510777234499, "trialdata": {"rt": -1000, "stimulus": "/static/audio/wordpool/MOTOR.wav", "key_press": -1, "type": "PRES_AUD", "word": "motor", "wordID": 921, "conditions": [12, 800, "a", 12000], "trial": 2, "serialpos": 6, "trial_type": "single-audio", "trial_index": 95, "time_elapsed": 480613, "internal_node_id": "0.0-68.0"}}, {"uniqueid": "MTK0378:3NJM2BJS4XDRYDKC2Z7E6XNEHJECP5", "current_trial": 96, "dateTime": 1510777236237, "trialdata": {"rt": -1000, "stimulus": "/static/audio/wordpool/BLADE.wav", "key_press": -1, "type": "PRES_AUD", "word": "blade", "wordID": 133, "conditions": [12, 800, "a", 12000], "trial": 2, "serialpos": 7, "trial_type": "single-audio", "trial_index": 96, "time_elapsed": 482351, "internal_node_id": "0.0-69.0"}}, {"uniqueid": "MTK0378:3NJM2BJS4XDRYDKC2Z7E6XNEHJECP5", "current_trial": 97, "dateTime": 1510777238221, "trialdata": {"rt": -1000, "stimulus": "/static/audio/wordpool/GLOBE.wav", "key_press": -1, "type": "PRES_AUD", "word": "globe", "wordID": 640, "conditions": [12, 800, "a", 12000], "trial": 2, "serialpos": 8, "trial_type": "single-audio", "trial_index": 97, "time_elapsed": 484335, "internal_node_id": "0.0-70.0"}}, {"uniqueid": "MTK0378:3NJM2BJS4XDRYDKC2Z7E6XNEHJECP5", "current_trial": 98, "dateTime": 1510777239984, "trialdata": {"rt": -1000, "stimulus": "/static/audio/wordpool/BRIEFCASE.wav", "key_press": -1, "type": "PRES_AUD", "word": "briefcase", "wordID": 174, "conditions": [12, 800, "a", 12000], "trial": 2, "serialpos": 9, "trial_type": "single-audio", "trial_index": 98, "time_elapsed": 486098, "internal_node_id": "0.0-71.0"}}, {"uniqueid": "MTK0378:3NJM2BJS4XDRYDKC2Z7E6XNEHJECP5", "current_trial": 99, "dateTime": 1510777241927, "trialdata": {"rt": -1000, "stimulus": "/static/audio/wordpool/BRICK.wav", "key_press": -1, "type": "PRES_AUD", "word": "brick", "wordID": 171, "conditions": [12, 800, "a", 12000], "trial": 2, "serialpos": 10, "trial_type": "single-audio", "trial_index": 99, "time_elapsed": 488041, "internal_node_id": "0.0-72.0"}}, {"uniqueid": "MTK0378:3NJM2BJS4XDRYDKC2Z7E6XNEHJECP5", "current_trial": 100, "dateTime": 1510777243713, "trialdata": {"rt": -1000, "stimulus": "/static/audio/wordpool/PRIMATE.wav", "key_press": -1, "type": "PRES_AUD", "word": "primate", "wordID": 1122, "conditions": [12, 800, "a", 12000], "trial": 2, "serialpos": 11, "trial_type": "single-audio", "trial_index": 100, "time_elapsed": 489827, "internal_node_id": "0.0-73.0"}}, {"uniqueid": "MTK0378:3NJM2BJS4XDRYDKC2Z7E6XNEHJECP5", "current_trial": 101, "dateTime": 1510777244976, "trialdata": {"rt": -1, "stimulus": "", "key_press": -1, "type": "PRE_RECALL_DELAY", "trial_type": "single-stim", "trial_index": 101, "time_elapsed": 491089, "internal_node_id": "0.0-74.0-0.0"}}, {"uniqueid": "MTK0378:3NJM2BJS4XDRYDKC2Z7E6XNEHJECP5", "current_trial": 102, "dateTime": 1510777245476, "trialdata": {"rt": -1000, "stimulus": "/static/audio/400Hz.wav", "key_press": -1, "type": "PRE_RECALL_ALERT", "trial_type": "single-audio", "trial_index": 102, "time_elapsed": 491590, "internal_node_id": "0.0-75.0"}}, {"uniqueid": "MTK0378:3NJM2BJS4XDRYDKC2Z7E6XNEHJECP5", "current_trial": 103, "dateTime": 1510777305482, "trialdata": {"rt": [1305, 2312, 3904, 4776, 5824, 6792, 7568, 9961, 30865], "recwords": ["globe", "brick", "primate", "teacher", "judge", "jury", "hood", "knapsack", "motor"], "type": "FREE_RECALL", "conditions": [12, 800, "a", 12000], "trial": 2, "trial_type": "free-recall", "trial_index": 103, "time_elapsed": 551594, "internal_node_id": "0.0-76.0-0.0"}}, {"uniqueid": "MTK0378:3NJM2BJS4XDRYDKC2Z7E6XNEHJECP5", "current_trial": 104, "dateTime": 1510777308313, "trialdata": {"rt": 830, "key_press": 68, "type": "INSTRUCTIONS", "trial_type": "text", "trial_index": 104, "time_elapsed": 554427, "internal_node_id": "0.0-77.0"}}, {"uniqueid": "MTK0378:3NJM2BJS4XDRYDKC2Z7E6XNEHJECP5", "current_trial": 105, "dateTime": 1510777322315, "trialdata": {"rt": [2758, 4757, 6445, 8126, 10765], "responses": ["9", "20", "6", "18", "19"], "num1": [1, 7, 2, 6, 3, 7], "num2": [2, 6, 2, 3, 8, 6], "num3": [6, 7, 2, 9, 8, 8], "type": "DISTRACTOR", "conditions": [24, 800, "v", 12000], "trial": 3, "trial_type": "math-distractor", "trial_index": 105, "time_elapsed": 568429, "internal_node_id": "0.0-78.0"}}, {"uniqueid": "MTK0378:3NJM2BJS4XDRYDKC2Z7E6XNEHJECP5", "current_trial": 106, "dateTime": 1510777325316, "trialdata": {"rt": -1, "stimulus": "<p id=\"stim\">10</p>", "key_press": -1, "trial_type": "single-stim", "trial_index": 106, "time_elapsed": 571430, "internal_node_id": "0.0-79.0-0.0"}}, {"uniqueid": "MTK0378:3NJM2BJS4XDRYDKC2Z7E6XNEHJECP5", "current_trial": 107, "dateTime": 1510777326317, "trialdata": {"rt": -1, "stimulus": "<p id=\"stim\">9</p>", "key_press": -1, "trial_type": "single-stim", "trial_index": 107, "time_elapsed": 572431, "internal_node_id": "0.0-79.0-1.0"}}, {"uniqueid": "MTK0378:3NJM2BJS4XDRYDKC2Z7E6XNEHJECP5", "current_trial": 108, "dateTime": 1510777327319, "trialdata": {"rt": -1, "stimulus": "<p id=\"stim\">8</p>", "key_press": -1, "trial_type": "single-stim", "trial_index": 108, "time_elapsed": 573432, "internal_node_id": "0.0-79.0-2.0"}}, {"uniqueid": "MTK0378:3NJM2BJS4XDRYDKC2Z7E6XNEHJECP5", "current_trial": 109, "dateTime": 1510777328319, "trialdata": {"rt": -1, "stimulus": "<p id=\"stim\">7</p>", "key_press": -1, "trial_type": "single-stim", "trial_index": 109, "time_elapsed": 574433, "internal_node_id": "0.0-79.0-3.0"}}, {"uniqueid": "MTK0378:3NJM2BJS4XDRYDKC2Z7E6XNEHJECP5", "current_trial": 110, "dateTime": 1510777329320, "trialdata": {"rt": -1, "stimulus": "<p id=\"stim\">6</p>", "key_press": -1, "trial_type": "single-stim", "trial_index": 110, "time_elapsed": 575434, "internal_node_id": "0.0-79.0-4.0"}}, {"uniqueid": "MTK0378:3NJM2BJS4XDRYDKC2Z7E6XNEHJECP5", "current_trial": 111, "dateTime": 1510777330321, "trialdata": {"rt": -1, "stimulus": "<p id=\"stim\">5</p>", "key_press": -1, "trial_type": "single-stim", "trial_index": 111, "time_elapsed": 576435, "internal_node_id": "0.0-79.0-5.0"}}, {"uniqueid": "MTK0378:3NJM2BJS4XDRYDKC2Z7E6XNEHJECP5", "current_trial": 112, "dateTime": 1510777331323, "trialdata": {"rt": -1, "stimulus": "<p id=\"stim\">4</p>", "key_press": -1, "trial_type": "single-stim", "trial_index": 112, "time_elapsed": 577436, "internal_node_id": "0.0-79.0-6.0"}}, {"uniqueid": "MTK0378:3NJM2BJS4XDRYDKC2Z7E6XNEHJECP5", "current_trial": 113, "dateTime": 1510777332323, "trialdata": {"rt": -1, "stimulus": "<p id=\"stim\">3</p>", "key_press": -1, "trial_type": "single-stim", "trial_index": 113, "time_elapsed": 578437, "internal_node_id": "0.0-79.0-7.0"}}, {"uniqueid": "MTK0378:3NJM2BJS4XDRYDKC2Z7E6XNEHJECP5", "current_trial": 114, "dateTime": 1510777333324, "trialdata": {"rt": -1, "stimulus": "<p id=\"stim\">2</p>", "key_press": -1, "trial_type": "single-stim", "trial_index": 114, "time_elapsed": 579438, "internal_node_id": "0.0-79.0-8.0"}}, {"uniqueid": "MTK0378:3NJM2BJS4XDRYDKC2Z7E6XNEHJECP5", "current_trial": 115, "dateTime": 1510777334325, "trialdata": {"rt": -1, "stimulus": "<p id=\"stim\">1</p>", "key_press": -1, "trial_type": "single-stim", "trial_index": 115, "time_elapsed": 580439, "internal_node_id": "0.0-79.0-9.0"}}, {"uniqueid": "MTK0378:3NJM2BJS4XDRYDKC2Z7E6XNEHJECP5", "current_trial": 116, "dateTime": 1510777335826, "trialdata": {"rt": -1, "stimulus": "<p id=\"stim\">+</p>", "key_press": -1, "type": "FIXATION", "trial_type": "single-stim", "trial_index": 116, "time_elapsed": 581940, "internal_node_id": "0.0-80.0-0.0"}}, {"uniqueid": "MTK0378:3NJM2BJS4XDRYDKC2Z7E6XNEHJECP5", "current_trial": 117, "dateTime": 1510777336627, "trialdata": {"rt": -1, "stimulus": "<p id=\"stim\">JOURNAL</p>", "key_press": -1, "type": "PRES_VIS", "word": "journal", "wordID": 759, "conditions": [24, 800, "v", 12000], "trial": 3, "serialpos": 0, "trial_type": "single-stim", "trial_index": 117, "time_elapsed": 582741, "internal_node_id": "0.0-81.0"}}, {"uniqueid": "MTK0378:3NJM2BJS4XDRYDKC2Z7E6XNEHJECP5", "current_trial": 118, "dateTime": 1510777338265, "trialdata": {"rt": -1, "stimulus": "<p id=\"stim\">VICTIM</p>", "key_press": -1, "type": "PRES_VIS", "word": "victim", "wordID": 1561, "conditions": [24, 800, "v", 12000], "trial": 3, "serialpos": 1, "trial_type": "single-stim", "trial_index": 118, "time_elapsed": 584379, "internal_node_id": "0.0-82.0"}}, {"uniqueid": "MTK0378:3NJM2BJS4XDRYDKC2Z7E6XNEHJECP5", "current_trial": 119, "dateTime": 1510777339928, "trialdata": {"rt": -1, "stimulus": "<p id=\"stim\">NIGHTGOWN</p>", "key_press": -1, "type": "PRES_VIS", "word": "nightgown", "wordID": 952, "conditions": [24, 800, "v", 12000], "trial": 3, "serialpos": 2, "trial_type": "single-stim", "trial_index": 119, "time_elapsed": 586042, "internal_node_id": "0.0-83.0"}}, {"uniqueid": "MTK0378:3NJM2BJS4XDRYDKC2Z7E6XNEHJECP5", "current_trial": 120, "dateTime": 1510777341873, "trialdata": {"rt": -1, "stimulus": "<p id=\"stim\">PRINCESS</p>", "key_press": -1, "type": "PRES_VIS", "word": "princess", "wordID": 1124, "conditions": [24, 800, "v", 12000], "trial": 3, "serialpos": 3, "trial_type": "single-stim", "trial_index": 120, "time_elapsed": 587987, "internal_node_id": "0.0-84.0"}}, {"uniqueid": "MTK0378:3NJM2BJS4XDRYDKC2Z7E6XNEHJECP5", "current_trial": 121, "dateTime": 1510777343519, "trialdata": {"rt": -1, "stimulus": "<p id=\"stim\">SUSPECT</p>", "key_press": -1, "type": "PRES_VIS", "word": "suspect", "wordID": 1414, "conditions": [24, 800, "v", 12000], "trial": 3, "serialpos": 4, "trial_type": "single-stim", "trial_index": 121, "time_elapsed": 589633, "internal_node_id": "0.0-85.0"}}, {"uniqueid": "MTK0378:3NJM2BJS4XDRYDKC2Z7E6XNEHJECP5", "current_trial": 122, "dateTime": 1510777345462, "trialdata": {"rt": -1, "stimulus": "<p id=\"stim\">LEOPARD</p>", "key_press": -1, "type": "PRES_VIS", "word": "leopard", "wordID": 811, "conditions": [24, 800, "v", 12000], "trial": 3, "serialpos": 5, "trial_type": "single-stim", "trial_index": 122, "time_elapsed": 591576, "internal_node_id": "0.0-86.0"}}, {"uniqueid": "MTK0378:3NJM2BJS4XDRYDKC2Z7E6XNEHJECP5", "current_trial": 123, "dateTime": 1510777347394, "trialdata": {"rt": -1, "stimulus": "<p id=\"stim\">GALLON</p>", "key_press": -1, "type": "PRES_VIS", "word": "gallon", "wordID": 617, "conditions": [24, 800, "v", 12000], "trial": 3, "serialpos": 6, "trial_type": "single-stim", "trial_index": 123, "time_elapsed": 593507, "internal_node_id": "0.0-87.0"}}, {"uniqueid": "MTK0378:3NJM2BJS4XDRYDKC2Z7E6XNEHJECP5", "current_trial": 124, "dateTime": 1510777349365, "trialdata": {"rt": -1, "stimulus": "<p id=\"stim\">DANDRUFF</p>", "key_press": -1, "type": "PRES_VIS", "word": "dandruff", "wordID": 438, "conditions": [24, 800, "v", 12000], "trial": 3, "serialpos": 7, "trial_type": "single-stim", "trial_index": 124, "time_elapsed": 595478, "internal_node_id": "0.0-88.0"}}, {"uniqueid": "MTK0378:3NJM2BJS4XDRYDKC2Z7E6XNEHJECP5", "current_trial": 125, "dateTime": 1510777351214, "trialdata": {"rt": -1, "stimulus": "<p id=\"stim\">SCALLOP</p>", "key_press": -1, "type": "PRES_VIS", "word": "scallop", "wordID": 1241, "conditions": [24, 800, "v", 12000], "trial": 3, "serialpos": 8, "trial_type": "single-stim", "trial_index": 125, "time_elapsed": 597328, "internal_node_id": "0.0-89.0"}}, {"uniqueid": "MTK0378:3NJM2BJS4XDRYDKC2Z7E6XNEHJECP5", "current_trial": 126, "dateTime": 1510777352996, "trialdata": {"rt": -1, "stimulus": "<p id=\"stim\">OYSTER</p>", "key_press": -1, "type": "PRES_VIS", "word": "oyster", "wordID": 994, "conditions": [24, 800, "v", 12000], "trial": 3, "serialpos": 9, "trial_type": "single-stim", "trial_index": 126, "time_elapsed": 599110, "internal_node_id": "0.0-90.0"}}, {"uniqueid": "MTK0378:3NJM2BJS4XDRYDKC2Z7E6XNEHJECP5", "current_trial": 127, "dateTime": 1510777354681, "trialdata": {"rt": -1, "stimulus": "<p id=\"stim\">PLUTO</p>", "key_press": -1, "type": "PRES_VIS", "word": "pluto", "wordID": 1091, "conditions": [24, 800, "v", 12000], "trial": 3, "serialpos": 10, "trial_type": "single-stim", "trial_index": 127, "time_elapsed": 600795, "internal_node_id": "0.0-91.0"}}, {"uniqueid": "MTK0378:3NJM2BJS4XDRYDKC2Z7E6XNEHJECP5", "current_trial": 128, "dateTime": 1510777356680, "trialdata": {"rt": -1, "stimulus": "<p id=\"stim\">TERMITE</p>", "key_press": -1, "type": "PRES_VIS", "word": "termite", "wordID": 1450, "conditions": [24, 800, "v", 12000], "trial": 3, "serialpos": 11, "trial_type": "single-stim", "trial_index": 128, "time_elapsed": 602794, "internal_node_id": "0.0-92.0"}}, {"uniqueid": "MTK0378:3NJM2BJS4XDRYDKC2Z7E6XNEHJECP5", "current_trial": 129, "dateTime": 1510777358466, "trialdata": {"rt": -1, "stimulus": "<p id=\"stim\">MARKER</p>", "key_press": -1, "type": "PRES_VIS", "word": "marker", "wordID": 869, "conditions": [24, 800, "v", 12000], "trial": 3, "serialpos": 12, "trial_type": "single-stim", "trial_index": 129, "time_elapsed": 604579, "internal_node_id": "0.0-93.0"}}, {"uniqueid": "MTK0378:3NJM2BJS4XDRYDKC2Z7E6XNEHJECP5", "current_trial": 130, "dateTime": 1510777360382, "trialdata": {"rt": -1, "stimulus": "<p id=\"stim\">CITRUS</p>", "key_press": -1, "type": "PRES_VIS", "word": "citrus", "wordID": 312, "conditions": [24, 800, "v", 12000], "trial": 3, "serialpos": 13, "trial_type": "single-stim", "trial_index": 130, "time_elapsed": 606496, "internal_node_id": "0.0-94.0"}}, {"uniqueid": "MTK0378:3NJM2BJS4XDRYDKC2Z7E6XNEHJECP5", "current_trial": 131, "dateTime": 1510777362341, "trialdata": {"rt": -1, "stimulus": "<p id=\"stim\">DAISY</p>", "key_press": -1, "type": "PRES_VIS", "word": "daisy", "wordID": 434, "conditions": [24, 800, "v", 12000], "trial": 3, "serialpos": 14, "trial_type": "single-stim", "trial_index": 131, "time_elapsed": 608455, "internal_node_id": "0.0-95.0"}}, {"uniqueid": "MTK0378:3NJM2BJS4XDRYDKC2Z7E6XNEHJECP5", "current_trial": 132, "dateTime": 1510777364307, "trialdata": {"rt": -1, "stimulus": "<p id=\"stim\">CABBAGE</p>", "key_press": -1, "type": "PRES_VIS", "word": "cabbage", "wordID": 209, "conditions": [24, 800, "v", 12000], "trial": 3, "serialpos": 15, "trial_type": "single-stim", "trial_index": 132, "time_elapsed": 610421, "internal_node_id": "0.0-96.0"}}, {"uniqueid": "MTK0378:3NJM2BJS4XDRYDKC2Z7E6XNEHJECP5", "current_trial": 133, "dateTime": 1510777365933, "trialdata": {"rt": -1, "stimulus": "<p id=\"stim\">DUSTPAN</p>", "key_press": -1, "type": "PRES_VIS", "word": "dustpan", "wordID": 508, "conditions": [24, 800, "v", 12000], "trial": 3, "serialpos": 16, "trial_type": "single-stim", "trial_index": 133, "time_elapsed": 612047, "internal_node_id": "0.0-97.0"}}, {"uniqueid": "MTK0378:3NJM2BJS4XDRYDKC2Z7E6XNEHJECP5", "current_trial": 134, "dateTime": 1510777367603, "trialdata": {"rt": -1, "stimulus": "<p id=\"stim\">VAGRANT</p>", "key_press": -1, "type": "PRES_VIS", "word": "vagrant", "wordID": 1543, "conditions": [24, 800, "v", 12000], "trial": 3, "serialpos": 17, "trial_type": "single-stim", "trial_index": 134, "time_elapsed": 613717, "internal_node_id": "0.0-98.0"}}, {"uniqueid": "MTK0378:3NJM2BJS4XDRYDKC2Z7E6XNEHJECP5", "current_trial": 135, "dateTime": 1510777369542, "trialdata": {"rt": -1, "stimulus": "<p id=\"stim\">TUNNEL</p>", "key_press": -1, "type": "PRES_VIS", "word": "tunnel", "wordID": 1518, "conditions": [24, 800, "v", 12000], "trial": 3, "serialpos": 18, "trial_type": "single-stim", "trial_index": 135, "time_elapsed": 615656, "internal_node_id": "0.0-99.0"}}, {"uniqueid": "MTK0378:3NJM2BJS4XDRYDKC2Z7E6XNEHJECP5", "current_trial": 136, "dateTime": 1510777371253, "trialdata": {"rt": -1, "stimulus": "<p id=\"stim\">BROOK</p>", "key_press": -1, "type": "PRES_VIS", "word": "brook", "wordID": 176, "conditions": [24, 800, "v", 12000], "trial": 3, "serialpos": 19, "trial_type": "single-stim", "trial_index": 136, "time_elapsed": 617367, "internal_node_id": "0.0-100.0"}}, {"uniqueid": "MTK0378:3NJM2BJS4XDRYDKC2Z7E6XNEHJECP5", "current_trial": 137, "dateTime": 1510777373177, "trialdata": {"rt": -1, "stimulus": "<p id=\"stim\">RADISH</p>", "key_press": -1, "type": "PRES_VIS", "word": "radish", "wordID": 1157, "conditions": [24, 800, "v", 12000], "trial": 3, "serialpos": 20, "trial_type": "single-stim", "trial_index": 137, "time_elapsed": 619291, "internal_node_id": "0.0-101.0"}}, {"uniqueid": "MTK0378:3NJM2BJS4XDRYDKC2Z7E6XNEHJECP5", "current_trial": 138, "dateTime": 1510777374859, "trialdata": {"rt": -1, "stimulus": "<p id=\"stim\">SHELF</p>", "key_press": -1, "type": "PRES_VIS", "word": "shelf", "wordID": 1279, "conditions": [24, 800, "v", 12000], "trial": 3, "serialpos": 21, "trial_type": "single-stim", "trial_index": 138, "time_elapsed": 620973, "internal_node_id": "0.0-102.0"}}, {"uniqueid": "MTK0378:3NJM2BJS4XDRYDKC2Z7E6XNEHJECP5", "current_trial": 139, "dateTime": 1510777376580, "trialdata": {"rt": -1, "stimulus": "<p id=\"stim\">BUG</p>", "key_press": -1, "type": "PRES_VIS", "word": "bug", "wordID": 186, "conditions": [24, 800, "v", 12000], "trial": 3, "serialpos": 22, "trial_type": "single-stim", "trial_index": 139, "time_elapsed": 622694, "internal_node_id": "0.0-103.0"}}, {"uniqueid": "MTK0378:3NJM2BJS4XDRYDKC2Z7E6XNEHJECP5", "current_trial": 140, "dateTime": 1510777378258, "trialdata": {"rt": -1, "stimulus": "<p id=\"stim\">VIRUS</p>", "key_press": -1, "type": "PRES_VIS", "word": "virus", "wordID": 1571, "conditions": [24, 800, "v", 12000], "trial": 3, "serialpos": 23, "trial_type": "single-stim", "trial_index": 140, "time_elapsed": 624372, "internal_node_id": "0.0-104.0"}}, {"uniqueid": "MTK0378:3NJM2BJS4XDRYDKC2Z7E6XNEHJECP5", "current_trial": 141, "dateTime": 1510777380583, "trialdata": {"rt": -1, "stimulus": "", "key_press": -1, "type": "PRE_RECALL_DELAY", "trial_type": "single-stim", "trial_index": 141, "time_elapsed": 626697, "internal_node_id": "0.0-105.0-0.0"}}, {"uniqueid": "MTK0378:3NJM2BJS4XDRYDKC2Z7E6XNEHJECP5", "current_trial": 142, "dateTime": 1510777381085, "trialdata": {"rt": -1000, "stimulus": "/static/audio/400Hz.wav", "key_press": -1, "type": "PRE_RECALL_ALERT", "trial_type": "single-audio", "trial_index": 142, "time_elapsed": 627198, "internal_node_id": "0.0-106.0"}}, {"uniqueid": "MTK0378:3NJM2BJS4XDRYDKC2Z7E6XNEHJECP5", "current_trial": 143, "dateTime": 1510777441090, "trialdata": {"rt": [1010, 1666, 3018, 8265, 15874, 21682, 33042, 34962, 40633], "recwords": ["virus", "bug", "bookshelf", "vagrant", "dustpan", "cabbage", "victim", "journal", "princess"], "type": "FREE_RECALL", "conditions": [24, 800, "v", 12000], "trial": 3, "trial_type": "free-recall", "trial_index": 143, "time_elapsed": 687201, "internal_node_id": "0.0-107.0-0.0"}}, {"uniqueid": "MTK0378:3NJM2BJS4XDRYDKC2Z7E6XNEHJECP5", "current_trial": 144, "dateTime": 1510777465889, "trialdata": {"rt": 22798, "key_press": 68, "type": "INSTRUCTIONS", "trial_type": "text", "trial_index": 144, "time_elapsed": 712002, "internal_node_id": "0.0-108.0"}}, {"uniqueid": "MTK0378:3NJM2BJS4XDRYDKC2Z7E6XNEHJECP5", "current_trial": 145, "dateTime": 1510777479891, "trialdata": {"rt": [2846, 5694, 7221, 8613, 10221, 11725], "responses": ["17", "17", "18", "18", "15", "12"], "num1": [9, 8, 8, 6, 3, 3, 2], "num2": [3, 4, 3, 4, 6, 4, 1], "num3": [5, 5, 7, 8, 6, 5, 5], "type": "DISTRACTOR", "conditions": [24, 1600, "a", 12000], "trial": 4, "trial_type": "math-distractor", "trial_index": 145, "time_elapsed": 726005, "internal_node_id": "0.0-109.0"}}, {"uniqueid": "MTK0378:3NJM2BJS4XDRYDKC2Z7E6XNEHJECP5", "current_trial": 146, "dateTime": 1510777482892, "trialdata": {"rt": -1, "stimulus": "<p id=\"stim\">10</p>", "key_press": -1, "trial_type": "single-stim", "trial_index": 146, "time_elapsed": 729005, "internal_node_id": "0.0-110.0-0.0"}}, {"uniqueid": "MTK0378:3NJM2BJS4XDRYDKC2Z7E6XNEHJECP5", "current_trial": 147, "dateTime": 1510777483892, "trialdata": {"rt": -1, "stimulus": "<p id=\"stim\">9</p>", "key_press": -1, "trial_type": "single-stim", "trial_index": 147, "time_elapsed": 730006, "internal_node_id": "0.0-110.0-1.0"}}, {"uniqueid": "MTK0378:3NJM2BJS4XDRYDKC2Z7E6XNEHJECP5", "current_trial": 148, "dateTime": 1510777484893, "trialdata": {"rt": -1, "stimulus": "<p id=\"stim\">8</p>", "key_press": -1, "trial_type": "single-stim", "trial_index": 148, "time_elapsed": 731007, "internal_node_id": "0.0-110.0-2.0"}}, {"uniqueid": "MTK0378:3NJM2BJS4XDRYDKC2Z7E6XNEHJECP5", "current_trial": 149, "dateTime": 1510777485894, "trialdata": {"rt": -1, "stimulus": "<p id=\"stim\">7</p>", "key_press": -1, "trial_type": "single-stim", "trial_index": 149, "time_elapsed": 732008, "internal_node_id": "0.0-110.0-3.0"}}, {"uniqueid": "MTK0378:3NJM2BJS4XDRYDKC2Z7E6XNEHJECP5", "current_trial": 150, "dateTime": 1510777486895, "trialdata": {"rt": -1, "stimulus": "<p id=\"stim\">6</p>", "key_press": -1, "trial_type": "single-stim", "trial_index": 150, "time_elapsed": 733009, "internal_node_id": "0.0-110.0-4.0"}}, {"uniqueid": "MTK0378:3NJM2BJS4XDRYDKC2Z7E6XNEHJECP5", "current_trial": 151, "dateTime": 1510777487896, "trialdata": {"rt": -1, "stimulus": "<p id=\"stim\">5</p>", "key_press": -1, "trial_type": "single-stim", "trial_index": 151, "time_elapsed": 734010, "internal_node_id": "0.0-110.0-5.0"}}, {"uniqueid": "MTK0378:3NJM2BJS4XDRYDKC2Z7E6XNEHJECP5", "current_trial": 152, "dateTime": 1510777488897, "trialdata": {"rt": -1, "stimulus": "<p id=\"stim\">4</p>", "key_press": -1, "trial_type": "single-stim", "trial_index": 152, "time_elapsed": 735011, "internal_node_id": "0.0-110.0-6.0"}}, {"uniqueid": "MTK0378:3NJM2BJS4XDRYDKC2Z7E6XNEHJECP5", "current_trial": 153, "dateTime": 1510777489898, "trialdata": {"rt": -1, "stimulus": "<p id=\"stim\">3</p>", "key_press": -1, "trial_type": "single-stim", "trial_index": 153, "time_elapsed": 736012, "internal_node_id": "0.0-110.0-7.0"}}, {"uniqueid": "MTK0378:3NJM2BJS4XDRYDKC2Z7E6XNEHJECP5", "current_trial": 154, "dateTime": 1510777490899, "trialdata": {"rt": -1, "stimulus": "<p id=\"stim\">2</p>", "key_press": -1, "trial_type": "single-stim", "trial_index": 154, "time_elapsed": 737013, "internal_node_id": "0.0-110.0-8.0"}}, {"uniqueid": "MTK0378:3NJM2BJS4XDRYDKC2Z7E6XNEHJECP5", "current_trial": 155, "dateTime": 1510777491900, "trialdata": {"rt": -1, "stimulus": "<p id=\"stim\">1</p>", "key_press": -1, "trial_type": "single-stim", "trial_index": 155, "time_elapsed": 738014, "internal_node_id": "0.0-110.0-9.0"}}, {"uniqueid": "MTK0378:3NJM2BJS4XDRYDKC2Z7E6XNEHJECP5", "current_trial": 156, "dateTime": 1510777493402, "trialdata": {"rt": -1, "stimulus": "<p id=\"stim\">+</p>", "key_press": -1, "type": "FIXATION", "trial_type": "single-stim", "trial_index": 156, "time_elapsed": 739515, "internal_node_id": "0.0-111.0-0.0"}}, {"uniqueid": "MTK0378:3NJM2BJS4XDRYDKC2Z7E6XNEHJECP5", "current_trial": 157, "dateTime": 1510777495807, "trialdata": {"rt": -1000, "stimulus": "/static/audio/wordpool/HEADBAND.wav", "key_press": -1, "type": "PRES_AUD", "word": "headband", "wordID": 695, "conditions": [24, 1600, "a", 12000], "trial": 4, "serialpos": 0, "trial_type": "single-audio", "trial_index": 157, "time_elapsed": 741921, "internal_node_id": "0.0-112.0"}}, {"uniqueid": "MTK0378:3NJM2BJS4XDRYDKC2Z7E6XNEHJECP5", "current_trial": 158, "dateTime": 1510777498252, "trialdata": {"rt": -1000, "stimulus": "/static/audio/wordpool/BLOUSE.wav", "key_press": -1, "type": "PRES_AUD", "word": "blouse", "wordID": 138, "conditions": [24, 1600, "a", 12000], "trial": 4, "serialpos": 1, "trial_type": "single-audio", "trial_index": 158, "time_elapsed": 744366, "internal_node_id": "0.0-113.0"}}, {"uniqueid": "MTK0378:3NJM2BJS4XDRYDKC2Z7E6XNEHJECP5", "current_trial": 159, "dateTime": 1510777500927, "trialdata": {"rt": -1000, "stimulus": "/static/audio/wordpool/MONSTER.wav", "key_press": -1, "type": "PRES_AUD", "word": "monster", "wordID": 911, "conditions": [24, 1600, "a", 12000], "trial": 4, "serialpos": 2, "trial_type": "single-audio", "trial_index": 159, "time_elapsed": 747041, "internal_node_id": "0.0-114.0"}}, {"uniqueid": "MTK0378:3NJM2BJS4XDRYDKC2Z7E6XNEHJECP5", "current_trial": 160, "dateTime": 1510777503443, "trialdata": {"rt": -1000, "stimulus": "/static/audio/wordpool/COFFEE.wav", "key_press": -1, "type": "PRES_AUD", "word": "coffee", "wordID": 340, "conditions": [24, 1600, "a", 12000], "trial": 4, "serialpos": 3, "trial_type": "single-audio", "trial_index": 160, "time_elapsed": 749557, "internal_node_id": "0.0-115.0"}}, {"uniqueid": "MTK0378:3NJM2BJS4XDRYDKC2Z7E6XNEHJECP5", "current_trial": 161, "dateTime": 1510777506025, "trialdata": {"rt": -1000, "stimulus": "/static/audio/wordpool/SODA.wav", "key_press": -1, "type": "PRES_AUD", "word": "soda", "wordID": 1340, "conditions": [24, 1600, "a", 12000], "trial": 4, "serialpos": 4, "trial_type": "single-audio", "trial_index": 161, "time_elapsed": 752139, "internal_node_id": "0.0-116.0"}}, {"uniqueid": "MTK0378:3NJM2BJS4XDRYDKC2Z7E6XNEHJECP5", "current_trial": 162, "dateTime": 1510777508636, "trialdata": {"rt": -1000, "stimulus": "/static/audio/wordpool/TRACTOR.wav", "key_press": -1, "type": "PRES_AUD", "word": "tractor", "wordID": 1492, "conditions": [24, 1600, "a", 12000], "trial": 4, "serialpos": 5, "trial_type": "single-audio", "trial_index": 162, "time_elapsed": 754750, "internal_node_id": "0.0-117.0"}}, {"uniqueid": "MTK0378:3NJM2BJS4XDRYDKC2Z7E6XNEHJECP5", "current_trial": 163, "dateTime": 1510777511237, "trialdata": {"rt": -1000, "stimulus": "/static/audio/wordpool/BATHTUB.wav", "key_press": -1, "type": "PRES_AUD", "word": "bathtub", "wordID": 99, "conditions": [24, 1600, "a", 12000], "trial": 4, "serialpos": 6, "trial_type": "single-audio", "trial_index": 163, "time_elapsed": 757351, "internal_node_id": "0.0-118.0"}}, {"uniqueid": "MTK0378:3NJM2BJS4XDRYDKC2Z7E6XNEHJECP5", "current_trial": 164, "dateTime": 1510777513688, "trialdata": {"rt": -1000, "stimulus": "/static/audio/wordpool/COMPASS.wav", "key_press": -1, "type": "PRES_AUD", "word": "compass", "wordID": 357, "conditions": [24, 1600, "a", 12000], "trial": 4, "serialpos": 7, "trial_type": "single-audio", "trial_index": 164, "time_elapsed": 759802, "internal_node_id": "0.0-119.0"}}, {"uniqueid": "MTK0378:3NJM2BJS4XDRYDKC2Z7E6XNEHJECP5", "current_trial": 165, "dateTime": 1510777516263, "trialdata": {"rt": -1000, "stimulus": "/static/audio/wordpool/SNAIL.wav", "key_press": -1, "type": "PRES_AUD", "word": "snail", "wordID": 1331, "conditions": [24, 1600, "a", 12000], "trial": 4, "serialpos": 8, "trial_type": "single-audio", "trial_index": 165, "time_elapsed": 762377, "internal_node_id": "0.0-120.0"}}, {"uniqueid": "MTK0378:3NJM2BJS4XDRYDKC2Z7E6XNEHJECP5", "current_trial": 166, "dateTime": 1510777518758, "trialdata": {"rt": -1000, "stimulus": "/static/audio/wordpool/PADDLE.wav", "key_press": -1, "type": "PRES_AUD", "word": "paddle", "wordID": 999, "conditions": [24, 1600, "a", 12000], "trial": 4, "serialpos": 9, "trial_type": "single-audio", "trial_index": 166, "time_elapsed": 764872, "internal_node_id": "0.0-121.0"}}, {"uniqueid": "MTK0378:3NJM2BJS4XDRYDKC2Z7E6XNEHJECP5", "current_trial": 167, "dateTime": 1510777521311, "trialdata": {"rt": -1000, "stimulus": "/static/audio/wordpool/CLOTHES.wav", "key_press": -1, "type": "PRES_AUD", "word": "clothes", "wordID": 326, "conditions": [24, 1600, "a", 12000], "trial": 4, "serialpos": 10, "trial_type": "single-audio", "trial_index": 167, "time_elapsed": 767425, "internal_node_id": "0.0-122.0"}}, {"uniqueid": "MTK0378:3NJM2BJS4XDRYDKC2Z7E6XNEHJECP5", "current_trial": 168, "dateTime": 1510777523825, "trialdata": {"rt": -1000, "stimulus": "/static/audio/wordpool/TRUCK.wav", "key_press": -1, "type": "PRES_AUD", "word": "truck", "wordID": 1511, "conditions": [24, 1600, "a", 12000], "trial": 4, "serialpos": 11, "trial_type": "single-audio", "trial_index": 168, "time_elapsed": 769939, "internal_node_id": "0.0-123.0"}}, {"uniqueid": "MTK0378:3NJM2BJS4XDRYDKC2Z7E6XNEHJECP5", "current_trial": 169, "dateTime": 1510777526388, "trialdata": {"rt": -1000, "stimulus": "/static/audio/wordpool/SPACE.wav", "key_press": -1, "type": "PRES_AUD", "word": "space", "wordID": 1344, "conditions": [24, 1600, "a", 12000], "trial": 4, "serialpos": 12, "trial_type": "single-audio", "trial_index": 169, "time_elapsed": 772502, "internal_node_id": "0.0-124.0"}}, {"uniqueid": "MTK0378:3NJM2BJS4XDRYDKC2Z7E6XNEHJECP5", "current_trial": 170, "dateTime": 1510777528937, "trialdata": {"rt": -1000, "stimulus": "/static/audio/wordpool/TWISTER.wav", "key_press": -1, "type": "PRES_AUD", "word": "twister", "wordID": 1529, "conditions": [24, 1600, "a", 12000], "trial": 4, "serialpos": 13, "trial_type": "single-audio", "trial_index": 170, "time_elapsed": 775051, "internal_node_id": "0.0-125.0"}}, {"uniqueid": "MTK0378:3NJM2BJS4XDRYDKC2Z7E6XNEHJECP5", "current_trial": 171, "dateTime": 1510777531672, "trialdata": {"rt": -1000, "stimulus": "/static/audio/wordpool/STICKER.wav", "key_press": -1, "type": "PRES_AUD", "word": "sticker", "wordID": 1381, "conditions": [24, 1600, "a", 12000], "trial": 4, "serialpos": 14, "trial_type": "single-audio", "trial_index": 171, "time_elapsed": 777786, "internal_node_id": "0.0-126.0"}}, {"uniqueid": "MTK0378:3NJM2BJS4XDRYDKC2Z7E6XNEHJECP5", "current_trial": 172, "dateTime": 1510777534223, "trialdata": {"rt": -1000, "stimulus": "/static/audio/wordpool/GARDEN.wav", "key_press": -1, "type": "PRES_AUD", "word": "garden", "wordID": 622, "conditions": [24, 1600, "a", 12000], "trial": 4, "serialpos": 15, "trial_type": "single-audio", "trial_index": 172, "time_elapsed": 780337, "internal_node_id": "0.0-127.0"}}, {"uniqueid": "MTK0378:3NJM2BJS4XDRYDKC2Z7E6XNEHJECP5", "current_trial": 173, "dateTime": 1510777536846, "trialdata": {"rt": -1000, "stimulus": "/static/audio/wordpool/BRANCH.wav", "key_press": -1, "type": "PRES_AUD", "word": "branch", "wordID": 167, "conditions": [24, 1600, "a", 12000], "trial": 4, "serialpos": 16, "trial_type": "single-audio", "trial_index": 173, "time_elapsed": 782960, "internal_node_id": "0.0-128.0"}}, {"uniqueid": "MTK0378:3NJM2BJS4XDRYDKC2Z7E6XNEHJECP5", "current_trial": 174, "dateTime": 1510777539409, "trialdata": {"rt": -1000, "stimulus": "/static/audio/wordpool/SKILLET.wav", "key_press": -1, "type": "PRES_AUD", "word": "skillet", "wordID": 1316, "conditions": [24, 1600, "a", 12000], "trial": 4, "serialpos": 17, "trial_type": "single-audio", "trial_index": 174, "time_elapsed": 785523, "internal_node_id": "0.0-129.0"}}, {"uniqueid": "MTK0378:3NJM2BJS4XDRYDKC2Z7E6XNEHJECP5", "current_trial": 175, "dateTime": 1510777541887, "trialdata": {"rt": -1000, "stimulus": "/static/audio/wordpool/CHEST.wav", "key_press": -1, "type": "PRES_AUD", "word": "chest", "wordID": 294, "conditions": [24, 1600, "a", 12000], "trial": 4, "serialpos": 18, "trial_type": "single-audio", "trial_index": 175, "time_elapsed": 788001, "internal_node_id": "0.0-130.0"}}, {"uniqueid": "MTK0378:3NJM2BJS4XDRYDKC2Z7E6XNEHJECP5", "current_trial": 176, "dateTime": 1510777544532, "trialdata": {"rt": -1000, "stimulus": "/static/audio/wordpool/FOREHEAD.wav", "key_press": -1, "type": "PRES_AUD", "word": "forehead", "wordID": 591, "conditions": [24, 1600, "a", 12000], "trial": 4, "serialpos": 19, "trial_type": "single-audio", "trial_index": 176, "time_elapsed": 790646, "internal_node_id": "0.0-131.0"}}, {"uniqueid": "MTK0378:3NJM2BJS4XDRYDKC2Z7E6XNEHJECP5", "current_trial": 177, "dateTime": 1510777547332, "trialdata": {"rt": -1000, "stimulus": "/static/audio/wordpool/MAMMAL.wav", "key_press": -1, "type": "PRES_AUD", "word": "mammal", "wordID": 860, "conditions": [24, 1600, "a", 12000], "trial": 4, "serialpos": 20, "trial_type": "single-audio", "trial_index": 177, "time_elapsed": 793446, "internal_node_id": "0.0-132.0"}}, {"uniqueid": "MTK0378:3NJM2BJS4XDRYDKC2Z7E6XNEHJECP5", "current_trial": 178, "dateTime": 1510777550069, "trialdata": {"rt": -1000, "stimulus": "/static/audio/wordpool/BADGE.wav", "key_press": -1, "type": "PRES_AUD", "word": "badge", "wordID": 67, "conditions": [24, 1600, "a", 12000], "trial": 4, "serialpos": 21, "trial_type": "single-audio", "trial_index": 178, "time_elapsed": 796183, "internal_node_id": "0.0-133.0"}}, {"uniqueid": "MTK0378:3NJM2BJS4XDRYDKC2Z7E6XNEHJECP5", "current_trial": 179, "dateTime": 1510777552627, "trialdata": {"rt": -1000, "stimulus": "/static/audio/wordpool/PIGEON.wav", "key_press": -1, "type": "PRES_AUD", "word": "pigeon", "wordID": 1064, "conditions": [24, 1600, "a", 12000], "trial": 4, "serialpos": 22, "trial_type": "single-audio", "trial_index": 179, "time_elapsed": 798741, "internal_node_id": "0.0-134.0"}}, {"uniqueid": "MTK0378:3NJM2BJS4XDRYDKC2Z7E6XNEHJECP5", "current_trial": 180, "dateTime": 1510777555090, "trialdata": {"rt": -1000, "stimulus": "/static/audio/wordpool/WORKER.wav", "key_press": -1, "type": "PRES_AUD", "word": "worker", "wordID": 1620, "conditions": [24, 1600, "a", 12000], "trial": 4, "serialpos": 23, "trial_type": "single-audio", "trial_index": 180, "time_elapsed": 801204, "internal_node_id": "0.0-135.0"}}, {"uniqueid": "MTK0378:3NJM2BJS4XDRYDKC2Z7E6XNEHJECP5", "current_trial": 181, "dateTime": 1510777556328, "trialdata": {"rt": -1, "stimulus": "", "key_press": -1, "type": "PRE_RECALL_DELAY", "trial_type": "single-stim", "trial_index": 181, "time_elapsed": 802441, "internal_node_id": "0.0-136.0-0.0"}}, {"uniqueid": "MTK0378:3NJM2BJS4XDRYDKC2Z7E6XNEHJECP5", "current_trial": 182, "dateTime": 1510777556829, "trialdata": {"rt": -1000, "stimulus": "/static/audio/400Hz.wav", "key_press": -1, "type": "PRE_RECALL_ALERT", "trial_type": "single-audio", "trial_index": 182, "time_elapsed": 802942, "internal_node_id": "0.0-137.0"}}, {"uniqueid": "MTK0378:3NJM2BJS4XDRYDKC2Z7E6XNEHJECP5", "current_trial": 183, "dateTime": 1510777616836, "trialdata": {"rt": [2314, 3161, 4969, 6345, 9145, 10273, 13690, 15450, 17642, 27609], "recwords": ["mammal", "badge", "pidgeon", "worker", "forehead", "monster", "headband", "blouse", "branch", "virus"], "type": "FREE_RECALL", "conditions": [24, 1600, "a", 12000], "trial": 4, "trial_type": "free-recall", "trial_index": 183, "time_elapsed": 862946, "internal_node_id": "0.0-138.0-0.0"}}, {"uniqueid": "MTK0378:3NJM2BJS4XDRYDKC2Z7E6XNEHJECP5", "current_trial": 184, "dateTime": 1510777619176, "trialdata": {"rt": 339, "key_press": 68, "type": "INSTRUCTIONS", "trial_type": "text", "trial_index": 184, "time_elapsed": 865290, "internal_node_id": "0.0-139.0"}}, {"uniqueid": "MTK0378:3NJM2BJS4XDRYDKC2Z7E6XNEHJECP5", "current_trial": 185, "dateTime": 1510777645179, "trialdata": {"rt": [2671, 4927, 7126, 8871, 10766, 12422, 14054, 15598, 17422, 19751, 22431], "responses": ["15", "17", "21", "18", "19", "11", "17", "18", "19", "14", "16"], "num1": [5, 7, 6, 3, 4, 3, 7, 7, 2, 7, 6, 2], "num2": [8, 7, 7, 8, 7, 7, 5, 3, 9, 1, 8, 5], "num3": [2, 3, 8, 7, 8, 1, 5, 8, 8, 6, 2, 5], "type": "DISTRACTOR", "conditions": [24, 800, "v", 24000], "trial": 5, "trial_type": "math-distractor", "trial_index": 185, "time_elapsed": 891293, "internal_node_id": "0.0-140.0"}}, {"uniqueid": "MTK0378:3NJM2BJS4XDRYDKC2Z7E6XNEHJECP5", "current_trial": 186, "dateTime": 1510777648179, "trialdata": {"rt": -1, "stimulus": "<p id=\"stim\">10</p>", "key_press": -1, "trial_type": "single-stim", "trial_index": 186, "time_elapsed": 894293, "internal_node_id": "0.0-141.0-0.0"}}, {"uniqueid": "MTK0378:3NJM2BJS4XDRYDKC2Z7E6XNEHJECP5", "current_trial": 187, "dateTime": 1510777649181, "trialdata": {"rt": -1, "stimulus": "<p id=\"stim\">9</p>", "key_press": -1, "trial_type": "single-stim", "trial_index": 187, "time_elapsed": 895294, "internal_node_id": "0.0-141.0-1.0"}}, {"uniqueid": "MTK0378:3NJM2BJS4XDRYDKC2Z7E6XNEHJECP5", "current_trial": 188, "dateTime": 1510777650181, "trialdata": {"rt": -1, "stimulus": "<p id=\"stim\">8</p>", "key_press": -1, "trial_type": "single-stim", "trial_index": 188, "time_elapsed": 896295, "internal_node_id": "0.0-141.0-2.0"}}, {"uniqueid": "MTK0378:3NJM2BJS4XDRYDKC2Z7E6XNEHJECP5", "current_trial": 189, "dateTime": 1510777651182, "trialdata": {"rt": -1, "stimulus": "<p id=\"stim\">7</p>", "key_press": -1, "trial_type": "single-stim", "trial_index": 189, "time_elapsed": 897296, "internal_node_id": "0.0-141.0-3.0"}}, {"uniqueid": "MTK0378:3NJM2BJS4XDRYDKC2Z7E6XNEHJECP5", "current_trial": 190, "dateTime": 1510777652184, "trialdata": {"rt": -1, "stimulus": "<p id=\"stim\">6</p>", "key_press": -1, "trial_type": "single-stim", "trial_index": 190, "time_elapsed": 898298, "internal_node_id": "0.0-141.0-4.0"}}, {"uniqueid": "MTK0378:3NJM2BJS4XDRYDKC2Z7E6XNEHJECP5", "current_trial": 191, "dateTime": 1510777653184, "trialdata": {"rt": -1, "stimulus": "<p id=\"stim\">5</p>", "key_press": -1, "trial_type": "single-stim", "trial_index": 191, "time_elapsed": 899298, "internal_node_id": "0.0-141.0-5.0"}}, {"uniqueid": "MTK0378:3NJM2BJS4XDRYDKC2Z7E6XNEHJECP5", "current_trial": 192, "dateTime": 1510777654185, "trialdata": {"rt": -1, "stimulus": "<p id=\"stim\">4</p>", "key_press": -1, "trial_type": "single-stim", "trial_index": 192, "time_elapsed": 900299, "internal_node_id": "0.0-141.0-6.0"}}, {"uniqueid": "MTK0378:3NJM2BJS4XDRYDKC2Z7E6XNEHJECP5", "current_trial": 193, "dateTime": 1510777655187, "trialdata": {"rt": -1, "stimulus": "<p id=\"stim\">3</p>", "key_press": -1, "trial_type": "single-stim", "trial_index": 193, "time_elapsed": 901300, "internal_node_id": "0.0-141.0-7.0"}}, {"uniqueid": "MTK0378:3NJM2BJS4XDRYDKC2Z7E6XNEHJECP5", "current_trial": 194, "dateTime": 1510777656188, "trialdata": {"rt": -1, "stimulus": "<p id=\"stim\">2</p>", "key_press": -1, "trial_type": "single-stim", "trial_index": 194, "time_elapsed": 902301, "internal_node_id": "0.0-141.0-8.0"}}, {"uniqueid": "MTK0378:3NJM2BJS4XDRYDKC2Z7E6XNEHJECP5", "current_trial": 195, "dateTime": 1510777657189, "trialdata": {"rt": -1, "stimulus": "<p id=\"stim\">1</p>", "key_press": -1, "trial_type": "single-stim", "trial_index": 195, "time_elapsed": 903302, "internal_node_id": "0.0-141.0-9.0"}}, {"uniqueid": "MTK0378:3NJM2BJS4XDRYDKC2Z7E6XNEHJECP5", "current_trial": 196, "dateTime": 1510777658689, "trialdata": {"rt": -1, "stimulus": "<p id=\"stim\">+</p>", "key_press": -1, "type": "FIXATION", "trial_type": "single-stim", "trial_index": 196, "time_elapsed": 904803, "internal_node_id": "0.0-142.0-0.0"}}, {"uniqueid": "MTK0378:3NJM2BJS4XDRYDKC2Z7E6XNEHJECP5", "current_trial": 197, "dateTime": 1510777659490, "trialdata": {"rt": -1, "stimulus": "<p id=\"stim\">KNIFE</p>", "key_press": -1, "type": "PRES_VIS", "word": "knife", "wordID": 784, "conditions": [24, 800, "v", 24000], "trial": 5, "serialpos": 0, "trial_type": "single-stim", "trial_index": 197, "time_elapsed": 905604, "internal_node_id": "0.0-143.0"}}, {"uniqueid": "MTK0378:3NJM2BJS4XDRYDKC2Z7E6XNEHJECP5", "current_trial": 198, "dateTime": 1510777661183, "trialdata": {"rt": -1, "stimulus": "<p id=\"stim\">BEAKER</p>", "key_press": -1, "type": "PRES_VIS", "word": "beaker", "wordID": 103, "conditions": [24, 800, "v", 24000], "trial": 5, "serialpos": 1, "trial_type": "single-stim", "trial_index": 198, "time_elapsed": 907296, "internal_node_id": "0.0-144.0"}}, {"uniqueid": "MTK0378:3NJM2BJS4XDRYDKC2Z7E6XNEHJECP5", "current_trial": 199, "dateTime": 1510777662844, "trialdata": {"rt": -1, "stimulus": "<p id=\"stim\">CELLAR</p>", "key_press": -1, "type": "PRES_VIS", "word": "cellar", "wordID": 266, "conditions": [24, 800, "v", 24000], "trial": 5, "serialpos": 2, "trial_type": "single-stim", "trial_index": 199, "time_elapsed": 908958, "internal_node_id": "0.0-145.0"}}, {"uniqueid": "MTK0378:3NJM2BJS4XDRYDKC2Z7E6XNEHJECP5", "current_trial": 200, "dateTime": 1510777664704, "trialdata": {"rt": -1, "stimulus": "<p id=\"stim\">CHIPMUNK</p>", "key_press": -1, "type": "PRES_VIS", "word": "chipmunk", "wordID": 303, "conditions": [24, 800, "v", 24000], "trial": 5, "serialpos": 3, "trial_type": "single-stim", "trial_index": 200, "time_elapsed": 910818, "internal_node_id": "0.0-146.0"}}, {"uniqueid": "MTK0378:3NJM2BJS4XDRYDKC2Z7E6XNEHJECP5", "current_trial": 201, "dateTime": 1510777666683, "trialdata": {"rt": -1, "stimulus": "<p id=\"stim\">COOKBOOK</p>", "key_press": -1, "type": "PRES_VIS", "word": "cookbook", "wordID": 372, "conditions": [24, 800, "v", 24000], "trial": 5, "serialpos": 4, "trial_type": "single-stim", "trial_index": 201, "time_elapsed": 912797, "internal_node_id": "0.0-147.0"}}, {"uniqueid": "MTK0378:3NJM2BJS4XDRYDKC2Z7E6XNEHJECP5", "current_trial": 202, "dateTime": 1510777668665, "trialdata": {"rt": -1, "stimulus": "<p id=\"stim\">BACON</p>", "key_press": -1, "type": "PRES_VIS", "word": "bacon", "wordID": 66, "conditions": [24, 800, "v", 24000], "trial": 5, "serialpos": 5, "trial_type": "single-stim", "trial_index": 202, "time_elapsed": 914779, "internal_node_id": "0.0-148.0"}}, {"uniqueid": "MTK0378:3NJM2BJS4XDRYDKC2Z7E6XNEHJECP5", "current_trial": 203, "dateTime": 1510777670588, "trialdata": {"rt": -1, "stimulus": "<p id=\"stim\">TURKEY</p>", "key_press": -1, "type": "PRES_VIS", "word": "turkey", "wordID": 1519, "conditions": [24, 800, "v", 24000], "trial": 5, "serialpos": 6, "trial_type": "single-stim", "trial_index": 203, "time_elapsed": 916701, "internal_node_id": "0.0-149.0"}}, {"uniqueid": "MTK0378:3NJM2BJS4XDRYDKC2Z7E6XNEHJECP5", "current_trial": 204, "dateTime": 1510777672467, "trialdata": {"rt": -1, "stimulus": "<p id=\"stim\">PUPPY</p>", "key_press": -1, "type": "PRES_VIS", "word": "puppy", "wordID": 1143, "conditions": [24, 800, "v", 24000], "trial": 5, "serialpos": 7, "trial_type": "single-stim", "trial_index": 204, "time_elapsed": 918581, "internal_node_id": "0.0-150.0"}}, {"uniqueid": "MTK0378:3NJM2BJS4XDRYDKC2Z7E6XNEHJECP5", "current_trial": 205, "dateTime": 1510777674119, "trialdata": {"rt": -1, "stimulus": "<p id=\"stim\">TWIG</p>", "key_press": -1, "type": "PRES_VIS", "word": "twig", "wordID": 1526, "conditions": [24, 800, "v", 24000], "trial": 5, "serialpos": 8, "trial_type": "single-stim", "trial_index": 205, "time_elapsed": 920232, "internal_node_id": "0.0-151.0"}}, {"uniqueid": "MTK0378:3NJM2BJS4XDRYDKC2Z7E6XNEHJECP5", "current_trial": 206, "dateTime": 1510777675730, "trialdata": {"rt": -1, "stimulus": "<p id=\"stim\">SWORD</p>", "key_press": -1, "type": "PRES_VIS", "word": "sword", "wordID": 1422, "conditions": [24, 800, "v", 24000], "trial": 5, "serialpos": 9, "trial_type": "single-stim", "trial_index": 206, "time_elapsed": 921844, "internal_node_id": "0.0-152.0"}}, {"uniqueid": "MTK0378:3NJM2BJS4XDRYDKC2Z7E6XNEHJECP5", "current_trial": 207, "dateTime": 1510777677643, "trialdata": {"rt": -1, "stimulus": "<p id=\"stim\">THIEF</p>", "key_press": -1, "type": "PRES_VIS", "word": "thief", "wordID": 1455, "conditions": [24, 800, "v", 24000], "trial": 5, "serialpos": 10, "trial_type": "single-stim", "trial_index": 207, "time_elapsed": 923755, "internal_node_id": "0.0-153.0"}}, {"uniqueid": "MTK0378:3NJM2BJS4XDRYDKC2Z7E6XNEHJECP5", "current_trial": 208, "dateTime": 1510777679413, "trialdata": {"rt": -1, "stimulus": "<p id=\"stim\">LABEL</p>", "key_press": -1, "type": "PRES_VIS", "word": "label", "wordID": 789, "conditions": [24, 800, "v", 24000], "trial": 5, "serialpos": 11, "trial_type": "single-stim", "trial_index": 208, "time_elapsed": 925527, "internal_node_id": "0.0-154.0"}}, {"uniqueid": "MTK0378:3NJM2BJS4XDRYDKC2Z7E6XNEHJECP5", "current_trial": 209, "dateTime": 1510777681390, "trialdata": {"rt": -1, "stimulus": "<p id=\"stim\">BURGLAR</p>", "key_press": -1, "type": "PRES_VIS", "word": "burglar", "wordID": 199, "conditions": [24, 800, "v", 24000], "trial": 5, "serialpos": 12, "trial_type": "single-stim", "trial_index": 209, "time_elapsed": 927503, "internal_node_id": "0.0-155.0"}}, {"uniqueid": "MTK0378:3NJM2BJS4XDRYDKC2Z7E6XNEHJECP5", "current_trial": 210, "dateTime": 1510777683281, "trialdata": {"rt": -1, "stimulus": "<p id=\"stim\">MATTRESS</p>", "key_press": -1, "type": "PRES_VIS", "word": "mattress", "wordID": 878, "conditions": [24, 800, "v", 24000], "trial": 5, "serialpos": 13, "trial_type": "single-stim", "trial_index": 210, "time_elapsed": 929395, "internal_node_id": "0.0-156.0"}}, {"uniqueid": "MTK0378:3NJM2BJS4XDRYDKC2Z7E6XNEHJECP5", "current_trial": 211, "dateTime": 1510777685107, "trialdata": {"rt": -1, "stimulus": "<p id=\"stim\">BREAST</p>", "key_press": -1, "type": "PRES_VIS", "word": "breast", "wordID": 170, "conditions": [24, 800, "v", 24000], "trial": 5, "serialpos": 14, "trial_type": "single-stim", "trial_index": 211, "time_elapsed": 931221, "internal_node_id": "0.0-157.0"}}, {"uniqueid": "MTK0378:3NJM2BJS4XDRYDKC2Z7E6XNEHJECP5", "current_trial": 212, "dateTime": 1510777686769, "trialdata": {"rt": -1, "stimulus": "<p id=\"stim\">RUG</p>", "key_press": -1, "type": "PRES_VIS", "word": "rug", "wordID": 1214, "conditions": [24, 800, "v", 24000], "trial": 5, "serialpos": 15, "trial_type": "single-stim", "trial_index": 212, "time_elapsed": 932883, "internal_node_id": "0.0-158.0"}}, {"uniqueid": "MTK0378:3NJM2BJS4XDRYDKC2Z7E6XNEHJECP5", "current_trial": 213, "dateTime": 1510777688713, "trialdata": {"rt": -1, "stimulus": "<p id=\"stim\">ANTLER</p>", "key_press": -1, "type": "PRES_VIS", "word": "antler", "wordID": 28, "conditions": [24, 800, "v", 24000], "trial": 5, "serialpos": 16, "trial_type": "single-stim", "trial_index": 213, "time_elapsed": 934827, "internal_node_id": "0.0-159.0"}}, {"uniqueid": "MTK0378:3NJM2BJS4XDRYDKC2Z7E6XNEHJECP5", "current_trial": 214, "dateTime": 1510777690620, "trialdata": {"rt": -1, "stimulus": "<p id=\"stim\">KITCHEN</p>", "key_press": -1, "type": "PRES_VIS", "word": "kitchen", "wordID": 777, "conditions": [24, 800, "v", 24000], "trial": 5, "serialpos": 17, "trial_type": "single-stim", "trial_index": 214, "time_elapsed": 936734, "internal_node_id": "0.0-160.0"}}, {"uniqueid": "MTK0378:3NJM2BJS4XDRYDKC2Z7E6XNEHJECP5", "current_trial": 215, "dateTime": 1510777692273, "trialdata": {"rt": -1, "stimulus": "<p id=\"stim\">BASEMENT</p>", "key_press": -1, "type": "PRES_VIS", "word": "basement", "wordID": 93, "conditions": [24, 800, "v", 24000], "trial": 5, "serialpos": 18, "trial_type": "single-stim", "trial_index": 215, "time_elapsed": 938386, "internal_node_id": "0.0-161.0"}}, {"uniqueid": "MTK0378:3NJM2BJS4XDRYDKC2Z7E6XNEHJECP5", "current_trial": 216, "dateTime": 1510777693925, "trialdata": {"rt": -1, "stimulus": "<p id=\"stim\">ROBBER</p>", "key_press": -1, "type": "PRES_VIS", "word": "robber", "wordID": 1196, "conditions": [24, 800, "v", 24000], "trial": 5, "serialpos": 19, "trial_type": "single-stim", "trial_index": 216, "time_elapsed": 940038, "internal_node_id": "0.0-162.0"}}, {"uniqueid": "MTK0378:3NJM2BJS4XDRYDKC2Z7E6XNEHJECP5", "current_trial": 217, "dateTime": 1510777695587, "trialdata": {"rt": -1, "stimulus": "<p id=\"stim\">TURTLE</p>", "key_press": -1, "type": "PRES_VIS", "word": "turtle", "wordID": 1521, "conditions": [24, 800, "v", 24000], "trial": 5, "serialpos": 20, "trial_type": "single-stim", "trial_index": 217, "time_elapsed": 941701, "internal_node_id": "0.0-163.0"}}, {"uniqueid": "MTK0378:3NJM2BJS4XDRYDKC2Z7E6XNEHJECP5", "current_trial": 218, "dateTime": 1510777697571, "trialdata": {"rt": -1, "stimulus": "<p id=\"stim\">COUSIN</p>", "key_press": -1, "type": "PRES_VIS", "word": "cousin", "wordID": 391, "conditions": [24, 800, "v", 24000], "trial": 5, "serialpos": 21, "trial_type": "single-stim", "trial_index": 218, "time_elapsed": 943684, "internal_node_id": "0.0-164.0"}}, {"uniqueid": "MTK0378:3NJM2BJS4XDRYDKC2Z7E6XNEHJECP5", "current_trial": 219, "dateTime": 1510777699432, "trialdata": {"rt": -1, "stimulus": "<p id=\"stim\">HATCHET</p>", "key_press": -1, "type": "PRES_VIS", "word": "hatchet", "wordID": 690, "conditions": [24, 800, "v", 24000], "trial": 5, "serialpos": 22, "trial_type": "single-stim", "trial_index": 219, "time_elapsed": 945545, "internal_node_id": "0.0-165.0"}}, {"uniqueid": "MTK0378:3NJM2BJS4XDRYDKC2Z7E6XNEHJECP5", "current_trial": 220, "dateTime": 1510777701184, "trialdata": {"rt": -1, "stimulus": "<p id=\"stim\">HAWK</p>", "key_press": -1, "type": "PRES_VIS", "word": "hawk", "wordID": 691, "conditions": [24, 800, "v", 24000], "trial": 5, "serialpos": 23, "trial_type": "single-stim", "trial_index": 220, "time_elapsed": 947298, "internal_node_id": "0.0-166.0"}}, {"uniqueid": "MTK0378:3NJM2BJS4XDRYDKC2Z7E6XNEHJECP5", "current_trial": 221, "dateTime": 1510777703714, "trialdata": {"rt": -1, "stimulus": "", "key_press": -1, "type": "PRE_RECALL_DELAY", "trial_type": "single-stim", "trial_index": 221, "time_elapsed": 949828, "internal_node_id": "0.0-167.0-0.0"}}, {"uniqueid": "MTK0378:3NJM2BJS4XDRYDKC2Z7E6XNEHJECP5", "current_trial": 222, "dateTime": 1510777704216, "trialdata": {"rt": -1000, "stimulus": "/static/audio/400Hz.wav", "key_press": -1, "type": "PRE_RECALL_ALERT", "trial_type": "single-audio", "trial_index": 222, "time_elapsed": 950329, "internal_node_id": "0.0-168.0"}}, {"uniqueid": "MTK0378:3NJM2BJS4XDRYDKC2Z7E6XNEHJECP5", "current_trial": 223, "dateTime": 1510777764226, "trialdata": {"rt": [1109, 2933, 4309, 5302, 7822, 10326, 13102, 14213, 16085], "recwords": ["turtle", "basemant", "knife", "beaker", "chipmunk", "branch", "bacon", "turkey", "puppy"], "type": "FREE_RECALL", "conditions": [24, 800, "v", 24000], "trial": 5, "trial_type": "free-recall", "trial_index": 223, "time_elapsed": 1010333, "internal_node_id": "0.0-169.0-0.0"}}], "questiondata": {}, "eventdata": [{"eventtype": "initialized", "value": null, "timestamp": 1510776747109, "interval": 0}, {"eventtype": "window_resize", "value": [1280, 681], "timestamp": 1510776747109, "interval": 0}, {"eventtype": "focus", "value": "off", "timestamp": 1510776751767, "interval": 4658}, {"eventtype": "focus", "value": "on", "timestamp": 1510776753648, "interval": 1881}, {"eventtype": "window_resize", "value": [1280, 685], "timestamp": 1510776754213, "interval": 565}, {"eventtype": "focus", "value": "off", "timestamp": 1510776756295, "interval": 2082}, {"eventtype": "focus", "value": "on", "timestamp": 1510776758171, "interval": 1876}, {"eventtype": "focus", "value": "off", "timestamp": 1510776772306, "interval": 14135}, {"eventtype": "focus", "value": "on", "timestamp": 1510776787254, "interval": 14948}, {"eventtype": "focus", "value": "off", "timestamp": 1510776846295, "interval": 59041}, {"eventtype": "focus", "value": "on", "timestamp": 1510776853833, "interval": 7538}, {"eventtype": "focus", "value": "off", "timestamp": 1510777185465, "interval": 331632}, {"eventtype": "focus", "value": "on", "timestamp": 1510777195028, "interval": 9563}, {"eventtype": "focus", "value": "off", "timestamp": 1510777444649, "interval": 249621}, {"eventtype": "focus", "value": "on", "timestamp": 1510777460045, "interval": 15396}, {"eventtype": "focus", "value": "off", "timestamp": 1510777745194, "interval": 285149}, {"eventtype": "focus", "value": "on", "timestamp": 1510777755471, "interval": 10277}, {"eventtype": "window_resize", "value": [1280, 681], "timestamp": 1510777755785, "interval": 314}, {"eventtype": "window_resize", "value": [1280, 685], "timestamp": 1510777757483, "interval": 1698}, {"eventtype": "window_resize", "value": [1280, 681], "timestamp": 1510777773275, "interval": 15792}, {"eventtype": "window_resize", "value": [1280, 685], "timestamp": 1510777774950, "interval": 1675}, {"eventtype": "focus", "value": "off", "timestamp": 1510777782896, "interval": 7946}, {"eventtype": "focus", "value": "on", "timestamp": 1510777827135, "interval": 44239}], "useragent": "Mozilla/5.0 (Windows NT 6.1; Win64; x64) AppleWebKit/537.36 (KHTML, like Gecko) Chrome/62.0.3202.94 Safari/537.36", "mode": "live", "status": "user data saved"}