{"condition": 0, "counterbalance": 2662, "assignmentId": "3JWH6J9I9TK8LNGT8KYRROC11OANBM", "workerId": "MTK0919", "hitId": "360ZO6N6J1QHSSI28X0TYJWRSQV9MP", "currenttrial": 144, "bonus": 0, "data": [{"uniqueid": "MTK0919:3JWH6J9I9TK8LNGT8KYRROC11OANBM", "current_trial": 0, "dateTime": 1512879979995, "trialdata": {"rt": 3069, "key_press": 32, "type": "INSTRUCTIONS", "trial_type": "text", "trial_index": 0, "time_elapsed": 3072, "internal_node_id": "0.0-0.0"}}, {"uniqueid": "MTK0919:3JWH6J9I9TK8LNGT8KYRROC11OANBM", "current_trial": 1, "dateTime": 1512879983772, "trialdata": {"rt": 3776, "key_press": 175, "type": "INSTRUCTIONS", "trial_type": "text", "trial_index": 1, "time_elapsed": 6850, "internal_node_id": "0.0-1.0"}}, {"uniqueid": "MTK0919:3JWH6J9I9TK8LNGT8KYRROC11OANBM", "current_trial": 2, "dateTime": 1512880001611, "trialdata": {"rt": [17807], "responses": ["ocean"], "type": "AUDIO_TEST", "trial_type": "audio-test", "trial_index": 2, "time_elapsed": 24689, "internal_node_id": "0.0-2.0"}}, {"uniqueid": "MTK0919:3JWH6J9I9TK8LNGT8KYRROC11OANBM", "current_trial": 3, "dateTime": 1512880050340, "trialdata": {"rt": [48724], "responses": ["crystal"], "type": "AUDIO_TEST", "trial_type": "audio-test", "trial_index": 3, "time_elapsed": 73418, "internal_node_id": "0.0-3.0"}}, {"uniqueid": "MTK0919:3JWH6J9I9TK8LNGT8KYRROC11OANBM", "current_trial": 4, "dateTime": 1512880069454, "trialdata": {"rt": [19107], "responses": ["spice"], "type": "AUDIO_TEST", "trial_type": "audio-test", "trial_index": 4, "time_elapsed": 92531, "internal_node_id": "0.0-4.0"}}, {"uniqueid": "MTK0919:3JWH6J9I9TK8LNGT8KYRROC11OANBM", "current_trial": 5, "dateTime": 1512880096277, "trialdata": {"rt": 26069, "responses": "{\"Q0\":\"11:45\",\"Q1\":\"8:20\",\"Q2\":\"3\"}", "type": "SLEEP_SURVEY", "trial_type": "survey-text", "trial_index": 5, "time_elapsed": 119355, "internal_node_id": "0.0-5.0"}}, {"uniqueid": "MTK0919:3JWH6J9I9TK8LNGT8KYRROC11OANBM", "current_trial": 6, "dateTime": 1512880138734, "trialdata": {"rt": 41455, "key_press": 32, "type": "INSTRUCTIONS", "trial_type": "text", "trial_index": 6, "time_elapsed": 161812, "internal_node_id": "0.0-6.0"}}, {"uniqueid": "MTK0919:3JWH6J9I9TK8LNGT8KYRROC11OANBM", "current_trial": 7, "dateTime": 1512880148971, "trialdata": {"rt": 9733, "key_press": 32, "type": "INSTRUCTIONS", "trial_type": "text", "trial_index": 7, "time_elapsed": 172049, "internal_node_id": "0.0-7.0"}}, {"uniqueid": "MTK0919:3JWH6J9I9TK8LNGT8KYRROC11OANBM", "current_trial": 8, "dateTime": 1512880155701, "trialdata": {"rt": 6228, "key_press": 32, "type": "INSTRUCTIONS", "trial_type": "text", "trial_index": 8, "time_elapsed": 178779, "internal_node_id": "0.0-8.0"}}, {"uniqueid": "MTK0919:3JWH6J9I9TK8LNGT8KYRROC11OANBM", "current_trial": 9, "dateTime": 1512880174712, "trialdata": {"rt": [4915, 7239, 9166, 11899, 14259, 16611], "responses": ["14", "20", "10", "18", "17", "15"], "num1": [9, 7, 4, 7, 8, 1, 8], "num2": [3, 8, 5, 4, 2, 9, 4], "num3": [2, 5, 1, 7, 7, 5, 6], "type": "DISTRACTOR", "conditions": [18, 1200, "v", 18000], "trial": 0, "trial_type": "math-distractor", "trial_index": 9, "time_elapsed": 197788, "internal_node_id": "0.0-9.0"}}, {"uniqueid": "MTK0919:3JWH6J9I9TK8LNGT8KYRROC11OANBM", "current_trial": 10, "dateTime": 1512880177716, "trialdata": {"rt": -1, "stimulus": "<p id=\"stim\">10</p>", "key_press": -1, "trial_type": "single-stim", "trial_index": 10, "time_elapsed": 200794, "internal_node_id": "0.0-10.0-0.0"}}, {"uniqueid": "MTK0919:3JWH6J9I9TK8LNGT8KYRROC11OANBM", "current_trial": 11, "dateTime": 1512880178717, "trialdata": {"rt": -1, "stimulus": "<p id=\"stim\">9</p>", "key_press": -1, "trial_type": "single-stim", "trial_index": 11, "time_elapsed": 201794, "internal_node_id": "0.0-10.0-1.0"}}, {"uniqueid": "MTK0919:3JWH6J9I9TK8LNGT8KYRROC11OANBM", "current_trial": 12, "dateTime": 1512880179718, "trialdata": {"rt": -1, "stimulus": "<p id=\"stim\">8</p>", "key_press": -1, "trial_type": "single-stim", "trial_index": 12, "time_elapsed": 202796, "internal_node_id": "0.0-10.0-2.0"}}, {"uniqueid": "MTK0919:3JWH6J9I9TK8LNGT8KYRROC11OANBM", "current_trial": 13, "dateTime": 1512880180720, "trialdata": {"rt": -1, "stimulus": "<p id=\"stim\">7</p>", "key_press": -1, "trial_type": "single-stim", "trial_index": 13, "time_elapsed": 203798, "internal_node_id": "0.0-10.0-3.0"}}, {"uniqueid": "MTK0919:3JWH6J9I9TK8LNGT8KYRROC11OANBM", "current_trial": 14, "dateTime": 1512880181722, "trialdata": {"rt": -1, "stimulus": "<p id=\"stim\">6</p>", "key_press": -1, "trial_type": "single-stim", "trial_index": 14, "time_elapsed": 204800, "internal_node_id": "0.0-10.0-4.0"}}, {"uniqueid": "MTK0919:3JWH6J9I9TK8LNGT8KYRROC11OANBM", "current_trial": 15, "dateTime": 1512880182722, "trialdata": {"rt": -1, "stimulus": "<p id=\"stim\">5</p>", "key_press": -1, "trial_type": "single-stim", "trial_index": 15, "time_elapsed": 205800, "internal_node_id": "0.0-10.0-5.0"}}, {"uniqueid": "MTK0919:3JWH6J9I9TK8LNGT8KYRROC11OANBM", "current_trial": 16, "dateTime": 1512880183723, "trialdata": {"rt": -1, "stimulus": "<p id=\"stim\">4</p>", "key_press": -1, "trial_type": "single-stim", "trial_index": 16, "time_elapsed": 206801, "internal_node_id": "0.0-10.0-6.0"}}, {"uniqueid": "MTK0919:3JWH6J9I9TK8LNGT8KYRROC11OANBM", "current_trial": 17, "dateTime": 1512880184725, "trialdata": {"rt": -1, "stimulus": "<p id=\"stim\">3</p>", "key_press": -1, "trial_type": "single-stim", "trial_index": 17, "time_elapsed": 207803, "internal_node_id": "0.0-10.0-7.0"}}, {"uniqueid": "MTK0919:3JWH6J9I9TK8LNGT8KYRROC11OANBM", "current_trial": 18, "dateTime": 1512880185726, "trialdata": {"rt": -1, "stimulus": "<p id=\"stim\">2</p>", "key_press": -1, "trial_type": "single-stim", "trial_index": 18, "time_elapsed": 208804, "internal_node_id": "0.0-10.0-8.0"}}, {"uniqueid": "MTK0919:3JWH6J9I9TK8LNGT8KYRROC11OANBM", "current_trial": 19, "dateTime": 1512880186727, "trialdata": {"rt": -1, "stimulus": "<p id=\"stim\">1</p>", "key_press": -1, "trial_type": "single-stim", "trial_index": 19, "time_elapsed": 209805, "internal_node_id": "0.0-10.0-9.0"}}, {"uniqueid": "MTK0919:3JWH6J9I9TK8LNGT8KYRROC11OANBM", "current_trial": 20, "dateTime": 1512880188228, "trialdata": {"rt": -1, "stimulus": "<p id=\"stim\">+</p>", "key_press": -1, "type": "FIXATION", "trial_type": "single-stim", "trial_index": 20, "time_elapsed": 211306, "internal_node_id": "0.0-11.0-0.0"}}, {"uniqueid": "MTK0919:3JWH6J9I9TK8LNGT8KYRROC11OANBM", "current_trial": 21, "dateTime": 1512880189431, "trialdata": {"rt": -1, "stimulus": "<p id=\"stim\">QUAIL</p>", "key_press": -1, "type": "PRES_VIS", "word": "quail", "wordID": 1146, "conditions": [18, 1200, "v", 18000], "trial": 0, "serialpos": 0, "trial_type": "single-stim", "trial_index": 21, "time_elapsed": 212509, "internal_node_id": "0.0-12.0"}}, {"uniqueid": "MTK0919:3JWH6J9I9TK8LNGT8KYRROC11OANBM", "current_trial": 22, "dateTime": 1512880191803, "trialdata": {"rt": -1, "stimulus": "<p id=\"stim\">AWARD</p>", "key_press": -1, "type": "PRES_VIS", "word": "award", "wordID": 62, "conditions": [18, 1200, "v", 18000], "trial": 0, "serialpos": 1, "trial_type": "single-stim", "trial_index": 22, "time_elapsed": 214881, "internal_node_id": "0.0-13.0"}}, {"uniqueid": "MTK0919:3JWH6J9I9TK8LNGT8KYRROC11OANBM", "current_trial": 23, "dateTime": 1512880194182, "trialdata": {"rt": -1, "stimulus": "<p id=\"stim\">PANTHER</p>", "key_press": -1, "type": "PRES_VIS", "word": "panther", "wordID": 1008, "conditions": [18, 1200, "v", 18000], "trial": 0, "serialpos": 2, "trial_type": "single-stim", "trial_index": 23, "time_elapsed": 217260, "internal_node_id": "0.0-14.0"}}, {"uniqueid": "MTK0919:3JWH6J9I9TK8LNGT8KYRROC11OANBM", "current_trial": 24, "dateTime": 1512880196524, "trialdata": {"rt": -1, "stimulus": "<p id=\"stim\">CARRIAGE</p>", "key_press": -1, "type": "PRES_VIS", "word": "carriage", "wordID": 247, "conditions": [18, 1200, "v", 18000], "trial": 0, "serialpos": 3, "trial_type": "single-stim", "trial_index": 24, "time_elapsed": 219602, "internal_node_id": "0.0-15.0"}}, {"uniqueid": "MTK0919:3JWH6J9I9TK8LNGT8KYRROC11OANBM", "current_trial": 25, "dateTime": 1512880198728, "trialdata": {"rt": -1, "stimulus": "<p id=\"stim\">FLUTE</p>", "key_press": -1, "type": "PRES_VIS", "word": "flute", "wordID": 584, "conditions": [18, 1200, "v", 18000], "trial": 0, "serialpos": 4, "trial_type": "single-stim", "trial_index": 25, "time_elapsed": 221805, "internal_node_id": "0.0-16.0"}}, {"uniqueid": "MTK0919:3JWH6J9I9TK8LNGT8KYRROC11OANBM", "current_trial": 26, "dateTime": 1512880200915, "trialdata": {"rt": -1, "stimulus": "<p id=\"stim\">LUMBER</p>", "key_press": -1, "type": "PRES_VIS", "word": "lumber", "wordID": 847, "conditions": [18, 1200, "v", 18000], "trial": 0, "serialpos": 5, "trial_type": "single-stim", "trial_index": 26, "time_elapsed": 223993, "internal_node_id": "0.0-17.0"}}, {"uniqueid": "MTK0919:3JWH6J9I9TK8LNGT8KYRROC11OANBM", "current_trial": 27, "dateTime": 1512880203086, "trialdata": {"rt": -1, "stimulus": "<p id=\"stim\">SPOUSE</p>", "key_press": -1, "type": "PRES_VIS", "word": "spouse", "wordID": 1357, "conditions": [18, 1200, "v", 18000], "trial": 0, "serialpos": 6, "trial_type": "single-stim", "trial_index": 27, "time_elapsed": 226164, "internal_node_id": "0.0-18.0"}}, {"uniqueid": "MTK0919:3JWH6J9I9TK8LNGT8KYRROC11OANBM", "current_trial": 28, "dateTime": 1512880205276, "trialdata": {"rt": -1, "stimulus": "<p id=\"stim\">SOFTBALL</p>", "key_press": -1, "type": "PRES_VIS", "word": "softball", "wordID": 1342, "conditions": [18, 1200, "v", 18000], "trial": 0, "serialpos": 7, "trial_type": "single-stim", "trial_index": 28, "time_elapsed": 228354, "internal_node_id": "0.0-19.0"}}, {"uniqueid": "MTK0919:3JWH6J9I9TK8LNGT8KYRROC11OANBM", "current_trial": 29, "dateTime": 1512880207586, "trialdata": {"rt": -1, "stimulus": "<p id=\"stim\">BULLET</p>", "key_press": -1, "type": "PRES_VIS", "word": "bullet", "wordID": 193, "conditions": [18, 1200, "v", 18000], "trial": 0, "serialpos": 8, "trial_type": "single-stim", "trial_index": 29, "time_elapsed": 230664, "internal_node_id": "0.0-20.0"}}, {"uniqueid": "MTK0919:3JWH6J9I9TK8LNGT8KYRROC11OANBM", "current_trial": 30, "dateTime": 1512880209873, "trialdata": {"rt": -1, "stimulus": "<p id=\"stim\">CHAPEL</p>", "key_press": -1, "type": "PRES_VIS", "word": "chapel", "wordID": 279, "conditions": [18, 1200, "v", 18000], "trial": 0, "serialpos": 9, "trial_type": "single-stim", "trial_index": 30, "time_elapsed": 232951, "internal_node_id": "0.0-21.0"}}, {"uniqueid": "MTK0919:3JWH6J9I9TK8LNGT8KYRROC11OANBM", "current_trial": 31, "dateTime": 1512880212250, "trialdata": {"rt": -1, "stimulus": "<p id=\"stim\">BANQUET</p>", "key_press": -1, "type": "PRES_VIS", "word": "banquet", "wordID": 85, "conditions": [18, 1200, "v", 18000], "trial": 0, "serialpos": 10, "trial_type": "single-stim", "trial_index": 31, "time_elapsed": 235328, "internal_node_id": "0.0-22.0"}}, {"uniqueid": "MTK0919:3JWH6J9I9TK8LNGT8KYRROC11OANBM", "current_trial": 32, "dateTime": 1512880214565, "trialdata": {"rt": -1, "stimulus": "<p id=\"stim\">SUNRISE</p>", "key_press": -1, "type": "PRES_VIS", "word": "sunrise", "wordID": 1406, "conditions": [18, 1200, "v", 18000], "trial": 0, "serialpos": 11, "trial_type": "single-stim", "trial_index": 32, "time_elapsed": 237643, "internal_node_id": "0.0-23.0"}}, {"uniqueid": "MTK0919:3JWH6J9I9TK8LNGT8KYRROC11OANBM", "current_trial": 33, "dateTime": 1512880216566, "trialdata": {"rt": -1, "stimulus": "<p id=\"stim\">PERMIT</p>", "key_press": -1, "type": "PRES_VIS", "word": "permit", "wordID": 1050, "conditions": [18, 1200, "v", 18000], "trial": 0, "serialpos": 12, "trial_type": "single-stim", "trial_index": 33, "time_elapsed": 239644, "internal_node_id": "0.0-24.0"}}, {"uniqueid": "MTK0919:3JWH6J9I9TK8LNGT8KYRROC11OANBM", "current_trial": 34, "dateTime": 1512880218620, "trialdata": {"rt": -1, "stimulus": "<p id=\"stim\">BACKBONE</p>", "key_press": -1, "type": "PRES_VIS", "word": "backbone", "wordID": 65, "conditions": [18, 1200, "v", 18000], "trial": 0, "serialpos": 13, "trial_type": "single-stim", "trial_index": 34, "time_elapsed": 241698, "internal_node_id": "0.0-25.0"}}, {"uniqueid": "MTK0919:3JWH6J9I9TK8LNGT8KYRROC11OANBM", "current_trial": 35, "dateTime": 1512880220646, "trialdata": {"rt": -1, "stimulus": "<p id=\"stim\">XEROX</p>", "key_press": -1, "type": "PRES_VIS", "word": "xerox", "wordID": 1627, "conditions": [18, 1200, "v", 18000], "trial": 0, "serialpos": 14, "trial_type": "single-stim", "trial_index": 35, "time_elapsed": 243724, "internal_node_id": "0.0-26.0"}}, {"uniqueid": "MTK0919:3JWH6J9I9TK8LNGT8KYRROC11OANBM", "current_trial": 36, "dateTime": 1512880222763, "trialdata": {"rt": -1, "stimulus": "<p id=\"stim\">BASEMENT</p>", "key_press": -1, "type": "PRES_VIS", "word": "basement", "wordID": 93, "conditions": [18, 1200, "v", 18000], "trial": 0, "serialpos": 15, "trial_type": "single-stim", "trial_index": 36, "time_elapsed": 245841, "internal_node_id": "0.0-27.0"}}, {"uniqueid": "MTK0919:3JWH6J9I9TK8LNGT8KYRROC11OANBM", "current_trial": 37, "dateTime": 1512880224781, "trialdata": {"rt": -1, "stimulus": "<p id=\"stim\">ROBBER</p>", "key_press": -1, "type": "PRES_VIS", "word": "robber", "wordID": 1196, "conditions": [18, 1200, "v", 18000], "trial": 0, "serialpos": 16, "trial_type": "single-stim", "trial_index": 37, "time_elapsed": 247859, "internal_node_id": "0.0-28.0"}}, {"uniqueid": "MTK0919:3JWH6J9I9TK8LNGT8KYRROC11OANBM", "current_trial": 38, "dateTime": 1512880227122, "trialdata": {"rt": -1, "stimulus": "<p id=\"stim\">ICEBERG</p>", "key_press": -1, "type": "PRES_VIS", "word": "iceberg", "wordID": 730, "conditions": [18, 1200, "v", 18000], "trial": 0, "serialpos": 17, "trial_type": "single-stim", "trial_index": 38, "time_elapsed": 250200, "internal_node_id": "0.0-29.0"}}, {"uniqueid": "MTK0919:3JWH6J9I9TK8LNGT8KYRROC11OANBM", "current_trial": 39, "dateTime": 1512880229159, "trialdata": {"rt": -1, "stimulus": "", "key_press": -1, "type": "PRE_RECALL_DELAY", "trial_type": "single-stim", "trial_index": 39, "time_elapsed": 252237, "internal_node_id": "0.0-30.0-0.0"}}, {"uniqueid": "MTK0919:3JWH6J9I9TK8LNGT8KYRROC11OANBM", "current_trial": 40, "dateTime": 1512880229661, "trialdata": {"rt": -1000, "stimulus": "/static/audio/400Hz.wav", "key_press": -1, "type": "PRE_RECALL_ALERT", "trial_type": "single-audio", "trial_index": 40, "time_elapsed": 252739, "internal_node_id": "0.0-31.0"}}, {"uniqueid": "MTK0919:3JWH6J9I9TK8LNGT8KYRROC11OANBM", "current_trial": 41, "dateTime": 1512880289669, "trialdata": {"rt": [5910, 9399, 11293, 13902, 20429, 23610, 26964, 31202, 36328], "recwords": ["quail", "award", "robber", "banquet", "pavement", "a", "alarm", "panther", "bank"], "type": "FREE_RECALL", "conditions": [18, 1200, "v", 18000], "trial": 0, "trial_type": "free-recall", "trial_index": 41, "time_elapsed": 312744, "internal_node_id": "0.0-32.0-0.0"}}, {"uniqueid": "MTK0919:3JWH6J9I9TK8LNGT8KYRROC11OANBM", "current_trial": 42, "dateTime": 1512880293322, "trialdata": {"rt": 1652, "key_press": 13, "type": "INSTRUCTIONS", "trial_type": "text", "trial_index": 42, "time_elapsed": 316400, "internal_node_id": "0.0-33.0"}}, {"uniqueid": "MTK0919:3JWH6J9I9TK8LNGT8KYRROC11OANBM", "current_trial": 43, "dateTime": 1512880313325, "trialdata": {"rt": [3812, 8751, 14397, 16799], "responses": ["20", "16", "25", "12"], "num1": [6, 8, 9, 6, 9], "num2": [9, 3, 6, 2, 9], "num3": [4, 5, 9, 4, 5], "type": "DISTRACTOR", "conditions": [18, 1200, "a", 18000], "trial": 1, "trial_type": "math-distractor", "trial_index": 43, "time_elapsed": 336403, "internal_node_id": "0.0-34.0"}}, {"uniqueid": "MTK0919:3JWH6J9I9TK8LNGT8KYRROC11OANBM", "current_trial": 44, "dateTime": 1512880316327, "trialdata": {"rt": -1, "stimulus": "<p id=\"stim\">10</p>", "key_press": -1, "trial_type": "single-stim", "trial_index": 44, "time_elapsed": 339405, "internal_node_id": "0.0-35.0-0.0"}}, {"uniqueid": "MTK0919:3JWH6J9I9TK8LNGT8KYRROC11OANBM", "current_trial": 45, "dateTime": 1512880317328, "trialdata": {"rt": -1, "stimulus": "<p id=\"stim\">9</p>", "key_press": -1, "trial_type": "single-stim", "trial_index": 45, "time_elapsed": 340406, "internal_node_id": "0.0-35.0-1.0"}}, {"uniqueid": "MTK0919:3JWH6J9I9TK8LNGT8KYRROC11OANBM", "current_trial": 46, "dateTime": 1512880318333, "trialdata": {"rt": -1, "stimulus": "<p id=\"stim\">8</p>", "key_press": -1, "trial_type": "single-stim", "trial_index": 46, "time_elapsed": 341411, "internal_node_id": "0.0-35.0-2.0"}}, {"uniqueid": "MTK0919:3JWH6J9I9TK8LNGT8KYRROC11OANBM", "current_trial": 47, "dateTime": 1512880319335, "trialdata": {"rt": -1, "stimulus": "<p id=\"stim\">7</p>", "key_press": -1, "trial_type": "single-stim", "trial_index": 47, "time_elapsed": 342413, "internal_node_id": "0.0-35.0-3.0"}}, {"uniqueid": "MTK0919:3JWH6J9I9TK8LNGT8KYRROC11OANBM", "current_trial": 48, "dateTime": 1512880320337, "trialdata": {"rt": -1, "stimulus": "<p id=\"stim\">6</p>", "key_press": -1, "trial_type": "single-stim", "trial_index": 48, "time_elapsed": 343414, "internal_node_id": "0.0-35.0-4.0"}}, {"uniqueid": "MTK0919:3JWH6J9I9TK8LNGT8KYRROC11OANBM", "current_trial": 49, "dateTime": 1512880321339, "trialdata": {"rt": -1, "stimulus": "<p id=\"stim\">5</p>", "key_press": -1, "trial_type": "single-stim", "trial_index": 49, "time_elapsed": 344416, "internal_node_id": "0.0-35.0-5.0"}}, {"uniqueid": "MTK0919:3JWH6J9I9TK8LNGT8KYRROC11OANBM", "current_trial": 50, "dateTime": 1512880322340, "trialdata": {"rt": -1, "stimulus": "<p id=\"stim\">4</p>", "key_press": -1, "trial_type": "single-stim", "trial_index": 50, "time_elapsed": 345418, "internal_node_id": "0.0-35.0-6.0"}}, {"uniqueid": "MTK0919:3JWH6J9I9TK8LNGT8KYRROC11OANBM", "current_trial": 51, "dateTime": 1512880323341, "trialdata": {"rt": -1, "stimulus": "<p id=\"stim\">3</p>", "key_press": -1, "trial_type": "single-stim", "trial_index": 51, "time_elapsed": 346419, "internal_node_id": "0.0-35.0-7.0"}}, {"uniqueid": "MTK0919:3JWH6J9I9TK8LNGT8KYRROC11OANBM", "current_trial": 52, "dateTime": 1512880324342, "trialdata": {"rt": -1, "stimulus": "<p id=\"stim\">2</p>", "key_press": -1, "trial_type": "single-stim", "trial_index": 52, "time_elapsed": 347419, "internal_node_id": "0.0-35.0-8.0"}}, {"uniqueid": "MTK0919:3JWH6J9I9TK8LNGT8KYRROC11OANBM", "current_trial": 53, "dateTime": 1512880325343, "trialdata": {"rt": -1, "stimulus": "<p id=\"stim\">1</p>", "key_press": -1, "trial_type": "single-stim", "trial_index": 53, "time_elapsed": 348421, "internal_node_id": "0.0-35.0-9.0"}}, {"uniqueid": "MTK0919:3JWH6J9I9TK8LNGT8KYRROC11OANBM", "current_trial": 54, "dateTime": 1512880326845, "trialdata": {"rt": -1, "stimulus": "<p id=\"stim\">+</p>", "key_press": -1, "type": "FIXATION", "trial_type": "single-stim", "trial_index": 54, "time_elapsed": 349922, "internal_node_id": "0.0-36.0-0.0"}}, {"uniqueid": "MTK0919:3JWH6J9I9TK8LNGT8KYRROC11OANBM", "current_trial": 55, "dateTime": 1512880329015, "trialdata": {"rt": -1000, "stimulus": "/static/audio/wordpool/GROUND.wav", "key_press": -1, "type": "PRES_AUD", "word": "ground", "wordID": 665, "conditions": [18, 1200, "a", 18000], "trial": 1, "serialpos": 0, "trial_type": "single-audio", "trial_index": 55, "time_elapsed": 352093, "internal_node_id": "0.0-37.0"}}, {"uniqueid": "MTK0919:3JWH6J9I9TK8LNGT8KYRROC11OANBM", "current_trial": 56, "dateTime": 1512880331064, "trialdata": {"rt": 1540.0000000000205, "stimulus": "/static/audio/wordpool/FLEET.wav", "key_press": 175, "type": "PRES_AUD", "word": "fleet", "wordID": 577, "conditions": [18, 1200, "a", 18000], "trial": 1, "serialpos": 1, "trial_type": "single-audio", "trial_index": 56, "time_elapsed": 354142, "internal_node_id": "0.0-38.0"}}, {"uniqueid": "MTK0919:3JWH6J9I9TK8LNGT8KYRROC11OANBM", "current_trial": 57, "dateTime": 1512880333073, "trialdata": {"rt": -1000, "stimulus": "/static/audio/wordpool/DIVER.wav", "key_press": -1, "type": "PRES_AUD", "word": "diver", "wordID": 475, "conditions": [18, 1200, "a", 18000], "trial": 1, "serialpos": 2, "trial_type": "single-audio", "trial_index": 57, "time_elapsed": 356151, "internal_node_id": "0.0-39.0"}}, {"uniqueid": "MTK0919:3JWH6J9I9TK8LNGT8KYRROC11OANBM", "current_trial": 58, "dateTime": 1512880335308, "trialdata": {"rt": -1000, "stimulus": "/static/audio/wordpool/PLAID.wav", "key_press": -1, "type": "PRES_AUD", "word": "plaid", "wordID": 1079, "conditions": [18, 1200, "a", 18000], "trial": 1, "serialpos": 3, "trial_type": "single-audio", "trial_index": 58, "time_elapsed": 358386, "internal_node_id": "0.0-40.0"}}, {"uniqueid": "MTK0919:3JWH6J9I9TK8LNGT8KYRROC11OANBM", "current_trial": 59, "dateTime": 1512880337512, "trialdata": {"rt": -1000, "stimulus": "/static/audio/wordpool/BROTHER.wav", "key_press": -1, "type": "PRES_AUD", "word": "brother", "wordID": 178, "conditions": [18, 1200, "a", 18000], "trial": 1, "serialpos": 4, "trial_type": "single-audio", "trial_index": 59, "time_elapsed": 360590, "internal_node_id": "0.0-41.0"}}, {"uniqueid": "MTK0919:3JWH6J9I9TK8LNGT8KYRROC11OANBM", "current_trial": 60, "dateTime": 1512880339767, "trialdata": {"rt": -1000, "stimulus": "/static/audio/wordpool/TART.wav", "key_press": -1, "type": "PRES_AUD", "word": "tart", "wordID": 1435, "conditions": [18, 1200, "a", 18000], "trial": 1, "serialpos": 5, "trial_type": "single-audio", "trial_index": 60, "time_elapsed": 362845, "internal_node_id": "0.0-42.0"}}, {"uniqueid": "MTK0919:3JWH6J9I9TK8LNGT8KYRROC11OANBM", "current_trial": 61, "dateTime": 1512880342165, "trialdata": {"rt": -1000, "stimulus": "/static/audio/wordpool/JUGGLER.wav", "key_press": -1, "type": "PRES_AUD", "word": "juggler", "wordID": 762, "conditions": [18, 1200, "a", 18000], "trial": 1, "serialpos": 6, "trial_type": "single-audio", "trial_index": 61, "time_elapsed": 365243, "internal_node_id": "0.0-43.0"}}, {"uniqueid": "MTK0919:3JWH6J9I9TK8LNGT8KYRROC11OANBM", "current_trial": 62, "dateTime": 1512880344454, "trialdata": {"rt": -1000, "stimulus": "/static/audio/wordpool/BANJO.wav", "key_press": -1, "type": "PRES_AUD", "word": "banjo", "wordID": 81, "conditions": [18, 1200, "a", 18000], "trial": 1, "serialpos": 7, "trial_type": "single-audio", "trial_index": 62, "time_elapsed": 367532, "internal_node_id": "0.0-44.0"}}, {"uniqueid": "MTK0919:3JWH6J9I9TK8LNGT8KYRROC11OANBM", "current_trial": 63, "dateTime": 1512880346771, "trialdata": {"rt": -1000, "stimulus": "/static/audio/wordpool/MASK.wav", "key_press": -1, "type": "PRES_AUD", "word": "mask", "wordID": 875, "conditions": [18, 1200, "a", 18000], "trial": 1, "serialpos": 8, "trial_type": "single-audio", "trial_index": 63, "time_elapsed": 369849, "internal_node_id": "0.0-45.0"}}, {"uniqueid": "MTK0919:3JWH6J9I9TK8LNGT8KYRROC11OANBM", "current_trial": 64, "dateTime": 1512880348784, "trialdata": {"rt": -1000, "stimulus": "/static/audio/wordpool/MILK.wav", "key_press": -1, "type": "PRES_AUD", "word": "milk", "wordID": 894, "conditions": [18, 1200, "a", 18000], "trial": 1, "serialpos": 9, "trial_type": "single-audio", "trial_index": 64, "time_elapsed": 371861, "internal_node_id": "0.0-46.0"}}, {"uniqueid": "MTK0919:3JWH6J9I9TK8LNGT8KYRROC11OANBM", "current_trial": 65, "dateTime": 1512880351020, "trialdata": {"rt": -1000, "stimulus": "/static/audio/wordpool/JUNGLE.wav", "key_press": -1, "type": "PRES_AUD", "word": "jungle", "wordID": 763, "conditions": [18, 1200, "a", 18000], "trial": 1, "serialpos": 10, "trial_type": "single-audio", "trial_index": 65, "time_elapsed": 374098, "internal_node_id": "0.0-47.0"}}, {"uniqueid": "MTK0919:3JWH6J9I9TK8LNGT8KYRROC11OANBM", "current_trial": 66, "dateTime": 1512880353213, "trialdata": {"rt": -1000, "stimulus": "/static/audio/wordpool/VAGRANT.wav", "key_press": -1, "type": "PRES_AUD", "word": "vagrant", "wordID": 1543, "conditions": [18, 1200, "a", 18000], "trial": 1, "serialpos": 11, "trial_type": "single-audio", "trial_index": 66, "time_elapsed": 376290, "internal_node_id": "0.0-48.0"}}, {"uniqueid": "MTK0919:3JWH6J9I9TK8LNGT8KYRROC11OANBM", "current_trial": 67, "dateTime": 1512880355612, "trialdata": {"rt": -1000, "stimulus": "/static/audio/wordpool/SNAKE.wav", "key_press": -1, "type": "PRES_AUD", "word": "snake", "wordID": 1332, "conditions": [18, 1200, "a", 18000], "trial": 1, "serialpos": 12, "trial_type": "single-audio", "trial_index": 67, "time_elapsed": 378690, "internal_node_id": "0.0-49.0"}}, {"uniqueid": "MTK0919:3JWH6J9I9TK8LNGT8KYRROC11OANBM", "current_trial": 68, "dateTime": 1512880357979, "trialdata": {"rt": -1000, "stimulus": "/static/audio/wordpool/VALVE.wav", "key_press": -1, "type": "PRES_AUD", "word": "valve", "wordID": 1545, "conditions": [18, 1200, "a", 18000], "trial": 1, "serialpos": 13, "trial_type": "single-audio", "trial_index": 68, "time_elapsed": 381053, "internal_node_id": "0.0-50.0"}}, {"uniqueid": "MTK0919:3JWH6J9I9TK8LNGT8KYRROC11OANBM", "current_trial": 69, "dateTime": 1512880360156, "trialdata": {"rt": -1000, "stimulus": "/static/audio/wordpool/COUNTRY.wav", "key_press": -1, "type": "PRES_AUD", "word": "country", "wordID": 387, "conditions": [18, 1200, "a", 18000], "trial": 1, "serialpos": 14, "trial_type": "single-audio", "trial_index": 69, "time_elapsed": 383233, "internal_node_id": "0.0-51.0"}}, {"uniqueid": "MTK0919:3JWH6J9I9TK8LNGT8KYRROC11OANBM", "current_trial": 70, "dateTime": 1512880362363, "trialdata": {"rt": -1000, "stimulus": "/static/audio/wordpool/COD.wav", "key_press": -1, "type": "PRES_AUD", "word": "cod", "wordID": 339, "conditions": [18, 1200, "a", 18000], "trial": 1, "serialpos": 15, "trial_type": "single-audio", "trial_index": 70, "time_elapsed": 385441, "internal_node_id": "0.0-52.0"}}, {"uniqueid": "MTK0919:3JWH6J9I9TK8LNGT8KYRROC11OANBM", "current_trial": 71, "dateTime": 1512880364762, "trialdata": {"rt": -1000, "stimulus": "/static/audio/wordpool/FRIEND.wav", "key_press": -1, "type": "PRES_AUD", "word": "friend", "wordID": 605, "conditions": [18, 1200, "a", 18000], "trial": 1, "serialpos": 16, "trial_type": "single-audio", "trial_index": 71, "time_elapsed": 387840, "internal_node_id": "0.0-53.0"}}, {"uniqueid": "MTK0919:3JWH6J9I9TK8LNGT8KYRROC11OANBM", "current_trial": 72, "dateTime": 1512880367111, "trialdata": {"rt": -1000, "stimulus": "/static/audio/wordpool/BROOK.wav", "key_press": -1, "type": "PRES_AUD", "word": "brook", "wordID": 176, "conditions": [18, 1200, "a", 18000], "trial": 1, "serialpos": 17, "trial_type": "single-audio", "trial_index": 72, "time_elapsed": 390189, "internal_node_id": "0.0-54.0"}}, {"uniqueid": "MTK0919:3JWH6J9I9TK8LNGT8KYRROC11OANBM", "current_trial": 73, "dateTime": 1512880368436, "trialdata": {"rt": -1, "stimulus": "", "key_press": -1, "type": "PRE_RECALL_DELAY", "trial_type": "single-stim", "trial_index": 73, "time_elapsed": 391514, "internal_node_id": "0.0-55.0-0.0"}}, {"uniqueid": "MTK0919:3JWH6J9I9TK8LNGT8KYRROC11OANBM", "current_trial": 74, "dateTime": 1512880368936, "trialdata": {"rt": -1000, "stimulus": "/static/audio/400Hz.wav", "key_press": -1, "type": "PRE_RECALL_ALERT", "trial_type": "single-audio", "trial_index": 74, "time_elapsed": 392014, "internal_node_id": "0.0-56.0"}}, {"uniqueid": "MTK0919:3JWH6J9I9TK8LNGT8KYRROC11OANBM", "current_trial": 75, "dateTime": 1512880428946, "trialdata": {"rt": [4752, 6788, 8020, 10301, 11742, 14295, 16479, 34964, 39949, 48331], "recwords": ["brook", "country", "cod", "friend", "snake", "vagrant", "ground", "friend", "neighbor", ""], "type": "FREE_RECALL", "conditions": [18, 1200, "a", 18000], "trial": 1, "trial_type": "free-recall", "trial_index": 75, "time_elapsed": 452019, "internal_node_id": "0.0-57.0-0.0"}}, {"uniqueid": "MTK0919:3JWH6J9I9TK8LNGT8KYRROC11OANBM", "current_trial": 76, "dateTime": 1512880431826, "trialdata": {"rt": 873, "key_press": 13, "type": "INSTRUCTIONS", "trial_type": "text", "trial_index": 76, "time_elapsed": 454899, "internal_node_id": "0.0-58.0"}}, {"uniqueid": "MTK0919:3JWH6J9I9TK8LNGT8KYRROC11OANBM", "current_trial": 77, "dateTime": 1512880456831, "trialdata": {"rt": [1898, 6592, 10219, 13590, 15761, 18287, 21237], "responses": ["10", "21", "21", "13", "17", "14", "25"], "num1": [3, 9, 4, 1, 5, 5, 5, 3], "num2": [4, 8, 9, 5, 5, 2, 7, 9], "num3": [3, 4, 7, 7, 7, 7, 8, 8], "type": "DISTRACTOR", "conditions": [24, 800, "v", 24000], "trial": 2, "trial_type": "math-distractor", "trial_index": 77, "time_elapsed": 479909, "internal_node_id": "0.0-59.0"}}, {"uniqueid": "MTK0919:3JWH6J9I9TK8LNGT8KYRROC11OANBM", "current_trial": 78, "dateTime": 1512880459832, "trialdata": {"rt": -1, "stimulus": "<p id=\"stim\">10</p>", "key_press": -1, "trial_type": "single-stim", "trial_index": 78, "time_elapsed": 482910, "internal_node_id": "0.0-60.0-0.0"}}, {"uniqueid": "MTK0919:3JWH6J9I9TK8LNGT8KYRROC11OANBM", "current_trial": 79, "dateTime": 1512880460833, "trialdata": {"rt": -1, "stimulus": "<p id=\"stim\">9</p>", "key_press": -1, "trial_type": "single-stim", "trial_index": 79, "time_elapsed": 483911, "internal_node_id": "0.0-60.0-1.0"}}, {"uniqueid": "MTK0919:3JWH6J9I9TK8LNGT8KYRROC11OANBM", "current_trial": 80, "dateTime": 1512880461835, "trialdata": {"rt": -1, "stimulus": "<p id=\"stim\">8</p>", "key_press": -1, "trial_type": "single-stim", "trial_index": 80, "time_elapsed": 484913, "internal_node_id": "0.0-60.0-2.0"}}, {"uniqueid": "MTK0919:3JWH6J9I9TK8LNGT8KYRROC11OANBM", "current_trial": 81, "dateTime": 1512880462837, "trialdata": {"rt": -1, "stimulus": "<p id=\"stim\">7</p>", "key_press": -1, "trial_type": "single-stim", "trial_index": 81, "time_elapsed": 485915, "internal_node_id": "0.0-60.0-3.0"}}, {"uniqueid": "MTK0919:3JWH6J9I9TK8LNGT8KYRROC11OANBM", "current_trial": 82, "dateTime": 1512880463838, "trialdata": {"rt": -1, "stimulus": "<p id=\"stim\">6</p>", "key_press": -1, "trial_type": "single-stim", "trial_index": 82, "time_elapsed": 486916, "internal_node_id": "0.0-60.0-4.0"}}, {"uniqueid": "MTK0919:3JWH6J9I9TK8LNGT8KYRROC11OANBM", "current_trial": 83, "dateTime": 1512880464842, "trialdata": {"rt": -1, "stimulus": "<p id=\"stim\">5</p>", "key_press": -1, "trial_type": "single-stim", "trial_index": 83, "time_elapsed": 487920, "internal_node_id": "0.0-60.0-5.0"}}, {"uniqueid": "MTK0919:3JWH6J9I9TK8LNGT8KYRROC11OANBM", "current_trial": 84, "dateTime": 1512880465843, "trialdata": {"rt": -1, "stimulus": "<p id=\"stim\">4</p>", "key_press": -1, "trial_type": "single-stim", "trial_index": 84, "time_elapsed": 488921, "internal_node_id": "0.0-60.0-6.0"}}, {"uniqueid": "MTK0919:3JWH6J9I9TK8LNGT8KYRROC11OANBM", "current_trial": 85, "dateTime": 1512880466845, "trialdata": {"rt": -1, "stimulus": "<p id=\"stim\">3</p>", "key_press": -1, "trial_type": "single-stim", "trial_index": 85, "time_elapsed": 489923, "internal_node_id": "0.0-60.0-7.0"}}, {"uniqueid": "MTK0919:3JWH6J9I9TK8LNGT8KYRROC11OANBM", "current_trial": 86, "dateTime": 1512880467845, "trialdata": {"rt": -1, "stimulus": "<p id=\"stim\">2</p>", "key_press": -1, "trial_type": "single-stim", "trial_index": 86, "time_elapsed": 490923, "internal_node_id": "0.0-60.0-8.0"}}, {"uniqueid": "MTK0919:3JWH6J9I9TK8LNGT8KYRROC11OANBM", "current_trial": 87, "dateTime": 1512880468847, "trialdata": {"rt": -1, "stimulus": "<p id=\"stim\">1</p>", "key_press": -1, "trial_type": "single-stim", "trial_index": 87, "time_elapsed": 491925, "internal_node_id": "0.0-60.0-9.0"}}, {"uniqueid": "MTK0919:3JWH6J9I9TK8LNGT8KYRROC11OANBM", "current_trial": 88, "dateTime": 1512880470350, "trialdata": {"rt": -1, "stimulus": "<p id=\"stim\">+</p>", "key_press": -1, "type": "FIXATION", "trial_type": "single-stim", "trial_index": 88, "time_elapsed": 493427, "internal_node_id": "0.0-61.0-0.0"}}, {"uniqueid": "MTK0919:3JWH6J9I9TK8LNGT8KYRROC11OANBM", "current_trial": 89, "dateTime": 1512880471152, "trialdata": {"rt": -1, "stimulus": "<p id=\"stim\">SWAMP</p>", "key_press": -1, "type": "PRES_VIS", "word": "swamp", "wordID": 1415, "conditions": [24, 800, "v", 24000], "trial": 2, "serialpos": 0, "trial_type": "single-stim", "trial_index": 89, "time_elapsed": 494230, "internal_node_id": "0.0-62.0"}}, {"uniqueid": "MTK0919:3JWH6J9I9TK8LNGT8KYRROC11OANBM", "current_trial": 90, "dateTime": 1512880472980, "trialdata": {"rt": -1, "stimulus": "<p id=\"stim\">HUSBAND</p>", "key_press": -1, "type": "PRES_VIS", "word": "husband", "wordID": 727, "conditions": [24, 800, "v", 24000], "trial": 2, "serialpos": 1, "trial_type": "single-stim", "trial_index": 90, "time_elapsed": 496057, "internal_node_id": "0.0-63.0"}}, {"uniqueid": "MTK0919:3JWH6J9I9TK8LNGT8KYRROC11OANBM", "current_trial": 91, "dateTime": 1512880474807, "trialdata": {"rt": -1, "stimulus": "<p id=\"stim\">HEADBAND</p>", "key_press": -1, "type": "PRES_VIS", "word": "headband", "wordID": 695, "conditions": [24, 800, "v", 24000], "trial": 2, "serialpos": 2, "trial_type": "single-stim", "trial_index": 91, "time_elapsed": 497884, "internal_node_id": "0.0-64.0"}}, {"uniqueid": "MTK0919:3JWH6J9I9TK8LNGT8KYRROC11OANBM", "current_trial": 92, "dateTime": 1512880476614, "trialdata": {"rt": -1, "stimulus": "<p id=\"stim\">CRICKET</p>", "key_press": -1, "type": "PRES_VIS", "word": "cricket", "wordID": 407, "conditions": [24, 800, "v", 24000], "trial": 2, "serialpos": 3, "trial_type": "single-stim", "trial_index": 92, "time_elapsed": 499691, "internal_node_id": "0.0-65.0"}}, {"uniqueid": "MTK0919:3JWH6J9I9TK8LNGT8KYRROC11OANBM", "current_trial": 93, "dateTime": 1512880478341, "trialdata": {"rt": -1, "stimulus": "<p id=\"stim\">CUPBOARD</p>", "key_press": -1, "type": "PRES_VIS", "word": "cupboard", "wordID": 424, "conditions": [24, 800, "v", 24000], "trial": 2, "serialpos": 4, "trial_type": "single-stim", "trial_index": 93, "time_elapsed": 501419, "internal_node_id": "0.0-66.0"}}, {"uniqueid": "MTK0919:3JWH6J9I9TK8LNGT8KYRROC11OANBM", "current_trial": 94, "dateTime": 1512880480062, "trialdata": {"rt": -1, "stimulus": "<p id=\"stim\">WIDOW</p>", "key_press": -1, "type": "PRES_VIS", "word": "widow", "wordID": 1607, "conditions": [24, 800, "v", 24000], "trial": 2, "serialpos": 5, "trial_type": "single-stim", "trial_index": 94, "time_elapsed": 503140, "internal_node_id": "0.0-67.0"}}, {"uniqueid": "MTK0919:3JWH6J9I9TK8LNGT8KYRROC11OANBM", "current_trial": 95, "dateTime": 1512880482032, "trialdata": {"rt": -1, "stimulus": "<p id=\"stim\">WIFE</p>", "key_press": -1, "type": "PRES_VIS", "word": "wife", "wordID": 1608, "conditions": [24, 800, "v", 24000], "trial": 2, "serialpos": 6, "trial_type": "single-stim", "trial_index": 95, "time_elapsed": 505110, "internal_node_id": "0.0-68.0"}}, {"uniqueid": "MTK0919:3JWH6J9I9TK8LNGT8KYRROC11OANBM", "current_trial": 96, "dateTime": 1512880483830, "trialdata": {"rt": -1, "stimulus": "<p id=\"stim\">CANYON</p>", "key_press": -1, "type": "PRES_VIS", "word": "canyon", "wordID": 234, "conditions": [24, 800, "v", 24000], "trial": 2, "serialpos": 7, "trial_type": "single-stim", "trial_index": 96, "time_elapsed": 506908, "internal_node_id": "0.0-69.0"}}, {"uniqueid": "MTK0919:3JWH6J9I9TK8LNGT8KYRROC11OANBM", "current_trial": 97, "dateTime": 1512880485589, "trialdata": {"rt": -1, "stimulus": "<p id=\"stim\">MARSH</p>", "key_press": -1, "type": "PRES_VIS", "word": "marsh", "wordID": 873, "conditions": [24, 800, "v", 24000], "trial": 2, "serialpos": 8, "trial_type": "single-stim", "trial_index": 97, "time_elapsed": 508667, "internal_node_id": "0.0-70.0"}}, {"uniqueid": "MTK0919:3JWH6J9I9TK8LNGT8KYRROC11OANBM", "current_trial": 98, "dateTime": 1512880487451, "trialdata": {"rt": -1, "stimulus": "<p id=\"stim\">POWDER</p>", "key_press": -1, "type": "PRES_VIS", "word": "powder", "wordID": 1116, "conditions": [24, 800, "v", 24000], "trial": 2, "serialpos": 9, "trial_type": "single-stim", "trial_index": 98, "time_elapsed": 510529, "internal_node_id": "0.0-71.0"}}, {"uniqueid": "MTK0919:3JWH6J9I9TK8LNGT8KYRROC11OANBM", "current_trial": 99, "dateTime": 1512880489092, "trialdata": {"rt": -1, "stimulus": "<p id=\"stim\">BODY</p>", "key_press": -1, "type": "PRES_VIS", "word": "body", "wordID": 144, "conditions": [24, 800, "v", 24000], "trial": 2, "serialpos": 10, "trial_type": "single-stim", "trial_index": 99, "time_elapsed": 512169, "internal_node_id": "0.0-72.0"}}, {"uniqueid": "MTK0919:3JWH6J9I9TK8LNGT8KYRROC11OANBM", "current_trial": 100, "dateTime": 1512880490983, "trialdata": {"rt": -1, "stimulus": "<p id=\"stim\">DRESSER</p>", "key_press": -1, "type": "PRES_VIS", "word": "dresser", "wordID": 495, "conditions": [24, 800, "v", 24000], "trial": 2, "serialpos": 11, "trial_type": "single-stim", "trial_index": 100, "time_elapsed": 514061, "internal_node_id": "0.0-73.0"}}, {"uniqueid": "MTK0919:3JWH6J9I9TK8LNGT8KYRROC11OANBM", "current_trial": 101, "dateTime": 1512880492834, "trialdata": {"rt": -1, "stimulus": "<p id=\"stim\">FUNGUS</p>", "key_press": -1, "type": "PRES_VIS", "word": "fungus", "wordID": 613, "conditions": [24, 800, "v", 24000], "trial": 2, "serialpos": 12, "trial_type": "single-stim", "trial_index": 101, "time_elapsed": 515912, "internal_node_id": "0.0-74.0"}}, {"uniqueid": "MTK0919:3JWH6J9I9TK8LNGT8KYRROC11OANBM", "current_trial": 102, "dateTime": 1512880494712, "trialdata": {"rt": -1, "stimulus": "<p id=\"stim\">PEANUT</p>", "key_press": -1, "type": "PRES_VIS", "word": "peanut", "wordID": 1031, "conditions": [24, 800, "v", 24000], "trial": 2, "serialpos": 13, "trial_type": "single-stim", "trial_index": 102, "time_elapsed": 517790, "internal_node_id": "0.0-75.0"}}, {"uniqueid": "MTK0919:3JWH6J9I9TK8LNGT8KYRROC11OANBM", "current_trial": 103, "dateTime": 1512880496582, "trialdata": {"rt": -1, "stimulus": "<p id=\"stim\">PECAN</p>", "key_press": -1, "type": "PRES_VIS", "word": "pecan", "wordID": 1035, "conditions": [24, 800, "v", 24000], "trial": 2, "serialpos": 14, "trial_type": "single-stim", "trial_index": 103, "time_elapsed": 519659, "internal_node_id": "0.0-76.0"}}, {"uniqueid": "MTK0919:3JWH6J9I9TK8LNGT8KYRROC11OANBM", "current_trial": 104, "dateTime": 1512880498247, "trialdata": {"rt": -1, "stimulus": "<p id=\"stim\">CABBAGE</p>", "key_press": -1, "type": "PRES_VIS", "word": "cabbage", "wordID": 209, "conditions": [24, 800, "v", 24000], "trial": 2, "serialpos": 15, "trial_type": "single-stim", "trial_index": 104, "time_elapsed": 521325, "internal_node_id": "0.0-77.0"}}, {"uniqueid": "MTK0919:3JWH6J9I9TK8LNGT8KYRROC11OANBM", "current_trial": 105, "dateTime": 1512880500227, "trialdata": {"rt": -1, "stimulus": "<p id=\"stim\">ARMY</p>", "key_press": -1, "type": "PRES_VIS", "word": "army", "wordID": 38, "conditions": [24, 800, "v", 24000], "trial": 2, "serialpos": 16, "trial_type": "single-stim", "trial_index": 105, "time_elapsed": 523305, "internal_node_id": "0.0-78.0"}}, {"uniqueid": "MTK0919:3JWH6J9I9TK8LNGT8KYRROC11OANBM", "current_trial": 106, "dateTime": 1512880501953, "trialdata": {"rt": -1, "stimulus": "<p id=\"stim\">PASTA</p>", "key_press": -1, "type": "PRES_VIS", "word": "pasta", "wordID": 1020, "conditions": [24, 800, "v", 24000], "trial": 2, "serialpos": 17, "trial_type": "single-stim", "trial_index": 106, "time_elapsed": 525031, "internal_node_id": "0.0-79.0"}}, {"uniqueid": "MTK0919:3JWH6J9I9TK8LNGT8KYRROC11OANBM", "current_trial": 107, "dateTime": 1512880503766, "trialdata": {"rt": -1, "stimulus": "<p id=\"stim\">REBEL</p>", "key_press": -1, "type": "PRES_VIS", "word": "rebel", "wordID": 1171, "conditions": [24, 800, "v", 24000], "trial": 2, "serialpos": 18, "trial_type": "single-stim", "trial_index": 107, "time_elapsed": 526843, "internal_node_id": "0.0-80.0"}}, {"uniqueid": "MTK0919:3JWH6J9I9TK8LNGT8KYRROC11OANBM", "current_trial": 108, "dateTime": 1512880505600, "trialdata": {"rt": -1, "stimulus": "<p id=\"stim\">TURTLE</p>", "key_press": -1, "type": "PRES_VIS", "word": "turtle", "wordID": 1521, "conditions": [24, 800, "v", 24000], "trial": 2, "serialpos": 19, "trial_type": "single-stim", "trial_index": 108, "time_elapsed": 528678, "internal_node_id": "0.0-81.0"}}, {"uniqueid": "MTK0919:3JWH6J9I9TK8LNGT8KYRROC11OANBM", "current_trial": 109, "dateTime": 1512880507443, "trialdata": {"rt": -1, "stimulus": "<p id=\"stim\">DRESS</p>", "key_press": -1, "type": "PRES_VIS", "word": "dress", "wordID": 494, "conditions": [24, 800, "v", 24000], "trial": 2, "serialpos": 20, "trial_type": "single-stim", "trial_index": 109, "time_elapsed": 530521, "internal_node_id": "0.0-82.0"}}, {"uniqueid": "MTK0919:3JWH6J9I9TK8LNGT8KYRROC11OANBM", "current_trial": 110, "dateTime": 1512880509431, "trialdata": {"rt": -1, "stimulus": "<p id=\"stim\">PIZZA</p>", "key_press": -1, "type": "PRES_VIS", "word": "pizza", "wordID": 1078, "conditions": [24, 800, "v", 24000], "trial": 2, "serialpos": 21, "trial_type": "single-stim", "trial_index": 110, "time_elapsed": 532508, "internal_node_id": "0.0-83.0"}}, {"uniqueid": "MTK0919:3JWH6J9I9TK8LNGT8KYRROC11OANBM", "current_trial": 111, "dateTime": 1512880511199, "trialdata": {"rt": -1, "stimulus": "<p id=\"stim\">PREACHER</p>", "key_press": -1, "type": "PRES_VIS", "word": "preacher", "wordID": 1118, "conditions": [24, 800, "v", 24000], "trial": 2, "serialpos": 22, "trial_type": "single-stim", "trial_index": 111, "time_elapsed": 534277, "internal_node_id": "0.0-84.0"}}, {"uniqueid": "MTK0919:3JWH6J9I9TK8LNGT8KYRROC11OANBM", "current_trial": 112, "dateTime": 1512880512942, "trialdata": {"rt": -1, "stimulus": "<p id=\"stim\">CLIMBER</p>", "key_press": -1, "type": "PRES_VIS", "word": "climber", "wordID": 322, "conditions": [24, 800, "v", 24000], "trial": 2, "serialpos": 23, "trial_type": "single-stim", "trial_index": 112, "time_elapsed": 536020, "internal_node_id": "0.0-85.0"}}, {"uniqueid": "MTK0919:3JWH6J9I9TK8LNGT8KYRROC11OANBM", "current_trial": 113, "dateTime": 1512880515063, "trialdata": {"rt": -1, "stimulus": "", "key_press": -1, "type": "PRE_RECALL_DELAY", "trial_type": "single-stim", "trial_index": 113, "time_elapsed": 538141, "internal_node_id": "0.0-86.0-0.0"}}, {"uniqueid": "MTK0919:3JWH6J9I9TK8LNGT8KYRROC11OANBM", "current_trial": 114, "dateTime": 1512880515564, "trialdata": {"rt": -1000, "stimulus": "/static/audio/400Hz.wav", "key_press": -1, "type": "PRE_RECALL_ALERT", "trial_type": "single-audio", "trial_index": 114, "time_elapsed": 538642, "internal_node_id": "0.0-87.0"}}, {"uniqueid": "MTK0919:3JWH6J9I9TK8LNGT8KYRROC11OANBM", "current_trial": 115, "dateTime": 1512880575569, "trialdata": {"rt": [3257, 5515, 7717, 9982, 11581, 15634, 18225, 20509, 22829, 24826, 37295, 41300], "recwords": ["pizza", "preacher", "climber", "wife", "widow", "husband", "swamp", "cricket", "turtle", "marsh", "cricket", "pasta"], "type": "FREE_RECALL", "conditions": [24, 800, "v", 24000], "trial": 2, "trial_type": "free-recall", "trial_index": 115, "time_elapsed": 598644, "internal_node_id": "0.0-88.0-0.0"}}, {"uniqueid": "MTK0919:3JWH6J9I9TK8LNGT8KYRROC11OANBM", "current_trial": 116, "dateTime": 1512880578860, "trialdata": {"rt": 1290, "key_press": 186, "type": "INSTRUCTIONS", "trial_type": "text", "trial_index": 116, "time_elapsed": 601938, "internal_node_id": "0.0-89.0"}}, {"uniqueid": "MTK0919:3JWH6J9I9TK8LNGT8KYRROC11OANBM", "current_trial": 117, "dateTime": 1512880604866, "trialdata": {"rt": [4430, 9871, 18003, 22576], "responses": ["21", "22", "25", "18"], "num1": [7, 8, 9, 8, 3], "num2": [4, 6, 7, 1, 1], "num3": [9, 8, 6, 9, 7], "type": "DISTRACTOR", "conditions": [12, 1600, "v", 24000], "trial": 3, "trial_type": "math-distractor", "trial_index": 117, "time_elapsed": 627942, "internal_node_id": "0.0-90.0"}}, {"uniqueid": "MTK0919:3JWH6J9I9TK8LNGT8KYRROC11OANBM", "current_trial": 118, "dateTime": 1512880607867, "trialdata": {"rt": -1, "stimulus": "<p id=\"stim\">10</p>", "key_press": -1, "trial_type": "single-stim", "trial_index": 118, "time_elapsed": 630945, "internal_node_id": "0.0-91.0-0.0"}}, {"uniqueid": "MTK0919:3JWH6J9I9TK8LNGT8KYRROC11OANBM", "current_trial": 119, "dateTime": 1512880608868, "trialdata": {"rt": -1, "stimulus": "<p id=\"stim\">9</p>", "key_press": -1, "trial_type": "single-stim", "trial_index": 119, "time_elapsed": 631946, "internal_node_id": "0.0-91.0-1.0"}}, {"uniqueid": "MTK0919:3JWH6J9I9TK8LNGT8KYRROC11OANBM", "current_trial": 120, "dateTime": 1512880609869, "trialdata": {"rt": -1, "stimulus": "<p id=\"stim\">8</p>", "key_press": -1, "trial_type": "single-stim", "trial_index": 120, "time_elapsed": 632947, "internal_node_id": "0.0-91.0-2.0"}}, {"uniqueid": "MTK0919:3JWH6J9I9TK8LNGT8KYRROC11OANBM", "current_trial": 121, "dateTime": 1512880610871, "trialdata": {"rt": -1, "stimulus": "<p id=\"stim\">7</p>", "key_press": -1, "trial_type": "single-stim", "trial_index": 121, "time_elapsed": 633949, "internal_node_id": "0.0-91.0-3.0"}}, {"uniqueid": "MTK0919:3JWH6J9I9TK8LNGT8KYRROC11OANBM", "current_trial": 122, "dateTime": 1512880611872, "trialdata": {"rt": -1, "stimulus": "<p id=\"stim\">6</p>", "key_press": -1, "trial_type": "single-stim", "trial_index": 122, "time_elapsed": 634950, "internal_node_id": "0.0-91.0-4.0"}}, {"uniqueid": "MTK0919:3JWH6J9I9TK8LNGT8KYRROC11OANBM", "current_trial": 123, "dateTime": 1512880612873, "trialdata": {"rt": -1, "stimulus": "<p id=\"stim\">5</p>", "key_press": -1, "trial_type": "single-stim", "trial_index": 123, "time_elapsed": 635951, "internal_node_id": "0.0-91.0-5.0"}}, {"uniqueid": "MTK0919:3JWH6J9I9TK8LNGT8KYRROC11OANBM", "current_trial": 124, "dateTime": 1512880613873, "trialdata": {"rt": -1, "stimulus": "<p id=\"stim\">4</p>", "key_press": -1, "trial_type": "single-stim", "trial_index": 124, "time_elapsed": 636951, "internal_node_id": "0.0-91.0-6.0"}}, {"uniqueid": "MTK0919:3JWH6J9I9TK8LNGT8KYRROC11OANBM", "current_trial": 125, "dateTime": 1512880614874, "trialdata": {"rt": -1, "stimulus": "<p id=\"stim\">3</p>", "key_press": -1, "trial_type": "single-stim", "trial_index": 125, "time_elapsed": 637952, "internal_node_id": "0.0-91.0-7.0"}}, {"uniqueid": "MTK0919:3JWH6J9I9TK8LNGT8KYRROC11OANBM", "current_trial": 126, "dateTime": 1512880615875, "trialdata": {"rt": -1, "stimulus": "<p id=\"stim\">2</p>", "key_press": -1, "trial_type": "single-stim", "trial_index": 126, "time_elapsed": 638953, "internal_node_id": "0.0-91.0-8.0"}}, {"uniqueid": "MTK0919:3JWH6J9I9TK8LNGT8KYRROC11OANBM", "current_trial": 127, "dateTime": 1512880616877, "trialdata": {"rt": -1, "stimulus": "<p id=\"stim\">1</p>", "key_press": -1, "trial_type": "single-stim", "trial_index": 127, "time_elapsed": 639955, "internal_node_id": "0.0-91.0-9.0"}}, {"uniqueid": "MTK0919:3JWH6J9I9TK8LNGT8KYRROC11OANBM", "current_trial": 128, "dateTime": 1512880618379, "trialdata": {"rt": -1, "stimulus": "<p id=\"stim\">+</p>", "key_press": -1, "type": "FIXATION", "trial_type": "single-stim", "trial_index": 128, "time_elapsed": 641456, "internal_node_id": "0.0-92.0-0.0"}}, {"uniqueid": "MTK0919:3JWH6J9I9TK8LNGT8KYRROC11OANBM", "current_trial": 129, "dateTime": 1512880619980, "trialdata": {"rt": -1, "stimulus": "<p id=\"stim\">FIREPLACE</p>", "key_press": -1, "type": "PRES_VIS", "word": "fireplace", "wordID": 569, "conditions": [12, 1600, "v", 24000], "trial": 3, "serialpos": 0, "trial_type": "single-stim", "trial_index": 129, "time_elapsed": 643058, "internal_node_id": "0.0-93.0"}}, {"uniqueid": "MTK0919:3JWH6J9I9TK8LNGT8KYRROC11OANBM", "current_trial": 130, "dateTime": 1512880622653, "trialdata": {"rt": -1, "stimulus": "<p id=\"stim\">GARDEN</p>", "key_press": -1, "type": "PRES_VIS", "word": "garden", "wordID": 622, "conditions": [12, 1600, "v", 24000], "trial": 3, "serialpos": 1, "trial_type": "single-stim", "trial_index": 130, "time_elapsed": 645730, "internal_node_id": "0.0-94.0"}}, {"uniqueid": "MTK0919:3JWH6J9I9TK8LNGT8KYRROC11OANBM", "current_trial": 131, "dateTime": 1512880625340, "trialdata": {"rt": -1, "stimulus": "<p id=\"stim\">SLOPE</p>", "key_press": -1, "type": "PRES_VIS", "word": "slope", "wordID": 1327, "conditions": [12, 1600, "v", 24000], "trial": 3, "serialpos": 2, "trial_type": "single-stim", "trial_index": 131, "time_elapsed": 648418, "internal_node_id": "0.0-95.0"}}, {"uniqueid": "MTK0919:3JWH6J9I9TK8LNGT8KYRROC11OANBM", "current_trial": 132, "dateTime": 1512880628050, "trialdata": {"rt": -1, "stimulus": "<p id=\"stim\">BRICK</p>", "key_press": -1, "type": "PRES_VIS", "word": "brick", "wordID": 171, "conditions": [12, 1600, "v", 24000], "trial": 3, "serialpos": 3, "trial_type": "single-stim", "trial_index": 132, "time_elapsed": 651128, "internal_node_id": "0.0-96.0"}}, {"uniqueid": "MTK0919:3JWH6J9I9TK8LNGT8KYRROC11OANBM", "current_trial": 133, "dateTime": 1512880630611, "trialdata": {"rt": -1, "stimulus": "<p id=\"stim\">TEACHER</p>", "key_press": -1, "type": "PRES_VIS", "word": "teacher", "wordID": 1439, "conditions": [12, 1600, "v", 24000], "trial": 3, "serialpos": 4, "trial_type": "single-stim", "trial_index": 133, "time_elapsed": 653688, "internal_node_id": "0.0-97.0"}}, {"uniqueid": "MTK0919:3JWH6J9I9TK8LNGT8KYRROC11OANBM", "current_trial": 134, "dateTime": 1512880633146, "trialdata": {"rt": -1, "stimulus": "<p id=\"stim\">APPLE</p>", "key_press": -1, "type": "PRES_VIS", "word": "apple", "wordID": 32, "conditions": [12, 1600, "v", 24000], "trial": 3, "serialpos": 5, "trial_type": "single-stim", "trial_index": 134, "time_elapsed": 656224, "internal_node_id": "0.0-98.0"}}, {"uniqueid": "MTK0919:3JWH6J9I9TK8LNGT8KYRROC11OANBM", "current_trial": 135, "dateTime": 1512880635630, "trialdata": {"rt": -1, "stimulus": "<p id=\"stim\">SUITCASE</p>", "key_press": -1, "type": "PRES_VIS", "word": "suitcase", "wordID": 1402, "conditions": [12, 1600, "v", 24000], "trial": 3, "serialpos": 6, "trial_type": "single-stim", "trial_index": 135, "time_elapsed": 658708, "internal_node_id": "0.0-99.0"}}, {"uniqueid": "MTK0919:3JWH6J9I9TK8LNGT8KYRROC11OANBM", "current_trial": 136, "dateTime": 1512880638354, "trialdata": {"rt": -1, "stimulus": "<p id=\"stim\">TILE</p>", "key_press": -1, "type": "PRES_VIS", "word": "tile", "wordID": 1467, "conditions": [12, 1600, "v", 24000], "trial": 3, "serialpos": 7, "trial_type": "single-stim", "trial_index": 136, "time_elapsed": 661431, "internal_node_id": "0.0-100.0"}}, {"uniqueid": "MTK0919:3JWH6J9I9TK8LNGT8KYRROC11OANBM", "current_trial": 137, "dateTime": 1512880640835, "trialdata": {"rt": -1, "stimulus": "<p id=\"stim\">FOREST</p>", "key_press": -1, "type": "PRES_VIS", "word": "forest", "wordID": 592, "conditions": [12, 1600, "v", 24000], "trial": 3, "serialpos": 8, "trial_type": "single-stim", "trial_index": 137, "time_elapsed": 663913, "internal_node_id": "0.0-101.0"}}, {"uniqueid": "MTK0919:3JWH6J9I9TK8LNGT8KYRROC11OANBM", "current_trial": 138, "dateTime": 1512880643291, "trialdata": {"rt": -1, "stimulus": "<p id=\"stim\">FOX</p>", "key_press": -1, "type": "PRES_VIS", "word": "fox", "wordID": 597, "conditions": [12, 1600, "v", 24000], "trial": 3, "serialpos": 9, "trial_type": "single-stim", "trial_index": 138, "time_elapsed": 666369, "internal_node_id": "0.0-102.0"}}, {"uniqueid": "MTK0919:3JWH6J9I9TK8LNGT8KYRROC11OANBM", "current_trial": 139, "dateTime": 1512880645977, "trialdata": {"rt": -1, "stimulus": "<p id=\"stim\">EUROPE</p>", "key_press": -1, "type": "PRES_VIS", "word": "europe", "wordID": 540, "conditions": [12, 1600, "v", 24000], "trial": 3, "serialpos": 10, "trial_type": "single-stim", "trial_index": 139, "time_elapsed": 669055, "internal_node_id": "0.0-103.0"}}, {"uniqueid": "MTK0919:3JWH6J9I9TK8LNGT8KYRROC11OANBM", "current_trial": 140, "dateTime": 1512880648688, "trialdata": {"rt": -1, "stimulus": "<p id=\"stim\">FRANCE</p>", "key_press": -1, "type": "PRES_VIS", "word": "france", "wordID": 600, "conditions": [12, 1600, "v", 24000], "trial": 3, "serialpos": 11, "trial_type": "single-stim", "trial_index": 140, "time_elapsed": 671766, "internal_node_id": "0.0-104.0"}}, {"uniqueid": "MTK0919:3JWH6J9I9TK8LNGT8KYRROC11OANBM", "current_trial": 141, "dateTime": 1512880650795, "trialdata": {"rt": -1, "stimulus": "", "key_press": -1, "type": "PRE_RECALL_DELAY", "trial_type": "single-stim", "trial_index": 141, "time_elapsed": 673873, "internal_node_id": "0.0-105.0-0.0"}}, {"uniqueid": "MTK0919:3JWH6J9I9TK8LNGT8KYRROC11OANBM", "current_trial": 142, "dateTime": 1512880651296, "trialdata": {"rt": -1000, "stimulus": "/static/audio/400Hz.wav", "key_press": -1, "type": "PRE_RECALL_ALERT", "trial_type": "single-audio", "trial_index": 142, "time_elapsed": 674374, "internal_node_id": "0.0-106.0"}}, {"uniqueid": "MTK0919:3JWH6J9I9TK8LNGT8KYRROC11OANBM", "current_trial": 143, "dateTime": 1512880711305, "trialdata": {"rt": [4675, 7130, 9059, 11958, 13323, 19557, 28914], "recwords": ["france", "fox", "europe", "teacher", "book", "fireplace", "worm"], "type": "FREE_RECALL", "conditions": [12, 1600, "v", 24000], "trial": 3, "trial_type": "free-recall", "trial_index": 143, "time_elapsed": 734375, "internal_node_id": "0.0-107.0-0.0"}}], "questiondata": {}, "eventdata": [{"eventtype": "initialized", "value": null, "timestamp": 1512879962229, "interval": 0}, {"eventtype": "window_resize", "value": [1600, 1200], "timestamp": 1512879962229, "interval": 0}, {"eventtype": "focus", "value": "off", "timestamp": 1512879988113, "interval": 25884}, {"eventtype": "focus", "value": "on", "timestamp": 1512879995451, "interval": 7338}, {"eventtype": "window_resize", "value": [1600, 1153], "timestamp": 1512880006614, "interval": 11163}, {"eventtype": "focus", "value": "off", "timestamp": 1512880009642, "interval": 3028}, {"eventtype": "focus", "value": "on", "timestamp": 1512880040721, "interval": 31079}, {"eventtype": "window_resize", "value": [1600, 1200], "timestamp": 1512880044133, "interval": 3412}, {"eventtype": "focus", "value": "off", "timestamp": 1512880055103, "interval": 10970}, {"eventtype": "focus", "value": "on", "timestamp": 1512880057705, "interval": 2602}, {"eventtype": "focus", "value": "off", "timestamp": 1512880064447, "interval": 6742}, {"eventtype": "focus", "value": "on", "timestamp": 1512880067714, "interval": 3267}, {"eventtype": "focus", "value": "off", "timestamp": 1512880115238, "interval": 47524}, {"eventtype": "focus", "value": "on", "timestamp": 1512880138504, "interval": 23266}, {"eventtype": "focus", "value": "off", "timestamp": 1512880218895, "interval": 80391}, {"eventtype": "focus", "value": "on", "timestamp": 1512880232719, "interval": 13824}, {"eventtype": "focus", "value": "off", "timestamp": 1512880605186, "interval": 372467}, {"eventtype": "focus", "value": "on", "timestamp": 1512880654139, "interval": 48953}, {"eventtype": "focus", "value": "off", "timestamp": 1512880685788, "interval": 31649}, {"eventtype": "focus", "value": "on", "timestamp": 1512880709538, "interval": 23750}, {"eventtype": "focus", "value": "off", "timestamp": 1512880721035, "interval": 11497}, {"eventtype": "focus", "value": "on", "timestamp": 1512880733342, "interval": 12307}, {"eventtype": "window_resize", "value": [1600, 1153], "timestamp": 1512880734846, "interval": 1504}, {"eventtype": "focus", "value": "off", "timestamp": 1512880737672, "interval": 2826}, {"eventtype": "focus", "value": "on", "timestamp": 1512881816735, "interval": 1079063}], "useragent": "Mozilla/5.0 (Windows NT 10.0; Win64; x64) AppleWebKit/537.36 (KHTML, like Gecko) Chrome/62.0.3202.94 Safari/537.36", "mode": "live", "status": "user data saved"}