{"assignmentId": "3K2755HG5TAPCS1WOS6KE9RS585DF0", "workerId": "MTK1752", "questiondata": {"avail_screen_height": 728, "color_depth": 24, "screen_width": 1366, "pixel_depth": 24, "avail_screen_width": 1366, "screen_height": 768}, "bonus": 0, "hitId": "30Y6N4AHYP3KSY8BPL1C6E9RQ0ZRD7", "counterbalance": 2959, "useragent": "Mozilla/5.0 (Windows NT 10.0; Win64; x64) AppleWebKit/537.36 (KHTML, like Gecko) Chrome/63.0.3239.132 Safari/537.36", "eventdata": [{"eventtype": "initialized", "interval": 0, "value": null, "timestamp": 1516297286613}, {"eventtype": "window_resize", "interval": 1, "value": [1366, 721], "timestamp": 1516297286614}, {"eventtype": "focus", "interval": 11276, "value": "off", "timestamp": 1516297297890}, {"eventtype": "focus", "interval": 18599, "value": "on", "timestamp": 1516297316489}], "data": [{"current_trial": 0, "trialdata": {"rt": 11656, "trial_type": "text", "internal_node_id": "0.0-0.0", "time_elapsed": 11661, "key_press": 32, "type": "INSTRUCTIONS", "trial_index": 0}, "uniqueid": "MTK1752:3K2755HG5TAPCS1WOS6KE9RS585DF0", "dateTime": 1516297318193}, {"current_trial": 1, "trialdata": {"rt": 12020, "trial_type": "text", "internal_node_id": "0.0-1.0", "time_elapsed": 23687, "key_press": 175, "type": "INSTRUCTIONS", "trial_index": 1}, "uniqueid": "MTK1752:3K2755HG5TAPCS1WOS6KE9RS585DF0", "dateTime": 1516297330218}, {"current_trial": 2, "trialdata": {"rt": [35563], "trial_type": "audio-test", "responses": ["ocean"], "internal_node_id": "0.0-2.0", "time_elapsed": 59280, "type": "AUDIO_TEST", "trial_index": 2}, "uniqueid": "MTK1752:3K2755HG5TAPCS1WOS6KE9RS585DF0", "dateTime": 1516297365812}, {"current_trial": 3, "trialdata": {"rt": [16564], "trial_type": "audio-test", "responses": ["crystal"], "internal_node_id": "0.0-3.0", "time_elapsed": 75848, "type": "AUDIO_TEST", "trial_index": 3}, "uniqueid": "MTK1752:3K2755HG5TAPCS1WOS6KE9RS585DF0", "dateTime": 1516297382379}, {"current_trial": 4, "trialdata": {"rt": [15850], "trial_type": "audio-test", "responses": ["spice"], "internal_node_id": "0.0-4.0", "time_elapsed": 91702, "type": "AUDIO_TEST", "trial_index": 4}, "uniqueid": "MTK1752:3K2755HG5TAPCS1WOS6KE9RS585DF0", "dateTime": 1516297398233}, {"current_trial": 5, "trialdata": {"rt": 17434, "trial_type": "survey-text", "responses": "{\"Q0\":\"11:15\",\"Q1\":\"7:00\",\"Q2\":\"4\"}", "internal_node_id": "0.0-5.0", "time_elapsed": 109892, "type": "SLEEP_SURVEY", "trial_index": 5}, "uniqueid": "MTK1752:3K2755HG5TAPCS1WOS6KE9RS585DF0", "dateTime": 1516297416423}, {"current_trial": 6, "trialdata": {"rt": 22592, "trial_type": "text", "internal_node_id": "0.0-6.0", "time_elapsed": 133488, "key_press": 32, "type": "INSTRUCTIONS", "trial_index": 6}, "uniqueid": "MTK1752:3K2755HG5TAPCS1WOS6KE9RS585DF0", "dateTime": 1516297440019}, {"current_trial": 7, "trialdata": {"rt": 14475, "trial_type": "text", "internal_node_id": "0.0-7.0", "time_elapsed": 148466, "key_press": 32, "type": "INSTRUCTIONS", "trial_index": 7}, "uniqueid": "MTK1752:3K2755HG5TAPCS1WOS6KE9RS585DF0", "dateTime": 1516297454997}, {"current_trial": 8, "trialdata": {"rt": 7856, "trial_type": "text", "internal_node_id": "0.0-8.0", "time_elapsed": 156826, "key_press": 32, "type": "INSTRUCTIONS", "trial_index": 8}, "uniqueid": "MTK1752:3K2755HG5TAPCS1WOS6KE9RS585DF0", "dateTime": 1516297463358}, {"current_trial": 9, "trialdata": {"rt": [4199, 10595, 13513], "trial_type": "math-distractor", "key_times": [2492, 3057, 4199, 7521, 9050, 10595, 12787, 13230, 13513], "responses": ["18", "16", "16"], "num2": [8, 5, 5, 6], "num3": [9, 3, 6, 4], "conditions": [18, 1200, "a", 18000], "internal_node_id": "0.0-9.0", "key_presses": [49, 56, 13, 49, 54, 13, 49, 54, 13], "trial": 0, "time_elapsed": 175849, "type": "DISTRACTOR", "trial_index": 9, "num1": [1, 8, 5, 5]}, "uniqueid": "MTK1752:3K2755HG5TAPCS1WOS6KE9RS585DF0", "dateTime": 1516297482380}, {"current_trial": 10, "trialdata": {"rt": -1, "trial_type": "single-stim", "stimulus": "<p id=\"stim\">10</p>", "internal_node_id": "0.0-10.0-0.0", "time_elapsed": 178859, "key_press": -1, "trial_index": 10}, "uniqueid": "MTK1752:3K2755HG5TAPCS1WOS6KE9RS585DF0", "dateTime": 1516297485392}, {"current_trial": 11, "trialdata": {"rt": -1, "trial_type": "single-stim", "stimulus": "<p id=\"stim\">9</p>", "internal_node_id": "0.0-10.0-1.0", "time_elapsed": 179868, "key_press": -1, "trial_index": 11}, "uniqueid": "MTK1752:3K2755HG5TAPCS1WOS6KE9RS585DF0", "dateTime": 1516297486399}, {"current_trial": 12, "trialdata": {"rt": -1, "trial_type": "single-stim", "stimulus": "<p id=\"stim\">8</p>", "internal_node_id": "0.0-10.0-2.0", "time_elapsed": 180874, "key_press": -1, "trial_index": 12}, "uniqueid": "MTK1752:3K2755HG5TAPCS1WOS6KE9RS585DF0", "dateTime": 1516297487405}, {"current_trial": 13, "trialdata": {"rt": -1, "trial_type": "single-stim", "stimulus": "<p id=\"stim\">7</p>", "internal_node_id": "0.0-10.0-3.0", "time_elapsed": 181876, "key_press": -1, "trial_index": 13}, "uniqueid": "MTK1752:3K2755HG5TAPCS1WOS6KE9RS585DF0", "dateTime": 1516297488407}, {"current_trial": 14, "trialdata": {"rt": -1, "trial_type": "single-stim", "stimulus": "<p id=\"stim\">6</p>", "internal_node_id": "0.0-10.0-4.0", "time_elapsed": 182878, "key_press": -1, "trial_index": 14}, "uniqueid": "MTK1752:3K2755HG5TAPCS1WOS6KE9RS585DF0", "dateTime": 1516297489409}, {"current_trial": 15, "trialdata": {"rt": -1, "trial_type": "single-stim", "stimulus": "<p id=\"stim\">5</p>", "internal_node_id": "0.0-10.0-5.0", "time_elapsed": 183887, "key_press": -1, "trial_index": 15}, "uniqueid": "MTK1752:3K2755HG5TAPCS1WOS6KE9RS585DF0", "dateTime": 1516297490418}, {"current_trial": 16, "trialdata": {"rt": -1, "trial_type": "single-stim", "stimulus": "<p id=\"stim\">4</p>", "internal_node_id": "0.0-10.0-6.0", "time_elapsed": 184894, "key_press": -1, "trial_index": 16}, "uniqueid": "MTK1752:3K2755HG5TAPCS1WOS6KE9RS585DF0", "dateTime": 1516297491425}, {"current_trial": 17, "trialdata": {"rt": -1, "trial_type": "single-stim", "stimulus": "<p id=\"stim\">3</p>", "internal_node_id": "0.0-10.0-7.0", "time_elapsed": 185897, "key_press": -1, "trial_index": 17}, "uniqueid": "MTK1752:3K2755HG5TAPCS1WOS6KE9RS585DF0", "dateTime": 1516297492428}, {"current_trial": 18, "trialdata": {"rt": -1, "trial_type": "single-stim", "stimulus": "<p id=\"stim\">2</p>", "internal_node_id": "0.0-10.0-8.0", "time_elapsed": 186899, "key_press": -1, "trial_index": 18}, "uniqueid": "MTK1752:3K2755HG5TAPCS1WOS6KE9RS585DF0", "dateTime": 1516297493430}, {"current_trial": 19, "trialdata": {"rt": -1, "trial_type": "single-stim", "stimulus": "<p id=\"stim\">1</p>", "internal_node_id": "0.0-10.0-9.0", "time_elapsed": 187905, "key_press": -1, "trial_index": 19}, "uniqueid": "MTK1752:3K2755HG5TAPCS1WOS6KE9RS585DF0", "dateTime": 1516297494436}, {"current_trial": 20, "trialdata": {"rt": -1, "trial_type": "single-stim", "stimulus": "<p id=\"stim\">+</p>", "internal_node_id": "0.0-11.0-0.0", "time_elapsed": 189406, "key_press": -1, "type": "FIXATION", "trial_index": 20}, "uniqueid": "MTK1752:3K2755HG5TAPCS1WOS6KE9RS585DF0", "dateTime": 1516297495938}, {"current_trial": 21, "trialdata": {"rt": -1000, "trial_type": "single-audio", "word": "rust", "stimulus": "/static/audio/wordpool/RUST.wav", "conditions": [18, 1200, "a", 18000], "internal_node_id": "0.0-12.0", "trial": 0, "time_elapsed": 191572, "serialpos": 0, "key_press": -1, "wordID": 1218, "type": "PRES_AUD", "trial_index": 21}, "uniqueid": "MTK1752:3K2755HG5TAPCS1WOS6KE9RS585DF0", "dateTime": 1516297498104}, {"current_trial": 22, "trialdata": {"rt": -1000, "trial_type": "single-audio", "word": "drawing", "stimulus": "/static/audio/wordpool/DRAWING.wav", "conditions": [18, 1200, "a", 18000], "internal_node_id": "0.0-13.0", "trial": 0, "time_elapsed": 193630, "serialpos": 1, "key_press": -1, "wordID": 493, "type": "PRES_AUD", "trial_index": 22}, "uniqueid": "MTK1752:3K2755HG5TAPCS1WOS6KE9RS585DF0", "dateTime": 1516297500162}, {"current_trial": 23, "trialdata": {"rt": -1000, "trial_type": "single-audio", "word": "scallop", "stimulus": "/static/audio/wordpool/SCALLOP.wav", "conditions": [18, 1200, "a", 18000], "internal_node_id": "0.0-14.0", "trial": 0, "time_elapsed": 195984, "serialpos": 2, "key_press": -1, "wordID": 1241, "type": "PRES_AUD", "trial_index": 23}, "uniqueid": "MTK1752:3K2755HG5TAPCS1WOS6KE9RS585DF0", "dateTime": 1516297502515}, {"current_trial": 24, "trialdata": {"rt": -1000, "trial_type": "single-audio", "word": "cigar", "stimulus": "/static/audio/wordpool/CIGAR.wav", "conditions": [18, 1200, "a", 18000], "internal_node_id": "0.0-15.0", "trial": 0, "time_elapsed": 198072, "serialpos": 3, "key_press": -1, "wordID": 307, "type": "PRES_AUD", "trial_index": 24}, "uniqueid": "MTK1752:3K2755HG5TAPCS1WOS6KE9RS585DF0", "dateTime": 1516297504603}, {"current_trial": 25, "trialdata": {"rt": -1000, "trial_type": "single-audio", "word": "flag", "stimulus": "/static/audio/wordpool/FLAG.wav", "conditions": [18, 1200, "a", 18000], "internal_node_id": "0.0-16.0", "trial": 0, "time_elapsed": 200414, "serialpos": 4, "key_press": -1, "wordID": 572, "type": "PRES_AUD", "trial_index": 25}, "uniqueid": "MTK1752:3K2755HG5TAPCS1WOS6KE9RS585DF0", "dateTime": 1516297506945}, {"current_trial": 26, "trialdata": {"rt": -1000, "trial_type": "single-audio", "word": "shortcake", "stimulus": "/static/audio/wordpool/SHORTCAKE.wav", "conditions": [18, 1200, "a", 18000], "internal_node_id": "0.0-17.0", "trial": 0, "time_elapsed": 202663, "serialpos": 5, "key_press": -1, "wordID": 1291, "type": "PRES_AUD", "trial_index": 26}, "uniqueid": "MTK1752:3K2755HG5TAPCS1WOS6KE9RS585DF0", "dateTime": 1516297509194}, {"current_trial": 27, "trialdata": {"rt": -1000, "trial_type": "single-audio", "word": "partner", "stimulus": "/static/audio/wordpool/PARTNER.wav", "conditions": [18, 1200, "a", 18000], "internal_node_id": "0.0-18.0", "trial": 0, "time_elapsed": 204932, "serialpos": 6, "key_press": -1, "wordID": 1016, "type": "PRES_AUD", "trial_index": 27}, "uniqueid": "MTK1752:3K2755HG5TAPCS1WOS6KE9RS585DF0", "dateTime": 1516297511463}, {"current_trial": 28, "trialdata": {"rt": -1000, "trial_type": "single-audio", "word": "perfume", "stimulus": "/static/audio/wordpool/PERFUME.wav", "conditions": [18, 1200, "a", 18000], "internal_node_id": "0.0-19.0", "trial": 0, "time_elapsed": 207057, "serialpos": 7, "key_press": -1, "wordID": 1048, "type": "PRES_AUD", "trial_index": 28}, "uniqueid": "MTK1752:3K2755HG5TAPCS1WOS6KE9RS585DF0", "dateTime": 1516297513588}, {"current_trial": 29, "trialdata": {"rt": -1000, "trial_type": "single-audio", "word": "sunrise", "stimulus": "/static/audio/wordpool/SUNRISE.wav", "conditions": [18, 1200, "a", 18000], "internal_node_id": "0.0-20.0", "trial": 0, "time_elapsed": 209159, "serialpos": 8, "key_press": -1, "wordID": 1406, "type": "PRES_AUD", "trial_index": 29}, "uniqueid": "MTK1752:3K2755HG5TAPCS1WOS6KE9RS585DF0", "dateTime": 1516297515690}, {"current_trial": 30, "trialdata": {"rt": -1000, "trial_type": "single-audio", "word": "rifle", "stimulus": "/static/audio/wordpool/RIFLE.wav", "conditions": [18, 1200, "a", 18000], "internal_node_id": "0.0-21.0", "trial": 0, "time_elapsed": 211293, "serialpos": 9, "key_press": -1, "wordID": 1191, "type": "PRES_AUD", "trial_index": 30}, "uniqueid": "MTK1752:3K2755HG5TAPCS1WOS6KE9RS585DF0", "dateTime": 1516297517825}, {"current_trial": 31, "trialdata": {"rt": -1000, "trial_type": "single-audio", "word": "child", "stimulus": "/static/audio/wordpool/CHILD.wav", "conditions": [18, 1200, "a", 18000], "internal_node_id": "0.0-22.0", "trial": 0, "time_elapsed": 213461, "serialpos": 10, "key_press": -1, "wordID": 298, "type": "PRES_AUD", "trial_index": 31}, "uniqueid": "MTK1752:3K2755HG5TAPCS1WOS6KE9RS585DF0", "dateTime": 1516297519993}, {"current_trial": 32, "trialdata": {"rt": -1000, "trial_type": "single-audio", "word": "scribble", "stimulus": "/static/audio/wordpool/SCRIBBLE.wav", "conditions": [18, 1200, "a", 18000], "internal_node_id": "0.0-23.0", "trial": 0, "time_elapsed": 215761, "serialpos": 11, "key_press": -1, "wordID": 1255, "type": "PRES_AUD", "trial_index": 32}, "uniqueid": "MTK1752:3K2755HG5TAPCS1WOS6KE9RS585DF0", "dateTime": 1516297522293}, {"current_trial": 33, "trialdata": {"rt": -1000, "trial_type": "single-audio", "word": "icing", "stimulus": "/static/audio/wordpool/ICING.wav", "conditions": [18, 1200, "a", 18000], "internal_node_id": "0.0-24.0", "trial": 0, "time_elapsed": 218130, "serialpos": 12, "key_press": -1, "wordID": 731, "type": "PRES_AUD", "trial_index": 33}, "uniqueid": "MTK1752:3K2755HG5TAPCS1WOS6KE9RS585DF0", "dateTime": 1516297524661}, {"current_trial": 34, "trialdata": {"rt": -1000, "trial_type": "single-audio", "word": "leg", "stimulus": "/static/audio/wordpool/LEG.wav", "conditions": [18, 1200, "a", 18000], "internal_node_id": "0.0-25.0", "trial": 0, "time_elapsed": 220220, "serialpos": 13, "key_press": -1, "wordID": 808, "type": "PRES_AUD", "trial_index": 34}, "uniqueid": "MTK1752:3K2755HG5TAPCS1WOS6KE9RS585DF0", "dateTime": 1516297526752}, {"current_trial": 35, "trialdata": {"rt": -1000, "trial_type": "single-audio", "word": "twig", "stimulus": "/static/audio/wordpool/TWIG.wav", "conditions": [18, 1200, "a", 18000], "internal_node_id": "0.0-26.0", "trial": 0, "time_elapsed": 222510, "serialpos": 14, "key_press": -1, "wordID": 1526, "type": "PRES_AUD", "trial_index": 35}, "uniqueid": "MTK1752:3K2755HG5TAPCS1WOS6KE9RS585DF0", "dateTime": 1516297529042}, {"current_trial": 36, "trialdata": {"rt": -1000, "trial_type": "single-audio", "word": "football", "stimulus": "/static/audio/wordpool/FOOTBALL.wav", "conditions": [18, 1200, "a", 18000], "internal_node_id": "0.0-27.0", "trial": 0, "time_elapsed": 224578, "serialpos": 15, "key_press": -1, "wordID": 590, "type": "PRES_AUD", "trial_index": 36}, "uniqueid": "MTK1752:3K2755HG5TAPCS1WOS6KE9RS585DF0", "dateTime": 1516297531109}, {"current_trial": 37, "trialdata": {"rt": -1000, "trial_type": "single-audio", "word": "drink", "stimulus": "/static/audio/wordpool/DRINK.wav", "conditions": [18, 1200, "a", 18000], "internal_node_id": "0.0-28.0", "trial": 0, "time_elapsed": 226842, "serialpos": 16, "key_press": -1, "wordID": 497, "type": "PRES_AUD", "trial_index": 37}, "uniqueid": "MTK1752:3K2755HG5TAPCS1WOS6KE9RS585DF0", "dateTime": 1516297533373}, {"current_trial": 38, "trialdata": {"rt": -1000, "trial_type": "single-audio", "word": "foot", "stimulus": "/static/audio/wordpool/FOOT.wav", "conditions": [18, 1200, "a", 18000], "internal_node_id": "0.0-29.0", "trial": 0, "time_elapsed": 229000, "serialpos": 17, "key_press": -1, "wordID": 589, "type": "PRES_AUD", "trial_index": 38}, "uniqueid": "MTK1752:3K2755HG5TAPCS1WOS6KE9RS585DF0", "dateTime": 1516297535531}, {"current_trial": 39, "trialdata": {"rt": -1, "trial_type": "single-stim", "stimulus": "", "internal_node_id": "0.0-30.0-0.0", "time_elapsed": 230329, "key_press": -1, "type": "PRE_RECALL_DELAY", "trial_index": 39}, "uniqueid": "MTK1752:3K2755HG5TAPCS1WOS6KE9RS585DF0", "dateTime": 1516297536860}, {"current_trial": 40, "trialdata": {"rt": -1000, "trial_type": "single-audio", "stimulus": "/static/audio/400Hz.wav", "internal_node_id": "0.0-31.0", "time_elapsed": 230832, "key_press": -1, "type": "PRE_RECALL_ALERT", "trial_index": 40}, "uniqueid": "MTK1752:3K2755HG5TAPCS1WOS6KE9RS585DF0", "dateTime": 1516297537363}], "currenttrial": 41, "condition": 1, "mode": "live"}