{"condition": 0, "counterbalance": 1313, "assignmentId": "3TR2532VIQ16WL8DXVPRN19SE7PJ6W", "workerId": "MTK1078", "hitId": "3EPG8DX9LKX4C8D3XNF437LKB1DP54", "currenttrial": 144, "bonus": 0, "data": [{"uniqueid": "MTK1078:3TR2532VIQ16WL8DXVPRN19SE7PJ6W", "current_trial": 0, "dateTime": 1513097871895, "trialdata": {"rt": 2029, "key_press": 32, "type": "INSTRUCTIONS", "trial_type": "text", "trial_index": 0, "time_elapsed": 2030, "internal_node_id": "0.0-0.0"}}, {"uniqueid": "MTK1078:3TR2532VIQ16WL8DXVPRN19SE7PJ6W", "current_trial": 1, "dateTime": 1513097872758, "trialdata": {"rt": 863, "key_press": 32, "type": "INSTRUCTIONS", "trial_type": "text", "trial_index": 1, "time_elapsed": 2893, "internal_node_id": "0.0-1.0"}}, {"uniqueid": "MTK1078:3TR2532VIQ16WL8DXVPRN19SE7PJ6W", "current_trial": 2, "dateTime": 1513097888247, "trialdata": {"rt": [15485], "responses": ["ocean"], "type": "AUDIO_TEST", "trial_type": "audio-test", "trial_index": 2, "time_elapsed": 18381, "internal_node_id": "0.0-2.0"}}, {"uniqueid": "MTK1078:3TR2532VIQ16WL8DXVPRN19SE7PJ6W", "current_trial": 3, "dateTime": 1513097894599, "trialdata": {"rt": [6351], "responses": ["crystal"], "type": "AUDIO_TEST", "trial_type": "audio-test", "trial_index": 3, "time_elapsed": 24734, "internal_node_id": "0.0-3.0"}}, {"uniqueid": "MTK1078:3TR2532VIQ16WL8DXVPRN19SE7PJ6W", "current_trial": 4, "dateTime": 1513097900999, "trialdata": {"rt": [6397], "responses": ["spice"], "type": "AUDIO_TEST", "trial_type": "audio-test", "trial_index": 4, "time_elapsed": 31134, "internal_node_id": "0.0-4.0"}}, {"uniqueid": "MTK1078:3TR2532VIQ16WL8DXVPRN19SE7PJ6W", "current_trial": 5, "dateTime": 1513097913343, "trialdata": {"rt": 11590, "responses": "{\"Q0\":\"5\",\"Q1\":\"9\",\"Q2\":\"5\"}", "type": "SLEEP_SURVEY", "trial_type": "survey-text", "trial_index": 5, "time_elapsed": 43478, "internal_node_id": "0.0-5.0"}}, {"uniqueid": "MTK1078:3TR2532VIQ16WL8DXVPRN19SE7PJ6W", "current_trial": 6, "dateTime": 1513097917559, "trialdata": {"rt": 3165, "key_press": 32, "type": "INSTRUCTIONS", "trial_type": "text", "trial_index": 6, "time_elapsed": 47694, "internal_node_id": "0.0-6.0"}}, {"uniqueid": "MTK1078:3TR2532VIQ16WL8DXVPRN19SE7PJ6W", "current_trial": 7, "dateTime": 1513097919846, "trialdata": {"rt": 1786, "key_press": 32, "type": "INSTRUCTIONS", "trial_type": "text", "trial_index": 7, "time_elapsed": 49981, "internal_node_id": "0.0-7.0"}}, {"uniqueid": "MTK1078:3TR2532VIQ16WL8DXVPRN19SE7PJ6W", "current_trial": 8, "dateTime": 1513097920855, "trialdata": {"rt": 506, "key_press": 32, "type": "INSTRUCTIONS", "trial_type": "text", "trial_index": 8, "time_elapsed": 50990, "internal_node_id": "0.0-8.0"}}, {"uniqueid": "MTK1078:3TR2532VIQ16WL8DXVPRN19SE7PJ6W", "current_trial": 9, "dateTime": 1513097939860, "trialdata": {"rt": [5057, 7762, 13522, 17074], "responses": ["17", "11", "18", "14"], "num1": [4, 5, 3, 5, 4], "num2": [4, 1, 9, 7, 2], "num3": [9, 5, 6, 2, 9], "type": "DISTRACTOR", "conditions": [18, 1200, "v", 18000], "trial": 0, "trial_type": "math-distractor", "trial_index": 9, "time_elapsed": 69995, "internal_node_id": "0.0-9.0"}}, {"uniqueid": "MTK1078:3TR2532VIQ16WL8DXVPRN19SE7PJ6W", "current_trial": 10, "dateTime": 1513097942864, "trialdata": {"rt": -1, "stimulus": "<p id=\"stim\">10</p>", "key_press": -1, "trial_type": "single-stim", "trial_index": 10, "time_elapsed": 72999, "internal_node_id": "0.0-10.0-0.0"}}, {"uniqueid": "MTK1078:3TR2532VIQ16WL8DXVPRN19SE7PJ6W", "current_trial": 11, "dateTime": 1513097944036, "trialdata": {"rt": 70, "stimulus": "<p id=\"stim\">9</p>", "key_press": 13, "trial_type": "single-stim", "trial_index": 11, "time_elapsed": 74171, "internal_node_id": "0.0-10.0-1.0"}}, {"uniqueid": "MTK1078:3TR2532VIQ16WL8DXVPRN19SE7PJ6W", "current_trial": 12, "dateTime": 1513097945395, "trialdata": {"rt": -1, "stimulus": "<p id=\"stim\">8</p>", "key_press": -1, "trial_type": "single-stim", "trial_index": 12, "time_elapsed": 75530, "internal_node_id": "0.0-10.0-2.0"}}, {"uniqueid": "MTK1078:3TR2532VIQ16WL8DXVPRN19SE7PJ6W", "current_trial": 13, "dateTime": 1513097946398, "trialdata": {"rt": -1, "stimulus": "<p id=\"stim\">7</p>", "key_press": -1, "trial_type": "single-stim", "trial_index": 13, "time_elapsed": 76532, "internal_node_id": "0.0-10.0-3.0"}}, {"uniqueid": "MTK1078:3TR2532VIQ16WL8DXVPRN19SE7PJ6W", "current_trial": 14, "dateTime": 1513097947399, "trialdata": {"rt": -1, "stimulus": "<p id=\"stim\">6</p>", "key_press": -1, "trial_type": "single-stim", "trial_index": 14, "time_elapsed": 77534, "internal_node_id": "0.0-10.0-4.0"}}, {"uniqueid": "MTK1078:3TR2532VIQ16WL8DXVPRN19SE7PJ6W", "current_trial": 15, "dateTime": 1513097948401, "trialdata": {"rt": -1, "stimulus": "<p id=\"stim\">5</p>", "key_press": -1, "trial_type": "single-stim", "trial_index": 15, "time_elapsed": 78536, "internal_node_id": "0.0-10.0-5.0"}}, {"uniqueid": "MTK1078:3TR2532VIQ16WL8DXVPRN19SE7PJ6W", "current_trial": 16, "dateTime": 1513097949402, "trialdata": {"rt": -1, "stimulus": "<p id=\"stim\">4</p>", "key_press": -1, "trial_type": "single-stim", "trial_index": 16, "time_elapsed": 79537, "internal_node_id": "0.0-10.0-6.0"}}, {"uniqueid": "MTK1078:3TR2532VIQ16WL8DXVPRN19SE7PJ6W", "current_trial": 17, "dateTime": 1513097950405, "trialdata": {"rt": -1, "stimulus": "<p id=\"stim\">3</p>", "key_press": -1, "trial_type": "single-stim", "trial_index": 17, "time_elapsed": 80540, "internal_node_id": "0.0-10.0-7.0"}}, {"uniqueid": "MTK1078:3TR2532VIQ16WL8DXVPRN19SE7PJ6W", "current_trial": 18, "dateTime": 1513097951407, "trialdata": {"rt": -1, "stimulus": "<p id=\"stim\">2</p>", "key_press": -1, "trial_type": "single-stim", "trial_index": 18, "time_elapsed": 81542, "internal_node_id": "0.0-10.0-8.0"}}, {"uniqueid": "MTK1078:3TR2532VIQ16WL8DXVPRN19SE7PJ6W", "current_trial": 19, "dateTime": 1513097952409, "trialdata": {"rt": -1, "stimulus": "<p id=\"stim\">1</p>", "key_press": -1, "trial_type": "single-stim", "trial_index": 19, "time_elapsed": 82544, "internal_node_id": "0.0-10.0-9.0"}}, {"uniqueid": "MTK1078:3TR2532VIQ16WL8DXVPRN19SE7PJ6W", "current_trial": 20, "dateTime": 1513097953926, "trialdata": {"rt": -1, "stimulus": "<p id=\"stim\">+</p>", "key_press": -1, "type": "FIXATION", "trial_type": "single-stim", "trial_index": 20, "time_elapsed": 84061, "internal_node_id": "0.0-11.0-0.0"}}, {"uniqueid": "MTK1078:3TR2532VIQ16WL8DXVPRN19SE7PJ6W", "current_trial": 21, "dateTime": 1513097955388, "trialdata": {"rt": -1, "stimulus": "<p id=\"stim\">EMPIRE</p>", "key_press": -1, "type": "PRES_VIS", "word": "empire", "wordID": 529, "conditions": [18, 1200, "v", 18000], "trial": 0, "serialpos": 0, "trial_type": "single-stim", "trial_index": 21, "time_elapsed": 85523, "internal_node_id": "0.0-12.0"}}, {"uniqueid": "MTK1078:3TR2532VIQ16WL8DXVPRN19SE7PJ6W", "current_trial": 22, "dateTime": 1513097957748, "trialdata": {"rt": -1, "stimulus": "<p id=\"stim\">MATCH</p>", "key_press": -1, "type": "PRES_VIS", "word": "match", "wordID": 877, "conditions": [18, 1200, "v", 18000], "trial": 0, "serialpos": 1, "trial_type": "single-stim", "trial_index": 22, "time_elapsed": 87883, "internal_node_id": "0.0-13.0"}}, {"uniqueid": "MTK1078:3TR2532VIQ16WL8DXVPRN19SE7PJ6W", "current_trial": 23, "dateTime": 1513097960013, "trialdata": {"rt": -1, "stimulus": "<p id=\"stim\">WOMAN</p>", "key_press": -1, "type": "PRES_VIS", "word": "woman", "wordID": 1619, "conditions": [18, 1200, "v", 18000], "trial": 0, "serialpos": 2, "trial_type": "single-stim", "trial_index": 23, "time_elapsed": 90148, "internal_node_id": "0.0-14.0"}}, {"uniqueid": "MTK1078:3TR2532VIQ16WL8DXVPRN19SE7PJ6W", "current_trial": 24, "dateTime": 1513097962240, "trialdata": {"rt": 438, "stimulus": "<p id=\"stim\">WAITER</p>", "key_press": 32, "type": "PRES_VIS", "word": "waiter", "wordID": 1579, "conditions": [18, 1200, "v", 18000], "trial": 0, "serialpos": 3, "trial_type": "single-stim", "trial_index": 24, "time_elapsed": 92375, "internal_node_id": "0.0-15.0"}}, {"uniqueid": "MTK1078:3TR2532VIQ16WL8DXVPRN19SE7PJ6W", "current_trial": 25, "dateTime": 1513097964386, "trialdata": {"rt": 36, "stimulus": "<p id=\"stim\">BACKBONE</p>", "key_press": 32, "type": "PRES_VIS", "word": "backbone", "wordID": 65, "conditions": [18, 1200, "v", 18000], "trial": 0, "serialpos": 4, "trial_type": "single-stim", "trial_index": 25, "time_elapsed": 94521, "internal_node_id": "0.0-16.0"}}, {"uniqueid": "MTK1078:3TR2532VIQ16WL8DXVPRN19SE7PJ6W", "current_trial": 26, "dateTime": 1513097966491, "trialdata": {"rt": 203, "stimulus": "<p id=\"stim\">GUITAR</p>", "key_press": 32, "type": "PRES_VIS", "word": "guitar", "wordID": 669, "conditions": [18, 1200, "v", 18000], "trial": 0, "serialpos": 5, "trial_type": "single-stim", "trial_index": 26, "time_elapsed": 96626, "internal_node_id": "0.0-17.0"}}, {"uniqueid": "MTK1078:3TR2532VIQ16WL8DXVPRN19SE7PJ6W", "current_trial": 27, "dateTime": 1513097968522, "trialdata": {"rt": 107, "stimulus": "<p id=\"stim\">STICKER</p>", "key_press": 32, "type": "PRES_VIS", "word": "sticker", "wordID": 1381, "conditions": [18, 1200, "v", 18000], "trial": 0, "serialpos": 6, "trial_type": "single-stim", "trial_index": 27, "time_elapsed": 98657, "internal_node_id": "0.0-18.0"}}, {"uniqueid": "MTK1078:3TR2532VIQ16WL8DXVPRN19SE7PJ6W", "current_trial": 28, "dateTime": 1513097970870, "trialdata": {"rt": 799, "stimulus": "<p id=\"stim\">MILK</p>", "key_press": 32, "type": "PRES_VIS", "word": "milk", "wordID": 894, "conditions": [18, 1200, "v", 18000], "trial": 0, "serialpos": 7, "trial_type": "single-stim", "trial_index": 28, "time_elapsed": 101005, "internal_node_id": "0.0-19.0"}}, {"uniqueid": "MTK1078:3TR2532VIQ16WL8DXVPRN19SE7PJ6W", "current_trial": 29, "dateTime": 1513097973162, "trialdata": {"rt": 668, "stimulus": "<p id=\"stim\">DAISY</p>", "key_press": 32, "type": "PRES_VIS", "word": "daisy", "wordID": 434, "conditions": [18, 1200, "v", 18000], "trial": 0, "serialpos": 8, "trial_type": "single-stim", "trial_index": 29, "time_elapsed": 103297, "internal_node_id": "0.0-20.0"}}, {"uniqueid": "MTK1078:3TR2532VIQ16WL8DXVPRN19SE7PJ6W", "current_trial": 30, "dateTime": 1513097975454, "trialdata": {"rt": 161, "stimulus": "<p id=\"stim\">SERVER</p>", "key_press": 65, "type": "PRES_VIS", "word": "server", "wordID": 1271, "conditions": [18, 1200, "v", 18000], "trial": 0, "serialpos": 9, "trial_type": "single-stim", "trial_index": 30, "time_elapsed": 105589, "internal_node_id": "0.0-21.0"}}, {"uniqueid": "MTK1078:3TR2532VIQ16WL8DXVPRN19SE7PJ6W", "current_trial": 31, "dateTime": 1513097977508, "trialdata": {"rt": -1, "stimulus": "<p id=\"stim\">FOOTBALL</p>", "key_press": -1, "type": "PRES_VIS", "word": "football", "wordID": 590, "conditions": [18, 1200, "v", 18000], "trial": 0, "serialpos": 10, "trial_type": "single-stim", "trial_index": 31, "time_elapsed": 107643, "internal_node_id": "0.0-22.0"}}, {"uniqueid": "MTK1078:3TR2532VIQ16WL8DXVPRN19SE7PJ6W", "current_trial": 32, "dateTime": 1513097979662, "trialdata": {"rt": -1, "stimulus": "<p id=\"stim\">WAITRESS</p>", "key_press": -1, "type": "PRES_VIS", "word": "waitress", "wordID": 1580, "conditions": [18, 1200, "v", 18000], "trial": 0, "serialpos": 11, "trial_type": "single-stim", "trial_index": 32, "time_elapsed": 109797, "internal_node_id": "0.0-23.0"}}, {"uniqueid": "MTK1078:3TR2532VIQ16WL8DXVPRN19SE7PJ6W", "current_trial": 33, "dateTime": 1513097981786, "trialdata": {"rt": -1, "stimulus": "<p id=\"stim\">BINDER</p>", "key_press": -1, "type": "PRES_VIS", "word": "binder", "wordID": 126, "conditions": [18, 1200, "v", 18000], "trial": 0, "serialpos": 12, "trial_type": "single-stim", "trial_index": 33, "time_elapsed": 111921, "internal_node_id": "0.0-24.0"}}, {"uniqueid": "MTK1078:3TR2532VIQ16WL8DXVPRN19SE7PJ6W", "current_trial": 34, "dateTime": 1513097984470, "trialdata": {"rt": -1, "stimulus": "<p id=\"stim\">COFFEE</p>", "key_press": -1, "type": "PRES_VIS", "word": "coffee", "wordID": 340, "conditions": [18, 1200, "v", 18000], "trial": 0, "serialpos": 13, "trial_type": "single-stim", "trial_index": 34, "time_elapsed": 114605, "internal_node_id": "0.0-25.0"}}, {"uniqueid": "MTK1078:3TR2532VIQ16WL8DXVPRN19SE7PJ6W", "current_trial": 35, "dateTime": 1513097986833, "trialdata": {"rt": -1, "stimulus": "<p id=\"stim\">CANAL</p>", "key_press": -1, "type": "PRES_VIS", "word": "canal", "wordID": 225, "conditions": [18, 1200, "v", 18000], "trial": 0, "serialpos": 14, "trial_type": "single-stim", "trial_index": 35, "time_elapsed": 116968, "internal_node_id": "0.0-26.0"}}, {"uniqueid": "MTK1078:3TR2532VIQ16WL8DXVPRN19SE7PJ6W", "current_trial": 36, "dateTime": 1513097988933, "trialdata": {"rt": -1, "stimulus": "<p id=\"stim\">YACHT</p>", "key_press": -1, "type": "PRES_VIS", "word": "yacht", "wordID": 1628, "conditions": [18, 1200, "v", 18000], "trial": 0, "serialpos": 15, "trial_type": "single-stim", "trial_index": 36, "time_elapsed": 119068, "internal_node_id": "0.0-27.0"}}, {"uniqueid": "MTK1078:3TR2532VIQ16WL8DXVPRN19SE7PJ6W", "current_trial": 37, "dateTime": 1513097991244, "trialdata": {"rt": -1, "stimulus": "<p id=\"stim\">EAGLE</p>", "key_press": -1, "type": "PRES_VIS", "word": "eagle", "wordID": 511, "conditions": [18, 1200, "v", 18000], "trial": 0, "serialpos": 16, "trial_type": "single-stim", "trial_index": 37, "time_elapsed": 121379, "internal_node_id": "0.0-28.0"}}, {"uniqueid": "MTK1078:3TR2532VIQ16WL8DXVPRN19SE7PJ6W", "current_trial": 38, "dateTime": 1513097993295, "trialdata": {"rt": -1, "stimulus": "<p id=\"stim\">LASER</p>", "key_press": -1, "type": "PRES_VIS", "word": "laser", "wordID": 800, "conditions": [18, 1200, "v", 18000], "trial": 0, "serialpos": 17, "trial_type": "single-stim", "trial_index": 38, "time_elapsed": 123430, "internal_node_id": "0.0-29.0"}}, {"uniqueid": "MTK1078:3TR2532VIQ16WL8DXVPRN19SE7PJ6W", "current_trial": 39, "dateTime": 1513097995422, "trialdata": {"rt": -1, "stimulus": "", "key_press": -1, "type": "PRE_RECALL_DELAY", "trial_type": "single-stim", "trial_index": 39, "time_elapsed": 125557, "internal_node_id": "0.0-30.0-0.0"}}, {"uniqueid": "MTK1078:3TR2532VIQ16WL8DXVPRN19SE7PJ6W", "current_trial": 40, "dateTime": 1513097996384, "trialdata": {"rt": -1000, "stimulus": "/static/audio/400Hz.wav", "key_press": -1, "type": "PRE_RECALL_ALERT", "trial_type": "single-audio", "trial_index": 40, "time_elapsed": 126518, "internal_node_id": "0.0-31.0"}}, {"uniqueid": "MTK1078:3TR2532VIQ16WL8DXVPRN19SE7PJ6W", "current_trial": 41, "dateTime": 1513098056390, "trialdata": {"rt": [41937, 44548, 48400, 50576, 52320, 53904, 55856, 56912, 58402, 59408], "recwords": ["ocean", "ring", "free", "bring", "sand", "palm", "time", "road", "bus", "car"], "type": "FREE_RECALL", "conditions": [18, 1200, "v", 18000], "trial": 0, "trial_type": "free-recall", "trial_index": 41, "time_elapsed": 186523, "internal_node_id": "0.0-32.0-0.0"}}, {"uniqueid": "MTK1078:3TR2532VIQ16WL8DXVPRN19SE7PJ6W", "current_trial": 42, "dateTime": 1513098060083, "trialdata": {"rt": 1690, "key_press": 32, "type": "INSTRUCTIONS", "trial_type": "text", "trial_index": 42, "time_elapsed": 190218, "internal_node_id": "0.0-33.0"}}, {"uniqueid": "MTK1078:3TR2532VIQ16WL8DXVPRN19SE7PJ6W", "current_trial": 43, "dateTime": 1513098080085, "trialdata": {"rt": [5998, 10302, 15982], "responses": ["15", "10", "21"], "num1": [2, 6, 6, 8], "num2": [9, 3, 6, 4], "num3": [4, 1, 9, 6], "type": "DISTRACTOR", "conditions": [18, 1200, "a", 18000], "trial": 1, "trial_type": "math-distractor", "trial_index": 43, "time_elapsed": 210220, "internal_node_id": "0.0-34.0"}}, {"uniqueid": "MTK1078:3TR2532VIQ16WL8DXVPRN19SE7PJ6W", "current_trial": 44, "dateTime": 1513098083131, "trialdata": {"rt": -1, "stimulus": "<p id=\"stim\">10</p>", "key_press": -1, "trial_type": "single-stim", "trial_index": 44, "time_elapsed": 213266, "internal_node_id": "0.0-35.0-0.0"}}, {"uniqueid": "MTK1078:3TR2532VIQ16WL8DXVPRN19SE7PJ6W", "current_trial": 45, "dateTime": 1513098084219, "trialdata": {"rt": -1, "stimulus": "<p id=\"stim\">9</p>", "key_press": -1, "trial_type": "single-stim", "trial_index": 45, "time_elapsed": 214354, "internal_node_id": "0.0-35.0-1.0"}}, {"uniqueid": "MTK1078:3TR2532VIQ16WL8DXVPRN19SE7PJ6W", "current_trial": 46, "dateTime": 1513098085414, "trialdata": {"rt": -1, "stimulus": "<p id=\"stim\">8</p>", "key_press": -1, "trial_type": "single-stim", "trial_index": 46, "time_elapsed": 215549, "internal_node_id": "0.0-35.0-2.0"}}, {"uniqueid": "MTK1078:3TR2532VIQ16WL8DXVPRN19SE7PJ6W", "current_trial": 47, "dateTime": 1513098086416, "trialdata": {"rt": -1, "stimulus": "<p id=\"stim\">7</p>", "key_press": -1, "trial_type": "single-stim", "trial_index": 47, "time_elapsed": 216551, "internal_node_id": "0.0-35.0-3.0"}}, {"uniqueid": "MTK1078:3TR2532VIQ16WL8DXVPRN19SE7PJ6W", "current_trial": 48, "dateTime": 1513098087418, "trialdata": {"rt": -1, "stimulus": "<p id=\"stim\">6</p>", "key_press": -1, "trial_type": "single-stim", "trial_index": 48, "time_elapsed": 217553, "internal_node_id": "0.0-35.0-4.0"}}, {"uniqueid": "MTK1078:3TR2532VIQ16WL8DXVPRN19SE7PJ6W", "current_trial": 49, "dateTime": 1513098088419, "trialdata": {"rt": -1, "stimulus": "<p id=\"stim\">5</p>", "key_press": -1, "trial_type": "single-stim", "trial_index": 49, "time_elapsed": 218553, "internal_node_id": "0.0-35.0-5.0"}}, {"uniqueid": "MTK1078:3TR2532VIQ16WL8DXVPRN19SE7PJ6W", "current_trial": 50, "dateTime": 1513098089420, "trialdata": {"rt": -1, "stimulus": "<p id=\"stim\">4</p>", "key_press": -1, "trial_type": "single-stim", "trial_index": 50, "time_elapsed": 219555, "internal_node_id": "0.0-35.0-6.0"}}, {"uniqueid": "MTK1078:3TR2532VIQ16WL8DXVPRN19SE7PJ6W", "current_trial": 51, "dateTime": 1513098090422, "trialdata": {"rt": -1, "stimulus": "<p id=\"stim\">3</p>", "key_press": -1, "trial_type": "single-stim", "trial_index": 51, "time_elapsed": 220557, "internal_node_id": "0.0-35.0-7.0"}}, {"uniqueid": "MTK1078:3TR2532VIQ16WL8DXVPRN19SE7PJ6W", "current_trial": 52, "dateTime": 1513098091424, "trialdata": {"rt": -1, "stimulus": "<p id=\"stim\">2</p>", "key_press": -1, "trial_type": "single-stim", "trial_index": 52, "time_elapsed": 221559, "internal_node_id": "0.0-35.0-8.0"}}, {"uniqueid": "MTK1078:3TR2532VIQ16WL8DXVPRN19SE7PJ6W", "current_trial": 53, "dateTime": 1513098092426, "trialdata": {"rt": -1, "stimulus": "<p id=\"stim\">1</p>", "key_press": -1, "trial_type": "single-stim", "trial_index": 53, "time_elapsed": 222560, "internal_node_id": "0.0-35.0-9.0"}}, {"uniqueid": "MTK1078:3TR2532VIQ16WL8DXVPRN19SE7PJ6W", "current_trial": 54, "dateTime": 1513098094111, "trialdata": {"rt": -1, "stimulus": "<p id=\"stim\">+</p>", "key_press": -1, "type": "FIXATION", "trial_type": "single-stim", "trial_index": 54, "time_elapsed": 224246, "internal_node_id": "0.0-36.0-0.0"}}, {"uniqueid": "MTK1078:3TR2532VIQ16WL8DXVPRN19SE7PJ6W", "current_trial": 55, "dateTime": 1513098096466, "trialdata": {"rt": -1000, "stimulus": "/static/audio/wordpool/INMATE.wav", "key_press": -1, "type": "PRES_AUD", "word": "inmate", "wordID": 737, "conditions": [18, 1200, "a", 18000], "trial": 1, "serialpos": 0, "trial_type": "single-audio", "trial_index": 55, "time_elapsed": 226601, "internal_node_id": "0.0-37.0"}}, {"uniqueid": "MTK1078:3TR2532VIQ16WL8DXVPRN19SE7PJ6W", "current_trial": 56, "dateTime": 1513098098767, "trialdata": {"rt": -1000, "stimulus": "/static/audio/wordpool/CRAB.wav", "key_press": -1, "type": "PRES_AUD", "word": "crab", "wordID": 396, "conditions": [18, 1200, "a", 18000], "trial": 1, "serialpos": 1, "trial_type": "single-audio", "trial_index": 56, "time_elapsed": 228902, "internal_node_id": "0.0-38.0"}}, {"uniqueid": "MTK1078:3TR2532VIQ16WL8DXVPRN19SE7PJ6W", "current_trial": 57, "dateTime": 1513098100982, "trialdata": {"rt": -1000, "stimulus": "/static/audio/wordpool/WASHER.wav", "key_press": -1, "type": "PRES_AUD", "word": "washer", "wordID": 1591, "conditions": [18, 1200, "a", 18000], "trial": 1, "serialpos": 2, "trial_type": "single-audio", "trial_index": 57, "time_elapsed": 231117, "internal_node_id": "0.0-39.0"}}, {"uniqueid": "MTK1078:3TR2532VIQ16WL8DXVPRN19SE7PJ6W", "current_trial": 58, "dateTime": 1513098103246, "trialdata": {"rt": -1000, "stimulus": "/static/audio/wordpool/COSTUME.wav", "key_press": -1, "type": "PRES_AUD", "word": "costume", "wordID": 382, "conditions": [18, 1200, "a", 18000], "trial": 1, "serialpos": 3, "trial_type": "single-audio", "trial_index": 58, "time_elapsed": 233381, "internal_node_id": "0.0-40.0"}}, {"uniqueid": "MTK1078:3TR2532VIQ16WL8DXVPRN19SE7PJ6W", "current_trial": 59, "dateTime": 1513098105476, "trialdata": {"rt": -1000, "stimulus": "/static/audio/wordpool/BLOCKADE.wav", "key_press": -1, "type": "PRES_AUD", "word": "blockade", "wordID": 136, "conditions": [18, 1200, "a", 18000], "trial": 1, "serialpos": 4, "trial_type": "single-audio", "trial_index": 59, "time_elapsed": 235611, "internal_node_id": "0.0-41.0"}}, {"uniqueid": "MTK1078:3TR2532VIQ16WL8DXVPRN19SE7PJ6W", "current_trial": 60, "dateTime": 1513098107557, "trialdata": {"rt": -1000, "stimulus": "/static/audio/wordpool/PIMPLE.wav", "key_press": -1, "type": "PRES_AUD", "word": "pimple", "wordID": 1070, "conditions": [18, 1200, "a", 18000], "trial": 1, "serialpos": 5, "trial_type": "single-audio", "trial_index": 60, "time_elapsed": 237692, "internal_node_id": "0.0-42.0"}}, {"uniqueid": "MTK1078:3TR2532VIQ16WL8DXVPRN19SE7PJ6W", "current_trial": 61, "dateTime": 1513098109612, "trialdata": {"rt": -1000, "stimulus": "/static/audio/wordpool/SUSPECT.wav", "key_press": -1, "type": "PRES_AUD", "word": "suspect", "wordID": 1414, "conditions": [18, 1200, "a", 18000], "trial": 1, "serialpos": 6, "trial_type": "single-audio", "trial_index": 61, "time_elapsed": 239747, "internal_node_id": "0.0-43.0"}}, {"uniqueid": "MTK1078:3TR2532VIQ16WL8DXVPRN19SE7PJ6W", "current_trial": 62, "dateTime": 1513098111692, "trialdata": {"rt": -1000, "stimulus": "/static/audio/wordpool/DRAGON.wav", "key_press": -1, "type": "PRES_AUD", "word": "dragon", "wordID": 491, "conditions": [18, 1200, "a", 18000], "trial": 1, "serialpos": 7, "trial_type": "single-audio", "trial_index": 62, "time_elapsed": 241827, "internal_node_id": "0.0-44.0"}}, {"uniqueid": "MTK1078:3TR2532VIQ16WL8DXVPRN19SE7PJ6W", "current_trial": 63, "dateTime": 1513098114127, "trialdata": {"rt": -1000, "stimulus": "/static/audio/wordpool/CREATURE.wav", "key_press": -1, "type": "PRES_AUD", "word": "creature", "wordID": 402, "conditions": [18, 1200, "a", 18000], "trial": 1, "serialpos": 8, "trial_type": "single-audio", "trial_index": 63, "time_elapsed": 244262, "internal_node_id": "0.0-45.0"}}, {"uniqueid": "MTK1078:3TR2532VIQ16WL8DXVPRN19SE7PJ6W", "current_trial": 64, "dateTime": 1513098116272, "trialdata": {"rt": -1000, "stimulus": "/static/audio/wordpool/POWDER.wav", "key_press": -1, "type": "PRES_AUD", "word": "powder", "wordID": 1116, "conditions": [18, 1200, "a", 18000], "trial": 1, "serialpos": 9, "trial_type": "single-audio", "trial_index": 64, "time_elapsed": 246407, "internal_node_id": "0.0-46.0"}}, {"uniqueid": "MTK1078:3TR2532VIQ16WL8DXVPRN19SE7PJ6W", "current_trial": 65, "dateTime": 1513098118331, "trialdata": {"rt": -1000, "stimulus": "/static/audio/wordpool/FRAGRANCE.wav", "key_press": -1, "type": "PRES_AUD", "word": "fragrance", "wordID": 598, "conditions": [18, 1200, "a", 18000], "trial": 1, "serialpos": 10, "trial_type": "single-audio", "trial_index": 65, "time_elapsed": 248466, "internal_node_id": "0.0-47.0"}}, {"uniqueid": "MTK1078:3TR2532VIQ16WL8DXVPRN19SE7PJ6W", "current_trial": 66, "dateTime": 1513098120662, "trialdata": {"rt": -1000, "stimulus": "/static/audio/wordpool/GYMNAST.wav", "key_press": -1, "type": "PRES_AUD", "word": "gymnast", "wordID": 674, "conditions": [18, 1200, "a", 18000], "trial": 1, "serialpos": 11, "trial_type": "single-audio", "trial_index": 66, "time_elapsed": 250797, "internal_node_id": "0.0-48.0"}}, {"uniqueid": "MTK1078:3TR2532VIQ16WL8DXVPRN19SE7PJ6W", "current_trial": 67, "dateTime": 1513098122709, "trialdata": {"rt": -1000, "stimulus": "/static/audio/wordpool/CUPBOARD.wav", "key_press": -1, "type": "PRES_AUD", "word": "cupboard", "wordID": 424, "conditions": [18, 1200, "a", 18000], "trial": 1, "serialpos": 12, "trial_type": "single-audio", "trial_index": 67, "time_elapsed": 252844, "internal_node_id": "0.0-49.0"}}, {"uniqueid": "MTK1078:3TR2532VIQ16WL8DXVPRN19SE7PJ6W", "current_trial": 68, "dateTime": 1513098124865, "trialdata": {"rt": -1000, "stimulus": "/static/audio/wordpool/GUARD.wav", "key_press": -1, "type": "PRES_AUD", "word": "guard", "wordID": 666, "conditions": [18, 1200, "a", 18000], "trial": 1, "serialpos": 13, "trial_type": "single-audio", "trial_index": 68, "time_elapsed": 254999, "internal_node_id": "0.0-50.0"}}, {"uniqueid": "MTK1078:3TR2532VIQ16WL8DXVPRN19SE7PJ6W", "current_trial": 69, "dateTime": 1513098126885, "trialdata": {"rt": -1000, "stimulus": "/static/audio/wordpool/CUSTARD.wav", "key_press": -1, "type": "PRES_AUD", "word": "custard", "wordID": 428, "conditions": [18, 1200, "a", 18000], "trial": 1, "serialpos": 14, "trial_type": "single-audio", "trial_index": 69, "time_elapsed": 257020, "internal_node_id": "0.0-51.0"}}, {"uniqueid": "MTK1078:3TR2532VIQ16WL8DXVPRN19SE7PJ6W", "current_trial": 70, "dateTime": 1513098129256, "trialdata": {"rt": -1000, "stimulus": "/static/audio/wordpool/CHILD.wav", "key_press": -1, "type": "PRES_AUD", "word": "child", "wordID": 298, "conditions": [18, 1200, "a", 18000], "trial": 1, "serialpos": 15, "trial_type": "single-audio", "trial_index": 70, "time_elapsed": 259391, "internal_node_id": "0.0-52.0"}}, {"uniqueid": "MTK1078:3TR2532VIQ16WL8DXVPRN19SE7PJ6W", "current_trial": 71, "dateTime": 1513098131533, "trialdata": {"rt": -1000, "stimulus": "/static/audio/wordpool/DRESS.wav", "key_press": -1, "type": "PRES_AUD", "word": "dress", "wordID": 494, "conditions": [18, 1200, "a", 18000], "trial": 1, "serialpos": 16, "trial_type": "single-audio", "trial_index": 71, "time_elapsed": 261668, "internal_node_id": "0.0-53.0"}}, {"uniqueid": "MTK1078:3TR2532VIQ16WL8DXVPRN19SE7PJ6W", "current_trial": 72, "dateTime": 1513098134025, "trialdata": {"rt": -1000, "stimulus": "/static/audio/wordpool/LUGGAGE.wav", "key_press": -1, "type": "PRES_AUD", "word": "luggage", "wordID": 846, "conditions": [18, 1200, "a", 18000], "trial": 1, "serialpos": 17, "trial_type": "single-audio", "trial_index": 72, "time_elapsed": 264160, "internal_node_id": "0.0-54.0"}}, {"uniqueid": "MTK1078:3TR2532VIQ16WL8DXVPRN19SE7PJ6W", "current_trial": 73, "dateTime": 1513098135976, "trialdata": {"rt": -1, "stimulus": "", "key_press": -1, "type": "PRE_RECALL_DELAY", "trial_type": "single-stim", "trial_index": 73, "time_elapsed": 266111, "internal_node_id": "0.0-55.0-0.0"}}, {"uniqueid": "MTK1078:3TR2532VIQ16WL8DXVPRN19SE7PJ6W", "current_trial": 74, "dateTime": 1513098136477, "trialdata": {"rt": -1000, "stimulus": "/static/audio/400Hz.wav", "key_press": -1, "type": "PRE_RECALL_ALERT", "trial_type": "single-audio", "trial_index": 74, "time_elapsed": 266612, "internal_node_id": "0.0-56.0"}}, {"uniqueid": "MTK1078:3TR2532VIQ16WL8DXVPRN19SE7PJ6W", "current_trial": 75, "dateTime": 1513098196480, "trialdata": {"rt": [9652, 10387, 11731, 12723, 14163, 19939, 20899, 22179, 22915, 24148], "recwords": ["river", "time", "go", "bird", "fly", "then", "sing", "from", "there", "it"], "type": "FREE_RECALL", "conditions": [18, 1200, "a", 18000], "trial": 1, "trial_type": "free-recall", "trial_index": 75, "time_elapsed": 326613, "internal_node_id": "0.0-57.0-0.0"}}, {"uniqueid": "MTK1078:3TR2532VIQ16WL8DXVPRN19SE7PJ6W", "current_trial": 76, "dateTime": 1513098247793, "trialdata": {"rt": 49309, "key_press": 32, "type": "INSTRUCTIONS", "trial_type": "text", "trial_index": 76, "time_elapsed": 377926, "internal_node_id": "0.0-58.0"}}, {"uniqueid": "MTK1078:3TR2532VIQ16WL8DXVPRN19SE7PJ6W", "current_trial": 77, "dateTime": 1513098272798, "trialdata": {"rt": [6648, 10883, 14254, 19507, 22243], "responses": ["11", "14", "14", "12", "17"], "num1": [2, 2, 5, 4, 7, 9], "num2": [2, 5, 4, 6, 2, 4], "num3": [7, 7, 5, 2, 8, 7], "type": "DISTRACTOR", "conditions": [24, 1600, "v", 24000], "trial": 2, "trial_type": "math-distractor", "trial_index": 77, "time_elapsed": 402933, "internal_node_id": "0.0-59.0"}}, {"uniqueid": "MTK1078:3TR2532VIQ16WL8DXVPRN19SE7PJ6W", "current_trial": 78, "dateTime": 1513098276533, "trialdata": {"rt": -1, "stimulus": "<p id=\"stim\">10</p>", "key_press": -1, "trial_type": "single-stim", "trial_index": 78, "time_elapsed": 406667, "internal_node_id": "0.0-60.0-0.0"}}, {"uniqueid": "MTK1078:3TR2532VIQ16WL8DXVPRN19SE7PJ6W", "current_trial": 79, "dateTime": 1513098277534, "trialdata": {"rt": -1, "stimulus": "<p id=\"stim\">9</p>", "key_press": -1, "trial_type": "single-stim", "trial_index": 79, "time_elapsed": 407669, "internal_node_id": "0.0-60.0-1.0"}}, {"uniqueid": "MTK1078:3TR2532VIQ16WL8DXVPRN19SE7PJ6W", "current_trial": 80, "dateTime": 1513098278535, "trialdata": {"rt": -1, "stimulus": "<p id=\"stim\">8</p>", "key_press": -1, "trial_type": "single-stim", "trial_index": 80, "time_elapsed": 408670, "internal_node_id": "0.0-60.0-2.0"}}, {"uniqueid": "MTK1078:3TR2532VIQ16WL8DXVPRN19SE7PJ6W", "current_trial": 81, "dateTime": 1513098279537, "trialdata": {"rt": -1, "stimulus": "<p id=\"stim\">7</p>", "key_press": -1, "trial_type": "single-stim", "trial_index": 81, "time_elapsed": 409671, "internal_node_id": "0.0-60.0-3.0"}}, {"uniqueid": "MTK1078:3TR2532VIQ16WL8DXVPRN19SE7PJ6W", "current_trial": 82, "dateTime": 1513098280537, "trialdata": {"rt": -1, "stimulus": "<p id=\"stim\">6</p>", "key_press": -1, "trial_type": "single-stim", "trial_index": 82, "time_elapsed": 410672, "internal_node_id": "0.0-60.0-4.0"}}, {"uniqueid": "MTK1078:3TR2532VIQ16WL8DXVPRN19SE7PJ6W", "current_trial": 83, "dateTime": 1513098281538, "trialdata": {"rt": -1, "stimulus": "<p id=\"stim\">5</p>", "key_press": -1, "trial_type": "single-stim", "trial_index": 83, "time_elapsed": 411673, "internal_node_id": "0.0-60.0-5.0"}}, {"uniqueid": "MTK1078:3TR2532VIQ16WL8DXVPRN19SE7PJ6W", "current_trial": 84, "dateTime": 1513098282539, "trialdata": {"rt": -1, "stimulus": "<p id=\"stim\">4</p>", "key_press": -1, "trial_type": "single-stim", "trial_index": 84, "time_elapsed": 412674, "internal_node_id": "0.0-60.0-6.0"}}, {"uniqueid": "MTK1078:3TR2532VIQ16WL8DXVPRN19SE7PJ6W", "current_trial": 85, "dateTime": 1513098284031, "trialdata": {"rt": -1, "stimulus": "<p id=\"stim\">3</p>", "key_press": -1, "trial_type": "single-stim", "trial_index": 85, "time_elapsed": 414166, "internal_node_id": "0.0-60.0-7.0"}}, {"uniqueid": "MTK1078:3TR2532VIQ16WL8DXVPRN19SE7PJ6W", "current_trial": 86, "dateTime": 1513098285448, "trialdata": {"rt": -1, "stimulus": "<p id=\"stim\">2</p>", "key_press": -1, "trial_type": "single-stim", "trial_index": 86, "time_elapsed": 415583, "internal_node_id": "0.0-60.0-8.0"}}, {"uniqueid": "MTK1078:3TR2532VIQ16WL8DXVPRN19SE7PJ6W", "current_trial": 87, "dateTime": 1513098286449, "trialdata": {"rt": -1, "stimulus": "<p id=\"stim\">1</p>", "key_press": -1, "trial_type": "single-stim", "trial_index": 87, "time_elapsed": 416584, "internal_node_id": "0.0-60.0-9.0"}}, {"uniqueid": "MTK1078:3TR2532VIQ16WL8DXVPRN19SE7PJ6W", "current_trial": 88, "dateTime": 1513098287950, "trialdata": {"rt": -1, "stimulus": "<p id=\"stim\">+</p>", "key_press": -1, "type": "FIXATION", "trial_type": "single-stim", "trial_index": 88, "time_elapsed": 418085, "internal_node_id": "0.0-61.0-0.0"}}, {"uniqueid": "MTK1078:3TR2532VIQ16WL8DXVPRN19SE7PJ6W", "current_trial": 89, "dateTime": 1513098289552, "trialdata": {"rt": -1, "stimulus": "<p id=\"stim\">KIDNEY</p>", "key_press": -1, "type": "PRES_VIS", "word": "kidney", "wordID": 775, "conditions": [24, 1600, "v", 24000], "trial": 2, "serialpos": 0, "trial_type": "single-stim", "trial_index": 89, "time_elapsed": 419686, "internal_node_id": "0.0-62.0"}}, {"uniqueid": "MTK1078:3TR2532VIQ16WL8DXVPRN19SE7PJ6W", "current_trial": 90, "dateTime": 1513098292045, "trialdata": {"rt": -1, "stimulus": "<p id=\"stim\">LAVA</p>", "key_press": -1, "type": "PRES_VIS", "word": "lava", "wordID": 803, "conditions": [24, 1600, "v", 24000], "trial": 2, "serialpos": 1, "trial_type": "single-stim", "trial_index": 90, "time_elapsed": 422180, "internal_node_id": "0.0-63.0"}}, {"uniqueid": "MTK1078:3TR2532VIQ16WL8DXVPRN19SE7PJ6W", "current_trial": 91, "dateTime": 1513098294475, "trialdata": {"rt": -1, "stimulus": "<p id=\"stim\">CRATER</p>", "key_press": -1, "type": "PRES_VIS", "word": "crater", "wordID": 399, "conditions": [24, 1600, "v", 24000], "trial": 2, "serialpos": 2, "trial_type": "single-stim", "trial_index": 91, "time_elapsed": 424610, "internal_node_id": "0.0-64.0"}}, {"uniqueid": "MTK1078:3TR2532VIQ16WL8DXVPRN19SE7PJ6W", "current_trial": 92, "dateTime": 1513098297317, "trialdata": {"rt": -1, "stimulus": "<p id=\"stim\">LAMP</p>", "key_press": -1, "type": "PRES_VIS", "word": "lamp", "wordID": 797, "conditions": [24, 1600, "v", 24000], "trial": 2, "serialpos": 3, "trial_type": "single-stim", "trial_index": 92, "time_elapsed": 427452, "internal_node_id": "0.0-65.0"}}, {"uniqueid": "MTK1078:3TR2532VIQ16WL8DXVPRN19SE7PJ6W", "current_trial": 93, "dateTime": 1513098300017, "trialdata": {"rt": -1, "stimulus": "<p id=\"stim\">BABY</p>", "key_press": -1, "type": "PRES_VIS", "word": "baby", "wordID": 63, "conditions": [24, 1600, "v", 24000], "trial": 2, "serialpos": 4, "trial_type": "single-stim", "trial_index": 93, "time_elapsed": 430152, "internal_node_id": "0.0-66.0"}}, {"uniqueid": "MTK1078:3TR2532VIQ16WL8DXVPRN19SE7PJ6W", "current_trial": 94, "dateTime": 1513098302442, "trialdata": {"rt": -1, "stimulus": "<p id=\"stim\">PERFUME</p>", "key_press": -1, "type": "PRES_VIS", "word": "perfume", "wordID": 1048, "conditions": [24, 1600, "v", 24000], "trial": 2, "serialpos": 5, "trial_type": "single-stim", "trial_index": 94, "time_elapsed": 432576, "internal_node_id": "0.0-67.0"}}, {"uniqueid": "MTK1078:3TR2532VIQ16WL8DXVPRN19SE7PJ6W", "current_trial": 95, "dateTime": 1513098305436, "trialdata": {"rt": -1, "stimulus": "<p id=\"stim\">WINDOW</p>", "key_press": -1, "type": "PRES_VIS", "word": "window", "wordID": 1610, "conditions": [24, 1600, "v", 24000], "trial": 2, "serialpos": 6, "trial_type": "single-stim", "trial_index": 95, "time_elapsed": 435570, "internal_node_id": "0.0-68.0"}}, {"uniqueid": "MTK1078:3TR2532VIQ16WL8DXVPRN19SE7PJ6W", "current_trial": 96, "dateTime": 1513098307850, "trialdata": {"rt": -1, "stimulus": "<p id=\"stim\">VICTIM</p>", "key_press": -1, "type": "PRES_VIS", "word": "victim", "wordID": 1561, "conditions": [24, 1600, "v", 24000], "trial": 2, "serialpos": 7, "trial_type": "single-stim", "trial_index": 96, "time_elapsed": 437985, "internal_node_id": "0.0-69.0"}}, {"uniqueid": "MTK1078:3TR2532VIQ16WL8DXVPRN19SE7PJ6W", "current_trial": 97, "dateTime": 1513098310560, "trialdata": {"rt": -1, "stimulus": "<p id=\"stim\">STUDENT</p>", "key_press": -1, "type": "PRES_VIS", "word": "student", "wordID": 1394, "conditions": [24, 1600, "v", 24000], "trial": 2, "serialpos": 8, "trial_type": "single-stim", "trial_index": 97, "time_elapsed": 440695, "internal_node_id": "0.0-70.0"}}, {"uniqueid": "MTK1078:3TR2532VIQ16WL8DXVPRN19SE7PJ6W", "current_trial": 98, "dateTime": 1513098313307, "trialdata": {"rt": -1, "stimulus": "<p id=\"stim\">BRANCH</p>", "key_press": -1, "type": "PRES_VIS", "word": "branch", "wordID": 167, "conditions": [24, 1600, "v", 24000], "trial": 2, "serialpos": 9, "trial_type": "single-stim", "trial_index": 98, "time_elapsed": 443442, "internal_node_id": "0.0-71.0"}}, {"uniqueid": "MTK1078:3TR2532VIQ16WL8DXVPRN19SE7PJ6W", "current_trial": 99, "dateTime": 1513098316208, "trialdata": {"rt": -1, "stimulus": "<p id=\"stim\">LION</p>", "key_press": -1, "type": "PRES_VIS", "word": "lion", "wordID": 826, "conditions": [24, 1600, "v", 24000], "trial": 2, "serialpos": 10, "trial_type": "single-stim", "trial_index": 99, "time_elapsed": 446342, "internal_node_id": "0.0-72.0"}}, {"uniqueid": "MTK1078:3TR2532VIQ16WL8DXVPRN19SE7PJ6W", "current_trial": 100, "dateTime": 1513098318952, "trialdata": {"rt": -1, "stimulus": "<p id=\"stim\">LIVER</p>", "key_press": -1, "type": "PRES_VIS", "word": "liver", "wordID": 832, "conditions": [24, 1600, "v", 24000], "trial": 2, "serialpos": 11, "trial_type": "single-stim", "trial_index": 100, "time_elapsed": 449087, "internal_node_id": "0.0-73.0"}}, {"uniqueid": "MTK1078:3TR2532VIQ16WL8DXVPRN19SE7PJ6W", "current_trial": 101, "dateTime": 1513098321653, "trialdata": {"rt": -1, "stimulus": "<p id=\"stim\">STAMP</p>", "key_press": -1, "type": "PRES_VIS", "word": "stamp", "wordID": 1369, "conditions": [24, 1600, "v", 24000], "trial": 2, "serialpos": 12, "trial_type": "single-stim", "trial_index": 101, "time_elapsed": 451788, "internal_node_id": "0.0-74.0"}}, {"uniqueid": "MTK1078:3TR2532VIQ16WL8DXVPRN19SE7PJ6W", "current_trial": 102, "dateTime": 1513098324200, "trialdata": {"rt": -1, "stimulus": "<p id=\"stim\">ROBIN</p>", "key_press": -1, "type": "PRES_VIS", "word": "robin", "wordID": 1198, "conditions": [24, 1600, "v", 24000], "trial": 2, "serialpos": 13, "trial_type": "single-stim", "trial_index": 102, "time_elapsed": 454335, "internal_node_id": "0.0-75.0"}}, {"uniqueid": "MTK1078:3TR2532VIQ16WL8DXVPRN19SE7PJ6W", "current_trial": 103, "dateTime": 1513098326994, "trialdata": {"rt": -1, "stimulus": "<p id=\"stim\">SLUG</p>", "key_press": -1, "type": "PRES_VIS", "word": "slug", "wordID": 1328, "conditions": [24, 1600, "v", 24000], "trial": 2, "serialpos": 14, "trial_type": "single-stim", "trial_index": 103, "time_elapsed": 457128, "internal_node_id": "0.0-76.0"}}, {"uniqueid": "MTK1078:3TR2532VIQ16WL8DXVPRN19SE7PJ6W", "current_trial": 104, "dateTime": 1513098329744, "trialdata": {"rt": -1, "stimulus": "<p id=\"stim\">SPIDER</p>", "key_press": -1, "type": "PRES_VIS", "word": "spider", "wordID": 1350, "conditions": [24, 1600, "v", 24000], "trial": 2, "serialpos": 15, "trial_type": "single-stim", "trial_index": 104, "time_elapsed": 459879, "internal_node_id": "0.0-77.0"}}, {"uniqueid": "MTK1078:3TR2532VIQ16WL8DXVPRN19SE7PJ6W", "current_trial": 105, "dateTime": 1513098332336, "trialdata": {"rt": -1, "stimulus": "<p id=\"stim\">MARINE</p>", "key_press": -1, "type": "PRES_VIS", "word": "marine", "wordID": 868, "conditions": [24, 1600, "v", 24000], "trial": 2, "serialpos": 16, "trial_type": "single-stim", "trial_index": 105, "time_elapsed": 462470, "internal_node_id": "0.0-78.0"}}, {"uniqueid": "MTK1078:3TR2532VIQ16WL8DXVPRN19SE7PJ6W", "current_trial": 106, "dateTime": 1513098335334, "trialdata": {"rt": -1, "stimulus": "<p id=\"stim\">HOOK</p>", "key_press": -1, "type": "PRES_VIS", "word": "hook", "wordID": 714, "conditions": [24, 1600, "v", 24000], "trial": 2, "serialpos": 17, "trial_type": "single-stim", "trial_index": 106, "time_elapsed": 465469, "internal_node_id": "0.0-79.0"}}, {"uniqueid": "MTK1078:3TR2532VIQ16WL8DXVPRN19SE7PJ6W", "current_trial": 107, "dateTime": 1513098337968, "trialdata": {"rt": -1, "stimulus": "<p id=\"stim\">TRIBE</p>", "key_press": -1, "type": "PRES_VIS", "word": "tribe", "wordID": 1504, "conditions": [24, 1600, "v", 24000], "trial": 2, "serialpos": 18, "trial_type": "single-stim", "trial_index": 107, "time_elapsed": 468103, "internal_node_id": "0.0-80.0"}}, {"uniqueid": "MTK1078:3TR2532VIQ16WL8DXVPRN19SE7PJ6W", "current_trial": 108, "dateTime": 1513098340646, "trialdata": {"rt": -1, "stimulus": "<p id=\"stim\">RADISH</p>", "key_press": -1, "type": "PRES_VIS", "word": "radish", "wordID": 1157, "conditions": [24, 1600, "v", 24000], "trial": 2, "serialpos": 19, "trial_type": "single-stim", "trial_index": 108, "time_elapsed": 470780, "internal_node_id": "0.0-81.0"}}, {"uniqueid": "MTK1078:3TR2532VIQ16WL8DXVPRN19SE7PJ6W", "current_trial": 109, "dateTime": 1513098343988, "trialdata": {"rt": -1, "stimulus": "<p id=\"stim\">RABBIT</p>", "key_press": -1, "type": "PRES_VIS", "word": "rabbit", "wordID": 1151, "conditions": [24, 1600, "v", 24000], "trial": 2, "serialpos": 20, "trial_type": "single-stim", "trial_index": 109, "time_elapsed": 474123, "internal_node_id": "0.0-82.0"}}, {"uniqueid": "MTK1078:3TR2532VIQ16WL8DXVPRN19SE7PJ6W", "current_trial": 110, "dateTime": 1513098346950, "trialdata": {"rt": -1, "stimulus": "<p id=\"stim\">JUNGLE</p>", "key_press": -1, "type": "PRES_VIS", "word": "jungle", "wordID": 763, "conditions": [24, 1600, "v", 24000], "trial": 2, "serialpos": 21, "trial_type": "single-stim", "trial_index": 110, "time_elapsed": 477085, "internal_node_id": "0.0-83.0"}}, {"uniqueid": "MTK1078:3TR2532VIQ16WL8DXVPRN19SE7PJ6W", "current_trial": 111, "dateTime": 1513098349635, "trialdata": {"rt": -1, "stimulus": "<p id=\"stim\">BLOUSE</p>", "key_press": -1, "type": "PRES_VIS", "word": "blouse", "wordID": 138, "conditions": [24, 1600, "v", 24000], "trial": 2, "serialpos": 22, "trial_type": "single-stim", "trial_index": 111, "time_elapsed": 479769, "internal_node_id": "0.0-84.0"}}, {"uniqueid": "MTK1078:3TR2532VIQ16WL8DXVPRN19SE7PJ6W", "current_trial": 112, "dateTime": 1513098352138, "trialdata": {"rt": -1, "stimulus": "<p id=\"stim\">NIGHTGOWN</p>", "key_press": -1, "type": "PRES_VIS", "word": "nightgown", "wordID": 952, "conditions": [24, 1600, "v", 24000], "trial": 2, "serialpos": 23, "trial_type": "single-stim", "trial_index": 112, "time_elapsed": 482273, "internal_node_id": "0.0-85.0"}}, {"uniqueid": "MTK1078:3TR2532VIQ16WL8DXVPRN19SE7PJ6W", "current_trial": 113, "dateTime": 1513098355326, "trialdata": {"rt": -1, "stimulus": "", "key_press": -1, "type": "PRE_RECALL_DELAY", "trial_type": "single-stim", "trial_index": 113, "time_elapsed": 485461, "internal_node_id": "0.0-86.0-0.0"}}, {"uniqueid": "MTK1078:3TR2532VIQ16WL8DXVPRN19SE7PJ6W", "current_trial": 114, "dateTime": 1513098355828, "trialdata": {"rt": -1000, "stimulus": "/static/audio/400Hz.wav", "key_press": -1, "type": "PRE_RECALL_ALERT", "trial_type": "single-audio", "trial_index": 114, "time_elapsed": 485963, "internal_node_id": "0.0-87.0"}}, {"uniqueid": "MTK1078:3TR2532VIQ16WL8DXVPRN19SE7PJ6W", "current_trial": 115, "dateTime": 1513098415831, "trialdata": {"rt": [21049, 23656], "recwords": ["carribean", "sing"], "type": "FREE_RECALL", "conditions": [24, 1600, "v", 24000], "trial": 2, "trial_type": "free-recall", "trial_index": 115, "time_elapsed": 545965, "internal_node_id": "0.0-88.0-0.0"}}, {"uniqueid": "MTK1078:3TR2532VIQ16WL8DXVPRN19SE7PJ6W", "current_trial": 116, "dateTime": 1513098459150, "trialdata": {"rt": 41316, "key_press": 32, "type": "INSTRUCTIONS", "trial_type": "text", "trial_index": 116, "time_elapsed": 589285, "internal_node_id": "0.0-89.0"}}, {"uniqueid": "MTK1078:3TR2532VIQ16WL8DXVPRN19SE7PJ6W", "current_trial": 117, "dateTime": 1513098485491, "trialdata": {"rt": [], "responses": [], "num1": [8], "num2": [8], "num3": [7], "type": "DISTRACTOR", "conditions": [12, 800, "v", 24000], "trial": 3, "trial_type": "math-distractor", "trial_index": 117, "time_elapsed": 615626, "internal_node_id": "0.0-90.0"}}, {"uniqueid": "MTK1078:3TR2532VIQ16WL8DXVPRN19SE7PJ6W", "current_trial": 118, "dateTime": 1513098488494, "trialdata": {"rt": -1, "stimulus": "<p id=\"stim\">10</p>", "key_press": -1, "trial_type": "single-stim", "trial_index": 118, "time_elapsed": 618629, "internal_node_id": "0.0-91.0-0.0"}}, {"uniqueid": "MTK1078:3TR2532VIQ16WL8DXVPRN19SE7PJ6W", "current_trial": 119, "dateTime": 1513098489496, "trialdata": {"rt": -1, "stimulus": "<p id=\"stim\">9</p>", "key_press": -1, "trial_type": "single-stim", "trial_index": 119, "time_elapsed": 619631, "internal_node_id": "0.0-91.0-1.0"}}, {"uniqueid": "MTK1078:3TR2532VIQ16WL8DXVPRN19SE7PJ6W", "current_trial": 120, "dateTime": 1513098490498, "trialdata": {"rt": -1, "stimulus": "<p id=\"stim\">8</p>", "key_press": -1, "trial_type": "single-stim", "trial_index": 120, "time_elapsed": 620633, "internal_node_id": "0.0-91.0-2.0"}}, {"uniqueid": "MTK1078:3TR2532VIQ16WL8DXVPRN19SE7PJ6W", "current_trial": 121, "dateTime": 1513098491499, "trialdata": {"rt": -1, "stimulus": "<p id=\"stim\">7</p>", "key_press": -1, "trial_type": "single-stim", "trial_index": 121, "time_elapsed": 621634, "internal_node_id": "0.0-91.0-3.0"}}, {"uniqueid": "MTK1078:3TR2532VIQ16WL8DXVPRN19SE7PJ6W", "current_trial": 122, "dateTime": 1513098492500, "trialdata": {"rt": -1, "stimulus": "<p id=\"stim\">6</p>", "key_press": -1, "trial_type": "single-stim", "trial_index": 122, "time_elapsed": 622635, "internal_node_id": "0.0-91.0-4.0"}}, {"uniqueid": "MTK1078:3TR2532VIQ16WL8DXVPRN19SE7PJ6W", "current_trial": 123, "dateTime": 1513098494050, "trialdata": {"rt": -1, "stimulus": "<p id=\"stim\">5</p>", "key_press": -1, "trial_type": "single-stim", "trial_index": 123, "time_elapsed": 624184, "internal_node_id": "0.0-91.0-5.0"}}, {"uniqueid": "MTK1078:3TR2532VIQ16WL8DXVPRN19SE7PJ6W", "current_trial": 124, "dateTime": 1513098495421, "trialdata": {"rt": -1, "stimulus": "<p id=\"stim\">4</p>", "key_press": -1, "trial_type": "single-stim", "trial_index": 124, "time_elapsed": 625556, "internal_node_id": "0.0-91.0-6.0"}}, {"uniqueid": "MTK1078:3TR2532VIQ16WL8DXVPRN19SE7PJ6W", "current_trial": 125, "dateTime": 1513098496423, "trialdata": {"rt": -1, "stimulus": "<p id=\"stim\">3</p>", "key_press": -1, "trial_type": "single-stim", "trial_index": 125, "time_elapsed": 626558, "internal_node_id": "0.0-91.0-7.0"}}, {"uniqueid": "MTK1078:3TR2532VIQ16WL8DXVPRN19SE7PJ6W", "current_trial": 126, "dateTime": 1513098497424, "trialdata": {"rt": -1, "stimulus": "<p id=\"stim\">2</p>", "key_press": -1, "trial_type": "single-stim", "trial_index": 126, "time_elapsed": 627559, "internal_node_id": "0.0-91.0-8.0"}}, {"uniqueid": "MTK1078:3TR2532VIQ16WL8DXVPRN19SE7PJ6W", "current_trial": 127, "dateTime": 1513098498425, "trialdata": {"rt": -1, "stimulus": "<p id=\"stim\">1</p>", "key_press": -1, "trial_type": "single-stim", "trial_index": 127, "time_elapsed": 628560, "internal_node_id": "0.0-91.0-9.0"}}, {"uniqueid": "MTK1078:3TR2532VIQ16WL8DXVPRN19SE7PJ6W", "current_trial": 128, "dateTime": 1513098499926, "trialdata": {"rt": -1, "stimulus": "<p id=\"stim\">+</p>", "key_press": -1, "type": "FIXATION", "trial_type": "single-stim", "trial_index": 128, "time_elapsed": 630061, "internal_node_id": "0.0-92.0-0.0"}}, {"uniqueid": "MTK1078:3TR2532VIQ16WL8DXVPRN19SE7PJ6W", "current_trial": 129, "dateTime": 1513098500728, "trialdata": {"rt": -1, "stimulus": "<p id=\"stim\">WIDOW</p>", "key_press": -1, "type": "PRES_VIS", "word": "widow", "wordID": 1607, "conditions": [12, 800, "v", 24000], "trial": 3, "serialpos": 0, "trial_type": "single-stim", "trial_index": 129, "time_elapsed": 630863, "internal_node_id": "0.0-93.0"}}, {"uniqueid": "MTK1078:3TR2532VIQ16WL8DXVPRN19SE7PJ6W", "current_trial": 130, "dateTime": 1513098502626, "trialdata": {"rt": -1, "stimulus": "<p id=\"stim\">REPORT</p>", "key_press": -1, "type": "PRES_VIS", "word": "report", "wordID": 1183, "conditions": [12, 800, "v", 24000], "trial": 3, "serialpos": 1, "trial_type": "single-stim", "trial_index": 130, "time_elapsed": 632761, "internal_node_id": "0.0-94.0"}}, {"uniqueid": "MTK1078:3TR2532VIQ16WL8DXVPRN19SE7PJ6W", "current_trial": 131, "dateTime": 1513098504964, "trialdata": {"rt": -1, "stimulus": "<p id=\"stim\">BELLY</p>", "key_press": -1, "type": "PRES_VIS", "word": "belly", "wordID": 118, "conditions": [12, 800, "v", 24000], "trial": 3, "serialpos": 2, "trial_type": "single-stim", "trial_index": 131, "time_elapsed": 635098, "internal_node_id": "0.0-95.0"}}, {"uniqueid": "MTK1078:3TR2532VIQ16WL8DXVPRN19SE7PJ6W", "current_trial": 132, "dateTime": 1513098506895, "trialdata": {"rt": -1, "stimulus": "<p id=\"stim\">DUSTPAN</p>", "key_press": -1, "type": "PRES_VIS", "word": "dustpan", "wordID": 508, "conditions": [12, 800, "v", 24000], "trial": 3, "serialpos": 3, "trial_type": "single-stim", "trial_index": 132, "time_elapsed": 637030, "internal_node_id": "0.0-96.0"}}, {"uniqueid": "MTK1078:3TR2532VIQ16WL8DXVPRN19SE7PJ6W", "current_trial": 133, "dateTime": 1513098508537, "trialdata": {"rt": -1, "stimulus": "<p id=\"stim\">CRIB</p>", "key_press": -1, "type": "PRES_VIS", "word": "crib", "wordID": 406, "conditions": [12, 800, "v", 24000], "trial": 3, "serialpos": 4, "trial_type": "single-stim", "trial_index": 133, "time_elapsed": 638672, "internal_node_id": "0.0-97.0"}}, {"uniqueid": "MTK1078:3TR2532VIQ16WL8DXVPRN19SE7PJ6W", "current_trial": 134, "dateTime": 1513098510481, "trialdata": {"rt": -1, "stimulus": "<p id=\"stim\">PATROL</p>", "key_press": -1, "type": "PRES_VIS", "word": "patrol", "wordID": 1026, "conditions": [12, 800, "v", 24000], "trial": 3, "serialpos": 5, "trial_type": "single-stim", "trial_index": 134, "time_elapsed": 640615, "internal_node_id": "0.0-98.0"}}, {"uniqueid": "MTK1078:3TR2532VIQ16WL8DXVPRN19SE7PJ6W", "current_trial": 135, "dateTime": 1513098512263, "trialdata": {"rt": -1, "stimulus": "<p id=\"stim\">POLICE</p>", "key_press": -1, "type": "PRES_VIS", "word": "police", "wordID": 1097, "conditions": [12, 800, "v", 24000], "trial": 3, "serialpos": 6, "trial_type": "single-stim", "trial_index": 135, "time_elapsed": 642398, "internal_node_id": "0.0-99.0"}}, {"uniqueid": "MTK1078:3TR2532VIQ16WL8DXVPRN19SE7PJ6W", "current_trial": 136, "dateTime": 1513098515358, "trialdata": {"rt": -1, "stimulus": "<p id=\"stim\">BLACKBOARD</p>", "key_press": -1, "type": "PRES_VIS", "word": "blackboard", "wordID": 132, "conditions": [12, 800, "v", 24000], "trial": 3, "serialpos": 7, "trial_type": "single-stim", "trial_index": 136, "time_elapsed": 645493, "internal_node_id": "0.0-100.0"}}, {"uniqueid": "MTK1078:3TR2532VIQ16WL8DXVPRN19SE7PJ6W", "current_trial": 137, "dateTime": 1513098517315, "trialdata": {"rt": -1, "stimulus": "<p id=\"stim\">AGENT</p>", "key_press": -1, "type": "PRES_VIS", "word": "agent", "wordID": 9, "conditions": [12, 800, "v", 24000], "trial": 3, "serialpos": 8, "trial_type": "single-stim", "trial_index": 137, "time_elapsed": 647450, "internal_node_id": "0.0-101.0"}}, {"uniqueid": "MTK1078:3TR2532VIQ16WL8DXVPRN19SE7PJ6W", "current_trial": 138, "dateTime": 1513098519207, "trialdata": {"rt": -1, "stimulus": "<p id=\"stim\">SURVEY</p>", "key_press": -1, "type": "PRES_VIS", "word": "survey", "wordID": 1413, "conditions": [12, 800, "v", 24000], "trial": 3, "serialpos": 9, "trial_type": "single-stim", "trial_index": 138, "time_elapsed": 649342, "internal_node_id": "0.0-102.0"}}, {"uniqueid": "MTK1078:3TR2532VIQ16WL8DXVPRN19SE7PJ6W", "current_trial": 139, "dateTime": 1513098521124, "trialdata": {"rt": -1, "stimulus": "<p id=\"stim\">POPCORN</p>", "key_press": -1, "type": "PRES_VIS", "word": "popcorn", "wordID": 1103, "conditions": [12, 800, "v", 24000], "trial": 3, "serialpos": 10, "trial_type": "single-stim", "trial_index": 139, "time_elapsed": 651259, "internal_node_id": "0.0-103.0"}}, {"uniqueid": "MTK1078:3TR2532VIQ16WL8DXVPRN19SE7PJ6W", "current_trial": 140, "dateTime": 1513098523063, "trialdata": {"rt": -1, "stimulus": "<p id=\"stim\">BROTHER</p>", "key_press": -1, "type": "PRES_VIS", "word": "brother", "wordID": 178, "conditions": [12, 800, "v", 24000], "trial": 3, "serialpos": 11, "trial_type": "single-stim", "trial_index": 140, "time_elapsed": 653198, "internal_node_id": "0.0-104.0"}}, {"uniqueid": "MTK1078:3TR2532VIQ16WL8DXVPRN19SE7PJ6W", "current_trial": 141, "dateTime": 1513098525435, "trialdata": {"rt": -1, "stimulus": "", "key_press": -1, "type": "PRE_RECALL_DELAY", "trial_type": "single-stim", "trial_index": 141, "time_elapsed": 655570, "internal_node_id": "0.0-105.0-0.0"}}, {"uniqueid": "MTK1078:3TR2532VIQ16WL8DXVPRN19SE7PJ6W", "current_trial": 142, "dateTime": 1513098525937, "trialdata": {"rt": -1000, "stimulus": "/static/audio/400Hz.wav", "key_press": -1, "type": "PRE_RECALL_ALERT", "trial_type": "single-audio", "trial_index": 142, "time_elapsed": 656071, "internal_node_id": "0.0-106.0"}}, {"uniqueid": "MTK1078:3TR2532VIQ16WL8DXVPRN19SE7PJ6W", "current_trial": 143, "dateTime": 1513098585981, "trialdata": {"rt": [], "recwords": [], "type": "FREE_RECALL", "conditions": [12, 800, "v", 24000], "trial": 3, "trial_type": "free-recall", "trial_index": 143, "time_elapsed": 716115, "internal_node_id": "0.0-107.0-0.0"}}], "questiondata": {}, "eventdata": [{"eventtype": "initialized", "value": null, "timestamp": 1513097860240, "interval": 0}, {"eventtype": "window_resize", "value": [1280, 933], "timestamp": 1513097860240, "interval": 0}, {"eventtype": "focus", "value": "on", "timestamp": 1513097860683, "interval": 443}, {"eventtype": "window_resize", "value": [1007, 977], "timestamp": 1513097860962, "interval": 279}, {"eventtype": "focus", "value": "off", "timestamp": 1513097877735, "interval": 16773}, {"eventtype": "focus", "value": "on", "timestamp": 1513097881436, "interval": 3701}, {"eventtype": "focus", "value": "off", "timestamp": 1513097980357, "interval": 98921}, {"eventtype": "focus", "value": "on", "timestamp": 1513098033886, "interval": 53529}, {"eventtype": "focus", "value": "off", "timestamp": 1513098085947, "interval": 52061}, {"eventtype": "focus", "value": "on", "timestamp": 1513098126237, "interval": 40290}, {"eventtype": "focus", "value": "off", "timestamp": 1513098130155, "interval": 3918}, {"eventtype": "focus", "value": "on", "timestamp": 1513098144206, "interval": 14051}, {"eventtype": "focus", "value": "off", "timestamp": 1513098162894, "interval": 18688}, {"eventtype": "focus", "value": "on", "timestamp": 1513098166134, "interval": 3240}, {"eventtype": "focus", "value": "off", "timestamp": 1513098167041, "interval": 907}, {"eventtype": "focus", "value": "on", "timestamp": 1513098245617, "interval": 78576}, {"eventtype": "focus", "value": "off", "timestamp": 1513098276881, "interval": 31264}, {"eventtype": "focus", "value": "on", "timestamp": 1513098282884, "interval": 6003}, {"eventtype": "focus", "value": "off", "timestamp": 1513098307160, "interval": 24276}, {"eventtype": "focus", "value": "on", "timestamp": 1513098324039, "interval": 16879}, {"eventtype": "focus", "value": "off", "timestamp": 1513098381557, "interval": 57518}, {"eventtype": "focus", "value": "on", "timestamp": 1513098457128, "interval": 75571}, {"eventtype": "focus", "value": "off", "timestamp": 1513098466013, "interval": 8885}, {"eventtype": "focus", "value": "on", "timestamp": 1513098547730, "interval": 81717}, {"eventtype": "focus", "value": "off", "timestamp": 1513098549013, "interval": 1283}, {"eventtype": "focus", "value": "on", "timestamp": 1513098606702, "interval": 57689}], "useragent": "Mozilla/5.0 (Windows NT 10.0; Win64; x64) AppleWebKit/537.36 (KHTML, like Gecko) Chrome/62.0.3202.94 Safari/537.36", "mode": "live", "status": "user data saved"}