{"assignmentId": "3SNLUL3WO5UXTMMEWYZ7JM00NEPULI", "workerId": "MTK1313", "questiondata": {"avail_screen_height": 824, "color_depth": 24, "screen_width": 1536, "pixel_depth": 24, "avail_screen_width": 1536, "screen_height": 864}, "bonus": 0, "hitId": "3OPLMF3EU5UIBC4B9VIJG7CMYX5LNS", "counterbalance": 1967, "useragent": "Mozilla/5.0 (Windows NT 10.0; Win64; x64) AppleWebKit/537.36 (KHTML, like Gecko) Chrome/63.0.3239.132 Safari/537.36", "eventdata": [{"eventtype": "initialized", "interval": 0, "value": null, "timestamp": 1515706496658}, {"eventtype": "window_resize", "interval": 0, "value": [1540, 816], "timestamp": 1515706496658}, {"eventtype": "window_resize", "interval": 6043, "value": [1536, 774], "timestamp": 1515706502701}, {"eventtype": "window_resize", "interval": 1080, "value": [1540, 816], "timestamp": 1515706503781}, {"eventtype": "focus", "interval": 8122, "value": "off", "timestamp": 1515706511903}, {"eventtype": "focus", "interval": 279148, "value": "on", "timestamp": 1515706791051}, {"eventtype": "window_resize", "interval": 8482, "value": [1536, 774], "timestamp": 1515706799533}, {"eventtype": "focus", "interval": 22637, "value": "off", "timestamp": 1515706822170}, {"eventtype": "focus", "interval": 4521, "value": "on", "timestamp": 1515706826691}, {"eventtype": "focus", "interval": 6365, "value": "off", "timestamp": 1515706833056}, {"eventtype": "focus", "interval": 5615, "value": "on", "timestamp": 1515706838671}, {"eventtype": "focus", "interval": 126826, "value": "off", "timestamp": 1515706965497}, {"eventtype": "focus", "interval": 41069, "value": "on", "timestamp": 1515707006566}, {"eventtype": "window_resize", "interval": 37872, "value": [1540, 816], "timestamp": 1515707044438}, {"eventtype": "window_resize", "interval": 2841, "value": [1536, 774], "timestamp": 1515707047279}, {"eventtype": "window_resize", "interval": 1736, "value": [1540, 816], "timestamp": 1515707049015}, {"eventtype": "focus", "interval": 1223, "value": "off", "timestamp": 1515707050238}, {"eventtype": "focus", "interval": 25382, "value": "on", "timestamp": 1515707075620}], "data": [{"current_trial": 0, "trialdata": {"rt": 285332, "trial_type": "text", "internal_node_id": "0.0-0.0", "time_elapsed": 285336, "key_press": 13, "type": "INSTRUCTIONS", "trial_index": 0}, "uniqueid": "MTK1313:3SNLUL3WO5UXTMMEWYZ7JM00NEPULI", "dateTime": 1515706793342}, {"current_trial": 1, "trialdata": {"rt": 18244, "trial_type": "text", "internal_node_id": "0.0-1.0", "time_elapsed": 303583, "key_press": 13, "type": "INSTRUCTIONS", "trial_index": 1}, "uniqueid": "MTK1313:3SNLUL3WO5UXTMMEWYZ7JM00NEPULI", "dateTime": 1515706811589}, {"current_trial": 2, "trialdata": {"rt": [6636], "trial_type": "audio-test", "responses": ["ocean"], "internal_node_id": "0.0-2.0", "time_elapsed": 310230, "type": "AUDIO_TEST", "trial_index": 2}, "uniqueid": "MTK1313:3SNLUL3WO5UXTMMEWYZ7JM00NEPULI", "dateTime": 1515706818236}, {"current_trial": 3, "trialdata": {"rt": [12175], "trial_type": "audio-test", "responses": ["crystal"], "internal_node_id": "0.0-3.0", "time_elapsed": 322412, "type": "AUDIO_TEST", "trial_index": 3}, "uniqueid": "MTK1313:3SNLUL3WO5UXTMMEWYZ7JM00NEPULI", "dateTime": 1515706830417}, {"current_trial": 4, "trialdata": {"rt": [13216], "trial_type": "audio-test", "responses": ["spice"], "internal_node_id": "0.0-4.0", "time_elapsed": 335633, "type": "AUDIO_TEST", "trial_index": 4}, "uniqueid": "MTK1313:3SNLUL3WO5UXTMMEWYZ7JM00NEPULI", "dateTime": 1515706843638}, {"current_trial": 5, "trialdata": {"rt": 31859, "trial_type": "survey-text", "responses": "{\"Q0\":\"11 pm\",\"Q1\":\"6 am\",\"Q2\":\"4\"}", "internal_node_id": "0.0-5.0", "time_elapsed": 368245, "type": "SLEEP_SURVEY", "trial_index": 5}, "uniqueid": "MTK1313:3SNLUL3WO5UXTMMEWYZ7JM00NEPULI", "dateTime": 1515706876250}, {"current_trial": 6, "trialdata": {"rt": 24000, "trial_type": "text", "internal_node_id": "0.0-6.0", "time_elapsed": 393247, "key_press": 13, "type": "INSTRUCTIONS", "trial_index": 6}, "uniqueid": "MTK1313:3SNLUL3WO5UXTMMEWYZ7JM00NEPULI", "dateTime": 1515706901252}, {"current_trial": 7, "trialdata": {"rt": 14068, "trial_type": "text", "internal_node_id": "0.0-7.0", "time_elapsed": 407816, "key_press": 13, "type": "INSTRUCTIONS", "trial_index": 7}, "uniqueid": "MTK1313:3SNLUL3WO5UXTMMEWYZ7JM00NEPULI", "dateTime": 1515706915822}, {"current_trial": 8, "trialdata": {"rt": 12083, "trial_type": "text", "internal_node_id": "0.0-8.0", "time_elapsed": 420402, "key_press": 13, "type": "INSTRUCTIONS", "trial_index": 8}, "uniqueid": "MTK1313:3SNLUL3WO5UXTMMEWYZ7JM00NEPULI", "dateTime": 1515706928407}, {"current_trial": 9, "trialdata": {"rt": [3122, 6699, 8719, 12784], "trial_type": "math-distractor", "key_times": [2647, 3122, 6074, 6475, 6699, 8388, 8577, 8719, 12221, 12630, 12784, 17605, 17831], "responses": ["5", "17", "11", "16"], "num2": [1, 2, 4, 1, 7], "num3": [3, 6, 3, 7, 9], "conditions": [18, 1200, "a", 18000], "internal_node_id": "0.0-9.0", "key_presses": [53, 13, 49, 55, 13, 49, 49, 13, 49, 54, 13, 50, 49], "trial": 0, "time_elapsed": 439408, "type": "DISTRACTOR", "trial_index": 9, "num1": [1, 9, 4, 8, 5]}, "uniqueid": "MTK1313:3SNLUL3WO5UXTMMEWYZ7JM00NEPULI", "dateTime": 1515706947413}, {"current_trial": 10, "trialdata": {"rt": -1, "trial_type": "single-stim", "stimulus": "<p id=\"stim\">10</p>", "internal_node_id": "0.0-10.0-0.0", "time_elapsed": 442413, "key_press": -1, "trial_index": 10}, "uniqueid": "MTK1313:3SNLUL3WO5UXTMMEWYZ7JM00NEPULI", "dateTime": 1515706950418}, {"current_trial": 11, "trialdata": {"rt": -1, "trial_type": "single-stim", "stimulus": "<p id=\"stim\">9</p>", "internal_node_id": "0.0-10.0-1.0", "time_elapsed": 443415, "key_press": -1, "trial_index": 11}, "uniqueid": "MTK1313:3SNLUL3WO5UXTMMEWYZ7JM00NEPULI", "dateTime": 1515706951420}, {"current_trial": 12, "trialdata": {"rt": -1, "trial_type": "single-stim", "stimulus": "<p id=\"stim\">8</p>", "internal_node_id": "0.0-10.0-2.0", "time_elapsed": 444418, "key_press": -1, "trial_index": 12}, "uniqueid": "MTK1313:3SNLUL3WO5UXTMMEWYZ7JM00NEPULI", "dateTime": 1515706952423}, {"current_trial": 13, "trialdata": {"rt": -1, "trial_type": "single-stim", "stimulus": "<p id=\"stim\">7</p>", "internal_node_id": "0.0-10.0-3.0", "time_elapsed": 445420, "key_press": -1, "trial_index": 13}, "uniqueid": "MTK1313:3SNLUL3WO5UXTMMEWYZ7JM00NEPULI", "dateTime": 1515706953425}, {"current_trial": 14, "trialdata": {"rt": -1, "trial_type": "single-stim", "stimulus": "<p id=\"stim\">6</p>", "internal_node_id": "0.0-10.0-4.0", "time_elapsed": 446421, "key_press": -1, "trial_index": 14}, "uniqueid": "MTK1313:3SNLUL3WO5UXTMMEWYZ7JM00NEPULI", "dateTime": 1515706954426}, {"current_trial": 15, "trialdata": {"rt": -1, "trial_type": "single-stim", "stimulus": "<p id=\"stim\">5</p>", "internal_node_id": "0.0-10.0-5.0", "time_elapsed": 447422, "key_press": -1, "trial_index": 15}, "uniqueid": "MTK1313:3SNLUL3WO5UXTMMEWYZ7JM00NEPULI", "dateTime": 1515706955428}, {"current_trial": 16, "trialdata": {"rt": -1, "trial_type": "single-stim", "stimulus": "<p id=\"stim\">4</p>", "internal_node_id": "0.0-10.0-6.0", "time_elapsed": 448424, "key_press": -1, "trial_index": 16}, "uniqueid": "MTK1313:3SNLUL3WO5UXTMMEWYZ7JM00NEPULI", "dateTime": 1515706956429}, {"current_trial": 17, "trialdata": {"rt": -1, "trial_type": "single-stim", "stimulus": "<p id=\"stim\">3</p>", "internal_node_id": "0.0-10.0-7.0", "time_elapsed": 449426, "key_press": -1, "trial_index": 17}, "uniqueid": "MTK1313:3SNLUL3WO5UXTMMEWYZ7JM00NEPULI", "dateTime": 1515706957431}, {"current_trial": 18, "trialdata": {"rt": -1, "trial_type": "single-stim", "stimulus": "<p id=\"stim\">2</p>", "internal_node_id": "0.0-10.0-8.0", "time_elapsed": 450428, "key_press": -1, "trial_index": 18}, "uniqueid": "MTK1313:3SNLUL3WO5UXTMMEWYZ7JM00NEPULI", "dateTime": 1515706958433}, {"current_trial": 19, "trialdata": {"rt": -1, "trial_type": "single-stim", "stimulus": "<p id=\"stim\">1</p>", "internal_node_id": "0.0-10.0-9.0", "time_elapsed": 451430, "key_press": -1, "trial_index": 19}, "uniqueid": "MTK1313:3SNLUL3WO5UXTMMEWYZ7JM00NEPULI", "dateTime": 1515706959435}, {"current_trial": 20, "trialdata": {"rt": -1, "trial_type": "single-stim", "stimulus": "<p id=\"stim\">+</p>", "internal_node_id": "0.0-11.0-0.0", "time_elapsed": 452932, "key_press": -1, "type": "FIXATION", "trial_index": 20}, "uniqueid": "MTK1313:3SNLUL3WO5UXTMMEWYZ7JM00NEPULI", "dateTime": 1515706960938}, {"current_trial": 21, "trialdata": {"rt": -1000, "trial_type": "single-audio", "word": "daisy", "stimulus": "/static/audio/wordpool/DAISY.wav", "conditions": [18, 1200, "a", 18000], "internal_node_id": "0.0-12.0", "trial": 0, "time_elapsed": 455327, "serialpos": 0, "key_press": -1, "wordID": 434, "type": "PRES_AUD", "trial_index": 21}, "uniqueid": "MTK1313:3SNLUL3WO5UXTMMEWYZ7JM00NEPULI", "dateTime": 1515706963332}, {"current_trial": 22, "trialdata": {"rt": -1000, "trial_type": "single-audio", "word": "shelf", "stimulus": "/static/audio/wordpool/SHELF.wav", "conditions": [18, 1200, "a", 18000], "internal_node_id": "0.0-13.0", "trial": 0, "time_elapsed": 457546, "serialpos": 1, "key_press": -1, "wordID": 1279, "type": "PRES_AUD", "trial_index": 22}, "uniqueid": "MTK1313:3SNLUL3WO5UXTMMEWYZ7JM00NEPULI", "dateTime": 1515706965551}, {"current_trial": 23, "trialdata": {"rt": -1000, "trial_type": "single-audio", "word": "tourist", "stimulus": "/static/audio/wordpool/TOURIST.wav", "conditions": [18, 1200, "a", 18000], "internal_node_id": "0.0-14.0", "trial": 0, "time_elapsed": 459891, "serialpos": 2, "key_press": -1, "wordID": 1487, "type": "PRES_AUD", "trial_index": 23}, "uniqueid": "MTK1313:3SNLUL3WO5UXTMMEWYZ7JM00NEPULI", "dateTime": 1515706967896}, {"current_trial": 24, "trialdata": {"rt": -1000, "trial_type": "single-audio", "word": "valley", "stimulus": "/static/audio/wordpool/VALLEY.wav", "conditions": [18, 1200, "a", 18000], "internal_node_id": "0.0-15.0", "trial": 0, "time_elapsed": 462132, "serialpos": 3, "key_press": -1, "wordID": 1544, "type": "PRES_AUD", "trial_index": 24}, "uniqueid": "MTK1313:3SNLUL3WO5UXTMMEWYZ7JM00NEPULI", "dateTime": 1515706970137}, {"current_trial": 25, "trialdata": {"rt": -1000, "trial_type": "single-audio", "word": "chauffeur", "stimulus": "/static/audio/wordpool/CHAUFFEUR.wav", "conditions": [18, 1200, "a", 18000], "internal_node_id": "0.0-16.0", "trial": 0, "time_elapsed": 464394, "serialpos": 4, "key_press": -1, "wordID": 282, "type": "PRES_AUD", "trial_index": 25}, "uniqueid": "MTK1313:3SNLUL3WO5UXTMMEWYZ7JM00NEPULI", "dateTime": 1515706972399}, {"current_trial": 26, "trialdata": {"rt": -1000, "trial_type": "single-audio", "word": "concert", "stimulus": "/static/audio/wordpool/CONCERT.wav", "conditions": [18, 1200, "a", 18000], "internal_node_id": "0.0-17.0", "trial": 0, "time_elapsed": 466410, "serialpos": 5, "key_press": -1, "wordID": 359, "type": "PRES_AUD", "trial_index": 26}, "uniqueid": "MTK1313:3SNLUL3WO5UXTMMEWYZ7JM00NEPULI", "dateTime": 1515706974415}, {"current_trial": 27, "trialdata": {"rt": -1000, "trial_type": "single-audio", "word": "rebel", "stimulus": "/static/audio/wordpool/REBEL.wav", "conditions": [18, 1200, "a", 18000], "internal_node_id": "0.0-18.0", "trial": 0, "time_elapsed": 468810, "serialpos": 6, "key_press": -1, "wordID": 1171, "type": "PRES_AUD", "trial_index": 27}, "uniqueid": "MTK1313:3SNLUL3WO5UXTMMEWYZ7JM00NEPULI", "dateTime": 1515706976815}, {"current_trial": 28, "trialdata": {"rt": -1000, "trial_type": "single-audio", "word": "teacher", "stimulus": "/static/audio/wordpool/TEACHER.wav", "conditions": [18, 1200, "a", 18000], "internal_node_id": "0.0-19.0", "trial": 0, "time_elapsed": 471169, "serialpos": 7, "key_press": -1, "wordID": 1439, "type": "PRES_AUD", "trial_index": 28}, "uniqueid": "MTK1313:3SNLUL3WO5UXTMMEWYZ7JM00NEPULI", "dateTime": 1515706979174}, {"current_trial": 29, "trialdata": {"rt": -1000, "trial_type": "single-audio", "word": "napkin", "stimulus": "/static/audio/wordpool/NAPKIN.wav", "conditions": [18, 1200, "a", 18000], "internal_node_id": "0.0-20.0", "trial": 0, "time_elapsed": 473328, "serialpos": 8, "key_press": -1, "wordID": 936, "type": "PRES_AUD", "trial_index": 29}, "uniqueid": "MTK1313:3SNLUL3WO5UXTMMEWYZ7JM00NEPULI", "dateTime": 1515706981333}, {"current_trial": 30, "trialdata": {"rt": -1000, "trial_type": "single-audio", "word": "pastry", "stimulus": "/static/audio/wordpool/PASTRY.wav", "conditions": [18, 1200, "a", 18000], "internal_node_id": "0.0-21.0", "trial": 0, "time_elapsed": 475501, "serialpos": 9, "key_press": -1, "wordID": 1021, "type": "PRES_AUD", "trial_index": 30}, "uniqueid": "MTK1313:3SNLUL3WO5UXTMMEWYZ7JM00NEPULI", "dateTime": 1515706983507}, {"current_trial": 31, "trialdata": {"rt": -1000, "trial_type": "single-audio", "word": "lava", "stimulus": "/static/audio/wordpool/LAVA.wav", "conditions": [18, 1200, "a", 18000], "internal_node_id": "0.0-22.0", "trial": 0, "time_elapsed": 477599, "serialpos": 10, "key_press": -1, "wordID": 803, "type": "PRES_AUD", "trial_index": 31}, "uniqueid": "MTK1313:3SNLUL3WO5UXTMMEWYZ7JM00NEPULI", "dateTime": 1515706985604}, {"current_trial": 32, "trialdata": {"rt": -1000, "trial_type": "single-audio", "word": "pasta", "stimulus": "/static/audio/wordpool/PASTA.wav", "conditions": [18, 1200, "a", 18000], "internal_node_id": "0.0-23.0", "trial": 0, "time_elapsed": 479851, "serialpos": 11, "key_press": -1, "wordID": 1020, "type": "PRES_AUD", "trial_index": 32}, "uniqueid": "MTK1313:3SNLUL3WO5UXTMMEWYZ7JM00NEPULI", "dateTime": 1515706987856}, {"current_trial": 33, "trialdata": {"rt": -1000, "trial_type": "single-audio", "word": "briefcase", "stimulus": "/static/audio/wordpool/BRIEFCASE.wav", "conditions": [18, 1200, "a", 18000], "internal_node_id": "0.0-24.0", "trial": 0, "time_elapsed": 482150, "serialpos": 12, "key_press": -1, "wordID": 174, "type": "PRES_AUD", "trial_index": 33}, "uniqueid": "MTK1313:3SNLUL3WO5UXTMMEWYZ7JM00NEPULI", "dateTime": 1515706990155}, {"current_trial": 34, "trialdata": {"rt": -1000, "trial_type": "single-audio", "word": "silk", "stimulus": "/static/audio/wordpool/SILK.wav", "conditions": [18, 1200, "a", 18000], "internal_node_id": "0.0-25.0", "trial": 0, "time_elapsed": 484353, "serialpos": 13, "key_press": -1, "wordID": 1306, "type": "PRES_AUD", "trial_index": 34}, "uniqueid": "MTK1313:3SNLUL3WO5UXTMMEWYZ7JM00NEPULI", "dateTime": 1515706992359}, {"current_trial": 35, "trialdata": {"rt": -1000, "trial_type": "single-audio", "word": "rocket", "stimulus": "/static/audio/wordpool/ROCKET.wav", "conditions": [18, 1200, "a", 18000], "internal_node_id": "0.0-26.0", "trial": 0, "time_elapsed": 486701, "serialpos": 14, "key_press": -1, "wordID": 1201, "type": "PRES_AUD", "trial_index": 35}, "uniqueid": "MTK1313:3SNLUL3WO5UXTMMEWYZ7JM00NEPULI", "dateTime": 1515706994706}, {"current_trial": 36, "trialdata": {"rt": -1000, "trial_type": "single-audio", "word": "cabin", "stimulus": "/static/audio/wordpool/CABIN.wav", "conditions": [18, 1200, "a", 18000], "internal_node_id": "0.0-27.0", "trial": 0, "time_elapsed": 488752, "serialpos": 15, "key_press": -1, "wordID": 210, "type": "PRES_AUD", "trial_index": 36}, "uniqueid": "MTK1313:3SNLUL3WO5UXTMMEWYZ7JM00NEPULI", "dateTime": 1515706996757}, {"current_trial": 37, "trialdata": {"rt": -1000, "trial_type": "single-audio", "word": "beaver", "stimulus": "/static/audio/wordpool/BEAVER.wav", "conditions": [18, 1200, "a", 18000], "internal_node_id": "0.0-28.0", "trial": 0, "time_elapsed": 490896, "serialpos": 16, "key_press": -1, "wordID": 108, "type": "PRES_AUD", "trial_index": 37}, "uniqueid": "MTK1313:3SNLUL3WO5UXTMMEWYZ7JM00NEPULI", "dateTime": 1515706998902}, {"current_trial": 38, "trialdata": {"rt": -1000, "trial_type": "single-audio", "word": "expert", "stimulus": "/static/audio/wordpool/EXPERT.wav", "conditions": [18, 1200, "a", 18000], "internal_node_id": "0.0-29.0", "trial": 0, "time_elapsed": 493097, "serialpos": 17, "key_press": -1, "wordID": 542, "type": "PRES_AUD", "trial_index": 38}, "uniqueid": "MTK1313:3SNLUL3WO5UXTMMEWYZ7JM00NEPULI", "dateTime": 1515707001102}, {"current_trial": 39, "trialdata": {"rt": -1, "trial_type": "single-stim", "stimulus": "", "internal_node_id": "0.0-30.0-0.0", "time_elapsed": 494365, "key_press": -1, "type": "PRE_RECALL_DELAY", "trial_index": 39}, "uniqueid": "MTK1313:3SNLUL3WO5UXTMMEWYZ7JM00NEPULI", "dateTime": 1515707002370}, {"current_trial": 40, "trialdata": {"rt": -1000, "trial_type": "single-audio", "stimulus": "/static/audio/400Hz.wav", "internal_node_id": "0.0-31.0", "time_elapsed": 494871, "key_press": -1, "type": "PRE_RECALL_ALERT", "trial_index": 40}, "uniqueid": "MTK1313:3SNLUL3WO5UXTMMEWYZ7JM00NEPULI", "dateTime": 1515707002876}, {"current_trial": 41, "trialdata": {"rt": [5655, 8104, 9292, 12063, 13321, 16362, 29818, 30599, 31137, 31417, 31663], "recwords": ["beaver", "expert", "cabin", "teacher", "tourist", "lava", "spice", "", "", "", ""], "key_times": [4054, 4293, 4495, 4650, 5040, 5182, 5386, 5474, 5655, 6039, 6263, 6451, 7601, 7728, 7951, 8104, 8440, 8637, 8810, 8918, 9064, 9292, 9665, 9926, 10166, 10664, 10822, 11095, 11304, 11464, 11591, 11712, 11832, 12063, 12328, 12482, 12637, 12732, 12848, 12999, 13151, 13321, 15674, 15802, 15988, 16191, 16362, 28929, 29183, 29321, 29445, 29636, 29818, 30599, 31137, 31417, 31663], "trial_type": "free-recall", "conditions": [18, 1200, "a", 18000], "internal_node_id": "0.0-32.0-0.0", "key_presses": [66, 69, 65, 75, 8, 86, 69, 82, 13, 69, 88, 80, 69, 82, 84, 13, 67, 65, 66, 73, 78, 13, 84, 65, 67, 8, 8, 69, 65, 67, 72, 69, 82, 13, 84, 79, 85, 82, 73, 83, 84, 13, 76, 65, 86, 65, 13, 83, 80, 73, 67, 69, 13, 13, 13, 13, 13], "trial": 0, "time_elapsed": 554875, "type": "FREE_RECALL", "trial_index": 41}, "uniqueid": "MTK1313:3SNLUL3WO5UXTMMEWYZ7JM00NEPULI", "dateTime": 1515707062884}, {"current_trial": 42, "trialdata": {"rt": 15673, "trial_type": "text", "internal_node_id": "0.0-33.0", "time_elapsed": 572552, "key_press": 13, "type": "INSTRUCTIONS", "trial_index": 42}, "uniqueid": "MTK1313:3SNLUL3WO5UXTMMEWYZ7JM00NEPULI", "dateTime": 1515707080557}, {"current_trial": 43, "trialdata": {"rt": [3483, 6603, 10060, 12585, 14274, 17930], "trial_type": "math-distractor", "key_times": [2745, 3071, 3483, 6012, 6346, 6603, 9678, 9920, 10060, 12086, 12370, 12585, 13974, 14147, 14274, 17465, 17669, 17930], "responses": ["18", "10", "21", "14", "11", "22"], "num2": [2, 2, 8, 3, 8, 7, 8], "num3": [7, 3, 5, 7, 2, 7, 5], "conditions": [18, 1200, "a", 18000], "internal_node_id": "0.0-34.0", "key_presses": [49, 56, 13, 49, 48, 13, 50, 49, 13, 49, 52, 13, 49, 49, 13, 50, 50, 13], "trial": 1, "time_elapsed": 592557, "type": "DISTRACTOR", "trial_index": 43, "num1": [9, 5, 8, 4, 1, 8, 2]}, "uniqueid": "MTK1313:3SNLUL3WO5UXTMMEWYZ7JM00NEPULI", "dateTime": 1515707100562}, {"current_trial": 44, "trialdata": {"rt": -1, "trial_type": "single-stim", "stimulus": "<p id=\"stim\">10</p>", "internal_node_id": "0.0-35.0-0.0", "time_elapsed": 595559, "key_press": -1, "trial_index": 44}, "uniqueid": "MTK1313:3SNLUL3WO5UXTMMEWYZ7JM00NEPULI", "dateTime": 1515707103564}, {"current_trial": 45, "trialdata": {"rt": -1, "trial_type": "single-stim", "stimulus": "<p id=\"stim\">9</p>", "internal_node_id": "0.0-35.0-1.0", "time_elapsed": 596560, "key_press": -1, "trial_index": 45}, "uniqueid": "MTK1313:3SNLUL3WO5UXTMMEWYZ7JM00NEPULI", "dateTime": 1515707104565}, {"current_trial": 46, "trialdata": {"rt": -1, "trial_type": "single-stim", "stimulus": "<p id=\"stim\">8</p>", "internal_node_id": "0.0-35.0-2.0", "time_elapsed": 597562, "key_press": -1, "trial_index": 46}, "uniqueid": "MTK1313:3SNLUL3WO5UXTMMEWYZ7JM00NEPULI", "dateTime": 1515707105567}, {"current_trial": 47, "trialdata": {"rt": -1, "trial_type": "single-stim", "stimulus": "<p id=\"stim\">7</p>", "internal_node_id": "0.0-35.0-3.0", "time_elapsed": 598564, "key_press": -1, "trial_index": 47}, "uniqueid": "MTK1313:3SNLUL3WO5UXTMMEWYZ7JM00NEPULI", "dateTime": 1515707106570}, {"current_trial": 48, "trialdata": {"rt": -1, "trial_type": "single-stim", "stimulus": "<p id=\"stim\">6</p>", "internal_node_id": "0.0-35.0-4.0", "time_elapsed": 599566, "key_press": -1, "trial_index": 48}, "uniqueid": "MTK1313:3SNLUL3WO5UXTMMEWYZ7JM00NEPULI", "dateTime": 1515707107571}, {"current_trial": 49, "trialdata": {"rt": -1, "trial_type": "single-stim", "stimulus": "<p id=\"stim\">5</p>", "internal_node_id": "0.0-35.0-5.0", "time_elapsed": 600567, "key_press": -1, "trial_index": 49}, "uniqueid": "MTK1313:3SNLUL3WO5UXTMMEWYZ7JM00NEPULI", "dateTime": 1515707108572}, {"current_trial": 50, "trialdata": {"rt": -1, "trial_type": "single-stim", "stimulus": "<p id=\"stim\">4</p>", "internal_node_id": "0.0-35.0-6.0", "time_elapsed": 601568, "key_press": -1, "trial_index": 50}, "uniqueid": "MTK1313:3SNLUL3WO5UXTMMEWYZ7JM00NEPULI", "dateTime": 1515707109573}, {"current_trial": 51, "trialdata": {"rt": -1, "trial_type": "single-stim", "stimulus": "<p id=\"stim\">3</p>", "internal_node_id": "0.0-35.0-7.0", "time_elapsed": 602569, "key_press": -1, "trial_index": 51}, "uniqueid": "MTK1313:3SNLUL3WO5UXTMMEWYZ7JM00NEPULI", "dateTime": 1515707110575}, {"current_trial": 52, "trialdata": {"rt": -1, "trial_type": "single-stim", "stimulus": "<p id=\"stim\">2</p>", "internal_node_id": "0.0-35.0-8.0", "time_elapsed": 603571, "key_press": -1, "trial_index": 52}, "uniqueid": "MTK1313:3SNLUL3WO5UXTMMEWYZ7JM00NEPULI", "dateTime": 1515707111576}, {"current_trial": 53, "trialdata": {"rt": -1, "trial_type": "single-stim", "stimulus": "<p id=\"stim\">1</p>", "internal_node_id": "0.0-35.0-9.0", "time_elapsed": 604573, "key_press": -1, "trial_index": 53}, "uniqueid": "MTK1313:3SNLUL3WO5UXTMMEWYZ7JM00NEPULI", "dateTime": 1515707112578}, {"current_trial": 54, "trialdata": {"rt": -1, "trial_type": "single-stim", "stimulus": "<p id=\"stim\">+</p>", "internal_node_id": "0.0-36.0-0.0", "time_elapsed": 606075, "key_press": -1, "type": "FIXATION", "trial_index": 54}, "uniqueid": "MTK1313:3SNLUL3WO5UXTMMEWYZ7JM00NEPULI", "dateTime": 1515707114080}, {"current_trial": 55, "trialdata": {"rt": -1000, "trial_type": "single-audio", "word": "diver", "stimulus": "/static/audio/wordpool/DIVER.wav", "conditions": [18, 1200, "a", 18000], "internal_node_id": "0.0-37.0", "trial": 1, "time_elapsed": 608324, "serialpos": 0, "key_press": -1, "wordID": 475, "type": "PRES_AUD", "trial_index": 55}, "uniqueid": "MTK1313:3SNLUL3WO5UXTMMEWYZ7JM00NEPULI", "dateTime": 1515707116329}, {"current_trial": 56, "trialdata": {"rt": -1000, "trial_type": "single-audio", "word": "suitcase", "stimulus": "/static/audio/wordpool/SUITCASE.wav", "conditions": [18, 1200, "a", 18000], "internal_node_id": "0.0-38.0", "trial": 1, "time_elapsed": 610653, "serialpos": 1, "key_press": -1, "wordID": 1402, "type": "PRES_AUD", "trial_index": 56}, "uniqueid": "MTK1313:3SNLUL3WO5UXTMMEWYZ7JM00NEPULI", "dateTime": 1515707118658}, {"current_trial": 57, "trialdata": {"rt": -1000, "trial_type": "single-audio", "word": "nightgown", "stimulus": "/static/audio/wordpool/NIGHTGOWN.wav", "conditions": [18, 1200, "a", 18000], "internal_node_id": "0.0-39.0", "trial": 1, "time_elapsed": 612854, "serialpos": 2, "key_press": -1, "wordID": 952, "type": "PRES_AUD", "trial_index": 57}, "uniqueid": "MTK1313:3SNLUL3WO5UXTMMEWYZ7JM00NEPULI", "dateTime": 1515707120859}, {"current_trial": 58, "trialdata": {"rt": -1000, "trial_type": "single-audio", "word": "dorm", "stimulus": "/static/audio/wordpool/DORM.wav", "conditions": [18, 1200, "a", 18000], "internal_node_id": "0.0-40.0", "trial": 1, "time_elapsed": 615147, "serialpos": 3, "key_press": -1, "wordID": 487, "type": "PRES_AUD", "trial_index": 58}, "uniqueid": "MTK1313:3SNLUL3WO5UXTMMEWYZ7JM00NEPULI", "dateTime": 1515707123152}, {"current_trial": 59, "trialdata": {"rt": -1000, "trial_type": "single-audio", "word": "jungle", "stimulus": "/static/audio/wordpool/JUNGLE.wav", "conditions": [18, 1200, "a", 18000], "internal_node_id": "0.0-41.0", "trial": 1, "time_elapsed": 617158, "serialpos": 4, "key_press": -1, "wordID": 763, "type": "PRES_AUD", "trial_index": 59}, "uniqueid": "MTK1313:3SNLUL3WO5UXTMMEWYZ7JM00NEPULI", "dateTime": 1515707125163}, {"current_trial": 60, "trialdata": {"rt": -1000, "trial_type": "single-audio", "word": "termite", "stimulus": "/static/audio/wordpool/TERMITE.wav", "conditions": [18, 1200, "a", 18000], "internal_node_id": "0.0-42.0", "trial": 1, "time_elapsed": 619276, "serialpos": 5, "key_press": -1, "wordID": 1450, "type": "PRES_AUD", "trial_index": 60}, "uniqueid": "MTK1313:3SNLUL3WO5UXTMMEWYZ7JM00NEPULI", "dateTime": 1515707127282}, {"current_trial": 61, "trialdata": {"rt": -1000, "trial_type": "single-audio", "word": "bucket", "stimulus": "/static/audio/wordpool/BUCKET.wav", "conditions": [18, 1200, "a", 18000], "internal_node_id": "0.0-43.0", "trial": 1, "time_elapsed": 621349, "serialpos": 6, "key_press": -1, "wordID": 183, "type": "PRES_AUD", "trial_index": 61}, "uniqueid": "MTK1313:3SNLUL3WO5UXTMMEWYZ7JM00NEPULI", "dateTime": 1515707129354}, {"current_trial": 62, "trialdata": {"rt": -1000, "trial_type": "single-audio", "word": "partner", "stimulus": "/static/audio/wordpool/PARTNER.wav", "conditions": [18, 1200, "a", 18000], "internal_node_id": "0.0-44.0", "trial": 1, "time_elapsed": 623659, "serialpos": 7, "key_press": -1, "wordID": 1016, "type": "PRES_AUD", "trial_index": 62}, "uniqueid": "MTK1313:3SNLUL3WO5UXTMMEWYZ7JM00NEPULI", "dateTime": 1515707131664}, {"current_trial": 63, "trialdata": {"rt": -1000, "trial_type": "single-audio", "word": "taxi", "stimulus": "/static/audio/wordpool/TAXI.wav", "conditions": [18, 1200, "a", 18000], "internal_node_id": "0.0-45.0", "trial": 1, "time_elapsed": 626006, "serialpos": 8, "key_press": -1, "wordID": 1437, "type": "PRES_AUD", "trial_index": 63}, "uniqueid": "MTK1313:3SNLUL3WO5UXTMMEWYZ7JM00NEPULI", "dateTime": 1515707134011}, {"current_trial": 64, "trialdata": {"rt": -1000, "trial_type": "single-audio", "word": "liver", "stimulus": "/static/audio/wordpool/LIVER.wav", "conditions": [18, 1200, "a", 18000], "internal_node_id": "0.0-46.0", "trial": 1, "time_elapsed": 628147, "serialpos": 9, "key_press": -1, "wordID": 832, "type": "PRES_AUD", "trial_index": 64}, "uniqueid": "MTK1313:3SNLUL3WO5UXTMMEWYZ7JM00NEPULI", "dateTime": 1515707136152}, {"current_trial": 65, "trialdata": {"rt": -1000, "trial_type": "single-audio", "word": "soda", "stimulus": "/static/audio/wordpool/SODA.wav", "conditions": [18, 1200, "a", 18000], "internal_node_id": "0.0-47.0", "trial": 1, "time_elapsed": 630479, "serialpos": 10, "key_press": -1, "wordID": 1340, "type": "PRES_AUD", "trial_index": 65}, "uniqueid": "MTK1313:3SNLUL3WO5UXTMMEWYZ7JM00NEPULI", "dateTime": 1515707138484}, {"current_trial": 66, "trialdata": {"rt": -1000, "trial_type": "single-audio", "word": "police", "stimulus": "/static/audio/wordpool/POLICE.wav", "conditions": [18, 1200, "a", 18000], "internal_node_id": "0.0-48.0", "trial": 1, "time_elapsed": 632739, "serialpos": 11, "key_press": -1, "wordID": 1097, "type": "PRES_AUD", "trial_index": 66}, "uniqueid": "MTK1313:3SNLUL3WO5UXTMMEWYZ7JM00NEPULI", "dateTime": 1515707140745}, {"current_trial": 67, "trialdata": {"rt": -1000, "trial_type": "single-audio", "word": "elbow", "stimulus": "/static/audio/wordpool/ELBOW.wav", "conditions": [18, 1200, "a", 18000], "internal_node_id": "0.0-49.0", "trial": 1, "time_elapsed": 635043, "serialpos": 12, "key_press": -1, "wordID": 519, "type": "PRES_AUD", "trial_index": 67}, "uniqueid": "MTK1313:3SNLUL3WO5UXTMMEWYZ7JM00NEPULI", "dateTime": 1515707143048}, {"current_trial": 68, "trialdata": {"rt": -1000, "trial_type": "single-audio", "word": "lizard", "stimulus": "/static/audio/wordpool/LIZARD.wav", "conditions": [18, 1200, "a", 18000], "internal_node_id": "0.0-50.0", "trial": 1, "time_elapsed": 637441, "serialpos": 13, "key_press": -1, "wordID": 833, "type": "PRES_AUD", "trial_index": 68}, "uniqueid": "MTK1313:3SNLUL3WO5UXTMMEWYZ7JM00NEPULI", "dateTime": 1515707145449}, {"current_trial": 69, "trialdata": {"rt": -1000, "trial_type": "single-audio", "word": "sibling", "stimulus": "/static/audio/wordpool/SIBLING.wav", "conditions": [18, 1200, "a", 18000], "internal_node_id": "0.0-51.0", "trial": 1, "time_elapsed": 639836, "serialpos": 14, "key_press": -1, "wordID": 1300, "type": "PRES_AUD", "trial_index": 69}, "uniqueid": "MTK1313:3SNLUL3WO5UXTMMEWYZ7JM00NEPULI", "dateTime": 1515707147841}, {"current_trial": 70, "trialdata": {"rt": -1000, "trial_type": "single-audio", "word": "apple", "stimulus": "/static/audio/wordpool/APPLE.wav", "conditions": [18, 1200, "a", 18000], "internal_node_id": "0.0-52.0", "trial": 1, "time_elapsed": 641870, "serialpos": 15, "key_press": -1, "wordID": 32, "type": "PRES_AUD", "trial_index": 70}, "uniqueid": "MTK1313:3SNLUL3WO5UXTMMEWYZ7JM00NEPULI", "dateTime": 1515707149876}, {"current_trial": 71, "trialdata": {"rt": -1000, "trial_type": "single-audio", "word": "gangster", "stimulus": "/static/audio/wordpool/GANGSTER.wav", "conditions": [18, 1200, "a", 18000], "internal_node_id": "0.0-53.0", "trial": 1, "time_elapsed": 643979, "serialpos": 16, "key_press": -1, "wordID": 619, "type": "PRES_AUD", "trial_index": 71}, "uniqueid": "MTK1313:3SNLUL3WO5UXTMMEWYZ7JM00NEPULI", "dateTime": 1515707151984}, {"current_trial": 72, "trialdata": {"rt": -1000, "trial_type": "single-audio", "word": "clamp", "stimulus": "/static/audio/wordpool/CLAMP.wav", "conditions": [18, 1200, "a", 18000], "internal_node_id": "0.0-54.0", "trial": 1, "time_elapsed": 646012, "serialpos": 17, "key_press": -1, "wordID": 315, "type": "PRES_AUD", "trial_index": 72}, "uniqueid": "MTK1313:3SNLUL3WO5UXTMMEWYZ7JM00NEPULI", "dateTime": 1515707154017}, {"current_trial": 73, "trialdata": {"rt": -1, "trial_type": "single-stim", "stimulus": "", "internal_node_id": "0.0-55.0-0.0", "time_elapsed": 647331, "key_press": -1, "type": "PRE_RECALL_DELAY", "trial_index": 73}, "uniqueid": "MTK1313:3SNLUL3WO5UXTMMEWYZ7JM00NEPULI", "dateTime": 1515707155336}, {"current_trial": 74, "trialdata": {"rt": -1000, "trial_type": "single-audio", "stimulus": "/static/audio/400Hz.wav", "internal_node_id": "0.0-56.0", "time_elapsed": 647832, "key_press": -1, "type": "PRE_RECALL_ALERT", "trial_index": 74}, "uniqueid": "MTK1313:3SNLUL3WO5UXTMMEWYZ7JM00NEPULI", "dateTime": 1515707155837}, {"current_trial": 75, "trialdata": {"rt": [6343, 7912, 9244, 11263, 12835, 15397, 17163], "recwords": ["gangster", "apple", "clamp", "police", "soda", "diver", "elbow"], "key_times": [1710, 1850, 1988, 2138, 2355, 2514, 2645, 3729, 3902, 5384, 5540, 5877, 6048, 6151, 6343, 7020, 7205, 7382, 7571, 7710, 7912, 8248, 8396, 8583, 8711, 8949, 9244, 9930, 10089, 10309, 10431, 10552, 10731, 11263, 11792, 11912, 12088, 12260, 12835, 14635, 14775, 14918, 15126, 15208, 15397, 16047, 16164, 16332, 16487, 16879, 17163], "trial_type": "free-recall", "conditions": [18, 1200, "a", 18000], "internal_node_id": "0.0-57.0-0.0", "key_presses": [71, 65, 78, 71, 69, 83, 84, 8, 8, 8, 83, 84, 69, 82, 13, 65, 80, 80, 76, 69, 13, 67, 76, 65, 77, 80, 13, 80, 79, 76, 73, 67, 69, 13, 83, 79, 68, 65, 13, 68, 73, 86, 69, 82, 13, 69, 76, 66, 79, 87, 13], "trial": 1, "time_elapsed": 707835, "type": "FREE_RECALL", "trial_index": 75}, "uniqueid": "MTK1313:3SNLUL3WO5UXTMMEWYZ7JM00NEPULI", "dateTime": 1515707215843}, {"current_trial": 76, "trialdata": {"rt": 3049, "trial_type": "text", "internal_node_id": "0.0-58.0", "time_elapsed": 712887, "key_press": 13, "type": "INSTRUCTIONS", "trial_index": 76}, "uniqueid": "MTK1313:3SNLUL3WO5UXTMMEWYZ7JM00NEPULI", "dateTime": 1515707220892}, {"current_trial": 77, "trialdata": {"rt": [3721, 5759, 8159, 11105], "trial_type": "math-distractor", "key_times": [3366, 3552, 3721, 5488, 5759, 7615, 7868, 8159, 10770, 10946, 11105], "responses": ["22", "8", "10", "11"], "num2": [7, 1, 2, 2, 3], "num3": [7, 1, 5, 7, 9], "conditions": [24, 800, "a", 12000], "internal_node_id": "0.0-59.0", "key_presses": [50, 50, 13, 56, 13, 49, 48, 13, 49, 49, 13], "trial": 2, "time_elapsed": 725890, "type": "DISTRACTOR", "trial_index": 77, "num1": [8, 6, 3, 2, 1]}, "uniqueid": "MTK1313:3SNLUL3WO5UXTMMEWYZ7JM00NEPULI", "dateTime": 1515707233895}, {"current_trial": 78, "trialdata": {"rt": -1, "trial_type": "single-stim", "stimulus": "<p id=\"stim\">10</p>", "internal_node_id": "0.0-60.0-0.0", "time_elapsed": 728892, "key_press": -1, "trial_index": 78}, "uniqueid": "MTK1313:3SNLUL3WO5UXTMMEWYZ7JM00NEPULI", "dateTime": 1515707236897}, {"current_trial": 79, "trialdata": {"rt": -1, "trial_type": "single-stim", "stimulus": "<p id=\"stim\">9</p>", "internal_node_id": "0.0-60.0-1.0", "time_elapsed": 729894, "key_press": -1, "trial_index": 79}, "uniqueid": "MTK1313:3SNLUL3WO5UXTMMEWYZ7JM00NEPULI", "dateTime": 1515707237899}, {"current_trial": 80, "trialdata": {"rt": -1, "trial_type": "single-stim", "stimulus": "<p id=\"stim\">8</p>", "internal_node_id": "0.0-60.0-2.0", "time_elapsed": 730896, "key_press": -1, "trial_index": 80}, "uniqueid": "MTK1313:3SNLUL3WO5UXTMMEWYZ7JM00NEPULI", "dateTime": 1515707238901}, {"current_trial": 81, "trialdata": {"rt": -1, "trial_type": "single-stim", "stimulus": "<p id=\"stim\">7</p>", "internal_node_id": "0.0-60.0-3.0", "time_elapsed": 731897, "key_press": -1, "trial_index": 81}, "uniqueid": "MTK1313:3SNLUL3WO5UXTMMEWYZ7JM00NEPULI", "dateTime": 1515707239902}, {"current_trial": 82, "trialdata": {"rt": -1, "trial_type": "single-stim", "stimulus": "<p id=\"stim\">6</p>", "internal_node_id": "0.0-60.0-4.0", "time_elapsed": 732898, "key_press": -1, "trial_index": 82}, "uniqueid": "MTK1313:3SNLUL3WO5UXTMMEWYZ7JM00NEPULI", "dateTime": 1515707240903}, {"current_trial": 83, "trialdata": {"rt": -1, "trial_type": "single-stim", "stimulus": "<p id=\"stim\">5</p>", "internal_node_id": "0.0-60.0-5.0", "time_elapsed": 733899, "key_press": -1, "trial_index": 83}, "uniqueid": "MTK1313:3SNLUL3WO5UXTMMEWYZ7JM00NEPULI", "dateTime": 1515707241904}, {"current_trial": 84, "trialdata": {"rt": -1, "trial_type": "single-stim", "stimulus": "<p id=\"stim\">4</p>", "internal_node_id": "0.0-60.0-6.0", "time_elapsed": 734901, "key_press": -1, "trial_index": 84}, "uniqueid": "MTK1313:3SNLUL3WO5UXTMMEWYZ7JM00NEPULI", "dateTime": 1515707242906}, {"current_trial": 85, "trialdata": {"rt": -1, "trial_type": "single-stim", "stimulus": "<p id=\"stim\">3</p>", "internal_node_id": "0.0-60.0-7.0", "time_elapsed": 735901, "key_press": -1, "trial_index": 85}, "uniqueid": "MTK1313:3SNLUL3WO5UXTMMEWYZ7JM00NEPULI", "dateTime": 1515707243906}, {"current_trial": 86, "trialdata": {"rt": -1, "trial_type": "single-stim", "stimulus": "<p id=\"stim\">2</p>", "internal_node_id": "0.0-60.0-8.0", "time_elapsed": 736903, "key_press": -1, "trial_index": 86}, "uniqueid": "MTK1313:3SNLUL3WO5UXTMMEWYZ7JM00NEPULI", "dateTime": 1515707244908}, {"current_trial": 87, "trialdata": {"rt": -1, "trial_type": "single-stim", "stimulus": "<p id=\"stim\">1</p>", "internal_node_id": "0.0-60.0-9.0", "time_elapsed": 737905, "key_press": -1, "trial_index": 87}, "uniqueid": "MTK1313:3SNLUL3WO5UXTMMEWYZ7JM00NEPULI", "dateTime": 1515707245910}, {"current_trial": 88, "trialdata": {"rt": -1, "trial_type": "single-stim", "stimulus": "<p id=\"stim\">+</p>", "internal_node_id": "0.0-61.0-0.0", "time_elapsed": 739406, "key_press": -1, "type": "FIXATION", "trial_index": 88}, "uniqueid": "MTK1313:3SNLUL3WO5UXTMMEWYZ7JM00NEPULI", "dateTime": 1515707247411}, {"current_trial": 89, "trialdata": {"rt": -1000, "trial_type": "single-audio", "word": "shirt", "stimulus": "/static/audio/wordpool/SHIRT.wav", "conditions": [24, 800, "a", 12000], "internal_node_id": "0.0-62.0", "trial": 2, "time_elapsed": 741101, "serialpos": 0, "key_press": -1, "wordID": 1286, "type": "PRES_AUD", "trial_index": 89}, "uniqueid": "MTK1313:3SNLUL3WO5UXTMMEWYZ7JM00NEPULI", "dateTime": 1515707249106}, {"current_trial": 90, "trialdata": {"rt": -1000, "trial_type": "single-audio", "word": "passage", "stimulus": "/static/audio/wordpool/PASSAGE.wav", "conditions": [24, 800, "a", 12000], "internal_node_id": "0.0-63.0", "trial": 2, "time_elapsed": 742782, "serialpos": 1, "key_press": -1, "wordID": 1018, "type": "PRES_AUD", "trial_index": 90}, "uniqueid": "MTK1313:3SNLUL3WO5UXTMMEWYZ7JM00NEPULI", "dateTime": 1515707250788}, {"current_trial": 91, "trialdata": {"rt": -1000, "trial_type": "single-audio", "word": "server", "stimulus": "/static/audio/wordpool/SERVER.wav", "conditions": [24, 800, "a", 12000], "internal_node_id": "0.0-64.0", "trial": 2, "time_elapsed": 744498, "serialpos": 2, "key_press": -1, "wordID": 1271, "type": "PRES_AUD", "trial_index": 91}, "uniqueid": "MTK1313:3SNLUL3WO5UXTMMEWYZ7JM00NEPULI", "dateTime": 1515707252503}, {"current_trial": 92, "trialdata": {"rt": -1000, "trial_type": "single-audio", "word": "scalpel", "stimulus": "/static/audio/wordpool/SCALPEL.wav", "conditions": [24, 800, "a", 12000], "internal_node_id": "0.0-65.0", "trial": 2, "time_elapsed": 746225, "serialpos": 3, "key_press": -1, "wordID": 1242, "type": "PRES_AUD", "trial_index": 92}, "uniqueid": "MTK1313:3SNLUL3WO5UXTMMEWYZ7JM00NEPULI", "dateTime": 1515707254230}, {"current_trial": 93, "trialdata": {"rt": -1000, "trial_type": "single-audio", "word": "transplant", "stimulus": "/static/audio/wordpool/TRANSPLANT.wav", "conditions": [24, 800, "a", 12000], "internal_node_id": "0.0-66.0", "trial": 2, "time_elapsed": 747999, "serialpos": 4, "key_press": -1, "wordID": 1495, "type": "PRES_AUD", "trial_index": 93}, "uniqueid": "MTK1313:3SNLUL3WO5UXTMMEWYZ7JM00NEPULI", "dateTime": 1515707256004}, {"current_trial": 94, "trialdata": {"rt": -1000, "trial_type": "single-audio", "word": "freckle", "stimulus": "/static/audio/wordpool/FRECKLE.wav", "conditions": [24, 800, "a", 12000], "internal_node_id": "0.0-67.0", "trial": 2, "time_elapsed": 749799, "serialpos": 5, "key_press": -1, "wordID": 601, "type": "PRES_AUD", "trial_index": 94}, "uniqueid": "MTK1313:3SNLUL3WO5UXTMMEWYZ7JM00NEPULI", "dateTime": 1515707257804}, {"current_trial": 95, "trialdata": {"rt": -1000, "trial_type": "single-audio", "word": "cafe", "stimulus": "/static/audio/wordpool/CAFE.wav", "conditions": [24, 800, "a", 12000], "internal_node_id": "0.0-68.0", "trial": 2, "time_elapsed": 751811, "serialpos": 6, "key_press": -1, "wordID": 215, "type": "PRES_AUD", "trial_index": 95}, "uniqueid": "MTK1313:3SNLUL3WO5UXTMMEWYZ7JM00NEPULI", "dateTime": 1515707259816}, {"current_trial": 96, "trialdata": {"rt": -1000, "trial_type": "single-audio", "word": "gallon", "stimulus": "/static/audio/wordpool/GALLON.wav", "conditions": [24, 800, "a", 12000], "internal_node_id": "0.0-69.0", "trial": 2, "time_elapsed": 753495, "serialpos": 7, "key_press": -1, "wordID": 617, "type": "PRES_AUD", "trial_index": 96}, "uniqueid": "MTK1313:3SNLUL3WO5UXTMMEWYZ7JM00NEPULI", "dateTime": 1515707261500}, {"current_trial": 97, "trialdata": {"rt": -1000, "trial_type": "single-audio", "word": "fragrance", "stimulus": "/static/audio/wordpool/FRAGRANCE.wav", "conditions": [24, 800, "a", 12000], "internal_node_id": "0.0-70.0", "trial": 2, "time_elapsed": 755383, "serialpos": 8, "key_press": -1, "wordID": 598, "type": "PRES_AUD", "trial_index": 97}, "uniqueid": "MTK1313:3SNLUL3WO5UXTMMEWYZ7JM00NEPULI", "dateTime": 1515707263388}, {"current_trial": 98, "trialdata": {"rt": -1000, "trial_type": "single-audio", "word": "perfume", "stimulus": "/static/audio/wordpool/PERFUME.wav", "conditions": [24, 800, "a", 12000], "internal_node_id": "0.0-71.0", "trial": 2, "time_elapsed": 757392, "serialpos": 9, "key_press": -1, "wordID": 1048, "type": "PRES_AUD", "trial_index": 98}, "uniqueid": "MTK1313:3SNLUL3WO5UXTMMEWYZ7JM00NEPULI", "dateTime": 1515707265397}, {"current_trial": 99, "trialdata": {"rt": -1000, "trial_type": "single-audio", "word": "mustard", "stimulus": "/static/audio/wordpool/MUSTARD.wav", "conditions": [24, 800, "a", 12000], "internal_node_id": "0.0-72.0", "trial": 2, "time_elapsed": 759208, "serialpos": 10, "key_press": -1, "wordID": 934, "type": "PRES_AUD", "trial_index": 99}, "uniqueid": "MTK1313:3SNLUL3WO5UXTMMEWYZ7JM00NEPULI", "dateTime": 1515707267213}, {"current_trial": 100, "trialdata": {"rt": -1000, "trial_type": "single-audio", "word": "barrel", "stimulus": "/static/audio/wordpool/BARREL.wav", "conditions": [24, 800, "a", 12000], "internal_node_id": "0.0-73.0", "trial": 2, "time_elapsed": 760989, "serialpos": 11, "key_press": -1, "wordID": 90, "type": "PRES_AUD", "trial_index": 100}, "uniqueid": "MTK1313:3SNLUL3WO5UXTMMEWYZ7JM00NEPULI", "dateTime": 1515707268994}, {"current_trial": 101, "trialdata": {"rt": -1000, "trial_type": "single-audio", "word": "cross", "stimulus": "/static/audio/wordpool/CROSS.wav", "conditions": [24, 800, "a", 12000], "internal_node_id": "0.0-74.0", "trial": 2, "time_elapsed": 762971, "serialpos": 12, "key_press": -1, "wordID": 412, "type": "PRES_AUD", "trial_index": 101}, "uniqueid": "MTK1313:3SNLUL3WO5UXTMMEWYZ7JM00NEPULI", "dateTime": 1515707270976}, {"current_trial": 102, "trialdata": {"rt": -1000, "trial_type": "single-audio", "word": "salad", "stimulus": "/static/audio/wordpool/SALAD.wav", "conditions": [24, 800, "a", 12000], "internal_node_id": "0.0-75.0", "trial": 2, "time_elapsed": 764946, "serialpos": 13, "key_press": -1, "wordID": 1223, "type": "PRES_AUD", "trial_index": 102}, "uniqueid": "MTK1313:3SNLUL3WO5UXTMMEWYZ7JM00NEPULI", "dateTime": 1515707272952}, {"current_trial": 103, "trialdata": {"rt": -1000, "trial_type": "single-audio", "word": "heart", "stimulus": "/static/audio/wordpool/HEART.wav", "conditions": [24, 800, "a", 12000], "internal_node_id": "0.0-76.0", "trial": 2, "time_elapsed": 766708, "serialpos": 14, "key_press": -1, "wordID": 696, "type": "PRES_AUD", "trial_index": 103}, "uniqueid": "MTK1313:3SNLUL3WO5UXTMMEWYZ7JM00NEPULI", "dateTime": 1515707274713}, {"current_trial": 104, "trialdata": {"rt": -1000, "trial_type": "single-audio", "word": "cashier", "stimulus": "/static/audio/wordpool/CASHIER.wav", "conditions": [24, 800, "a", 12000], "internal_node_id": "0.0-77.0", "trial": 2, "time_elapsed": 768511, "serialpos": 15, "key_press": -1, "wordID": 253, "type": "PRES_AUD", "trial_index": 104}, "uniqueid": "MTK1313:3SNLUL3WO5UXTMMEWYZ7JM00NEPULI", "dateTime": 1515707276516}, {"current_trial": 105, "trialdata": {"rt": -1000, "trial_type": "single-audio", "word": "waiter", "stimulus": "/static/audio/wordpool/WAITER.wav", "conditions": [24, 800, "a", 12000], "internal_node_id": "0.0-78.0", "trial": 2, "time_elapsed": 770379, "serialpos": 16, "key_press": -1, "wordID": 1579, "type": "PRES_AUD", "trial_index": 105}, "uniqueid": "MTK1313:3SNLUL3WO5UXTMMEWYZ7JM00NEPULI", "dateTime": 1515707278384}, {"current_trial": 106, "trialdata": {"rt": -1000, "trial_type": "single-audio", "word": "swimmer", "stimulus": "/static/audio/wordpool/SWIMMER.wav", "conditions": [24, 800, "a", 12000], "internal_node_id": "0.0-79.0", "trial": 2, "time_elapsed": 772059, "serialpos": 17, "key_press": -1, "wordID": 1419, "type": "PRES_AUD", "trial_index": 106}, "uniqueid": "MTK1313:3SNLUL3WO5UXTMMEWYZ7JM00NEPULI", "dateTime": 1515707280064}, {"current_trial": 107, "trialdata": {"rt": -1000, "trial_type": "single-audio", "word": "zipper", "stimulus": "/static/audio/wordpool/ZIPPER.wav", "conditions": [24, 800, "a", 12000], "internal_node_id": "0.0-80.0", "trial": 2, "time_elapsed": 773719, "serialpos": 18, "key_press": -1, "wordID": 1635, "type": "PRES_AUD", "trial_index": 107}, "uniqueid": "MTK1313:3SNLUL3WO5UXTMMEWYZ7JM00NEPULI", "dateTime": 1515707281724}, {"current_trial": 108, "trialdata": {"rt": -1000, "trial_type": "single-audio", "word": "missile", "stimulus": "/static/audio/wordpool/MISSILE.wav", "conditions": [24, 800, "a", 12000], "internal_node_id": "0.0-81.0", "trial": 2, "time_elapsed": 775616, "serialpos": 19, "key_press": -1, "wordID": 899, "type": "PRES_AUD", "trial_index": 108}, "uniqueid": "MTK1313:3SNLUL3WO5UXTMMEWYZ7JM00NEPULI", "dateTime": 1515707283621}, {"current_trial": 109, "trialdata": {"rt": -1000, "trial_type": "single-audio", "word": "lettuce", "stimulus": "/static/audio/wordpool/LETTUCE.wav", "conditions": [24, 800, "a", 12000], "internal_node_id": "0.0-82.0", "trial": 2, "time_elapsed": 777385, "serialpos": 20, "key_press": -1, "wordID": 813, "type": "PRES_AUD", "trial_index": 109}, "uniqueid": "MTK1313:3SNLUL3WO5UXTMMEWYZ7JM00NEPULI", "dateTime": 1515707285390}, {"current_trial": 110, "trialdata": {"rt": -1000, "trial_type": "single-audio", "word": "knapsack", "stimulus": "/static/audio/wordpool/KNAPSACK.wav", "conditions": [24, 800, "a", 12000], "internal_node_id": "0.0-83.0", "trial": 2, "time_elapsed": 779233, "serialpos": 21, "key_press": -1, "wordID": 782, "type": "PRES_AUD", "trial_index": 110}, "uniqueid": "MTK1313:3SNLUL3WO5UXTMMEWYZ7JM00NEPULI", "dateTime": 1515707287238}, {"current_trial": 111, "trialdata": {"rt": -1000, "trial_type": "single-audio", "word": "crutch", "stimulus": "/static/audio/wordpool/CRUTCH.wav", "conditions": [24, 800, "a", 12000], "internal_node_id": "0.0-84.0", "trial": 2, "time_elapsed": 781233, "serialpos": 22, "key_press": -1, "wordID": 416, "type": "PRES_AUD", "trial_index": 111}, "uniqueid": "MTK1313:3SNLUL3WO5UXTMMEWYZ7JM00NEPULI", "dateTime": 1515707289238}, {"current_trial": 112, "trialdata": {"rt": -1000, "trial_type": "single-audio", "word": "flag", "stimulus": "/static/audio/wordpool/FLAG.wav", "conditions": [24, 800, "a", 12000], "internal_node_id": "0.0-85.0", "trial": 2, "time_elapsed": 782961, "serialpos": 23, "key_press": -1, "wordID": 572, "type": "PRES_AUD", "trial_index": 112}, "uniqueid": "MTK1313:3SNLUL3WO5UXTMMEWYZ7JM00NEPULI", "dateTime": 1515707290966}, {"current_trial": 113, "trialdata": {"rt": -1, "trial_type": "single-stim", "stimulus": "", "internal_node_id": "0.0-86.0-0.0", "time_elapsed": 784360, "key_press": -1, "type": "PRE_RECALL_DELAY", "trial_index": 113}, "uniqueid": "MTK1313:3SNLUL3WO5UXTMMEWYZ7JM00NEPULI", "dateTime": 1515707292365}, {"current_trial": 114, "trialdata": {"rt": -1000, "trial_type": "single-audio", "stimulus": "/static/audio/400Hz.wav", "internal_node_id": "0.0-87.0", "time_elapsed": 784866, "key_press": -1, "type": "PRE_RECALL_ALERT", "trial_index": 114}, "uniqueid": "MTK1313:3SNLUL3WO5UXTMMEWYZ7JM00NEPULI", "dateTime": 1515707292871}, {"current_trial": 115, "trialdata": {"rt": [2305, 4123, 5001, 6661, 7869, 17028], "recwords": ["flag", "crouch", "nap", "zipper", "cashier", "lava"], "key_times": [1519, 1726, 1861, 2087, 2305, 3021, 3286, 3447, 3610, 3773, 3894, 4123, 4416, 4555, 4710, 5001, 5731, 5919, 6097, 6268, 6363, 6500, 6661, 6898, 7097, 7265, 7377, 7459, 7556, 7707, 7869, 16503, 16628, 16787, 16949, 17028], "trial_type": "free-recall", "conditions": [24, 800, "a", 12000], "internal_node_id": "0.0-88.0-0.0", "key_presses": [70, 76, 65, 71, 13, 67, 82, 79, 85, 67, 72, 13, 78, 65, 80, 13, 90, 73, 80, 80, 69, 82, 13, 67, 65, 83, 72, 73, 69, 82, 13, 76, 65, 86, 65, 13], "trial": 2, "time_elapsed": 844870, "type": "FREE_RECALL", "trial_index": 115}, "uniqueid": "MTK1313:3SNLUL3WO5UXTMMEWYZ7JM00NEPULI", "dateTime": 1515707352879}, {"current_trial": 116, "trialdata": {"rt": 17810, "trial_type": "text", "internal_node_id": "0.0-89.0", "time_elapsed": 864685, "key_press": 13, "type": "INSTRUCTIONS", "trial_index": 116}, "uniqueid": "MTK1313:3SNLUL3WO5UXTMMEWYZ7JM00NEPULI", "dateTime": 1515707372690}, {"current_trial": 117, "trialdata": {"rt": [4933, 7483, 11314], "trial_type": "math-distractor", "key_times": [3800, 4376, 4933, 6754, 7072, 7483, 10164, 10860, 11314], "responses": ["25", "14", "16"], "num2": [8, 2, 3, 5], "num3": [8, 4, 9, 5], "conditions": [12, 1600, "a", 12000], "internal_node_id": "0.0-90.0", "key_presses": [50, 53, 13, 49, 52, 13, 49, 54, 13], "trial": 3, "time_elapsed": 878690, "type": "DISTRACTOR", "trial_index": 117, "num1": [9, 8, 4, 3]}, "uniqueid": "MTK1313:3SNLUL3WO5UXTMMEWYZ7JM00NEPULI", "dateTime": 1515707386695}, {"current_trial": 118, "trialdata": {"rt": -1, "trial_type": "single-stim", "stimulus": "<p id=\"stim\">10</p>", "internal_node_id": "0.0-91.0-0.0", "time_elapsed": 881693, "key_press": -1, "trial_index": 118}, "uniqueid": "MTK1313:3SNLUL3WO5UXTMMEWYZ7JM00NEPULI", "dateTime": 1515707389698}, {"current_trial": 119, "trialdata": {"rt": -1, "trial_type": "single-stim", "stimulus": "<p id=\"stim\">9</p>", "internal_node_id": "0.0-91.0-1.0", "time_elapsed": 882696, "key_press": -1, "trial_index": 119}, "uniqueid": "MTK1313:3SNLUL3WO5UXTMMEWYZ7JM00NEPULI", "dateTime": 1515707390701}, {"current_trial": 120, "trialdata": {"rt": -1, "trial_type": "single-stim", "stimulus": "<p id=\"stim\">8</p>", "internal_node_id": "0.0-91.0-2.0", "time_elapsed": 883697, "key_press": -1, "trial_index": 120}, "uniqueid": "MTK1313:3SNLUL3WO5UXTMMEWYZ7JM00NEPULI", "dateTime": 1515707391702}, {"current_trial": 121, "trialdata": {"rt": -1, "trial_type": "single-stim", "stimulus": "<p id=\"stim\">7</p>", "internal_node_id": "0.0-91.0-3.0", "time_elapsed": 884699, "key_press": -1, "trial_index": 121}, "uniqueid": "MTK1313:3SNLUL3WO5UXTMMEWYZ7JM00NEPULI", "dateTime": 1515707392704}, {"current_trial": 122, "trialdata": {"rt": -1, "trial_type": "single-stim", "stimulus": "<p id=\"stim\">6</p>", "internal_node_id": "0.0-91.0-4.0", "time_elapsed": 885700, "key_press": -1, "trial_index": 122}, "uniqueid": "MTK1313:3SNLUL3WO5UXTMMEWYZ7JM00NEPULI", "dateTime": 1515707393706}, {"current_trial": 123, "trialdata": {"rt": -1, "trial_type": "single-stim", "stimulus": "<p id=\"stim\">5</p>", "internal_node_id": "0.0-91.0-5.0", "time_elapsed": 886703, "key_press": -1, "trial_index": 123}, "uniqueid": "MTK1313:3SNLUL3WO5UXTMMEWYZ7JM00NEPULI", "dateTime": 1515707394709}, {"current_trial": 124, "trialdata": {"rt": -1, "trial_type": "single-stim", "stimulus": "<p id=\"stim\">4</p>", "internal_node_id": "0.0-91.0-6.0", "time_elapsed": 887705, "key_press": -1, "trial_index": 124}, "uniqueid": "MTK1313:3SNLUL3WO5UXTMMEWYZ7JM00NEPULI", "dateTime": 1515707395710}, {"current_trial": 125, "trialdata": {"rt": -1, "trial_type": "single-stim", "stimulus": "<p id=\"stim\">3</p>", "internal_node_id": "0.0-91.0-7.0", "time_elapsed": 888706, "key_press": -1, "trial_index": 125}, "uniqueid": "MTK1313:3SNLUL3WO5UXTMMEWYZ7JM00NEPULI", "dateTime": 1515707396712}, {"current_trial": 126, "trialdata": {"rt": -1, "trial_type": "single-stim", "stimulus": "<p id=\"stim\">2</p>", "internal_node_id": "0.0-91.0-8.0", "time_elapsed": 889709, "key_press": -1, "trial_index": 126}, "uniqueid": "MTK1313:3SNLUL3WO5UXTMMEWYZ7JM00NEPULI", "dateTime": 1515707397714}, {"current_trial": 127, "trialdata": {"rt": -1, "trial_type": "single-stim", "stimulus": "<p id=\"stim\">1</p>", "internal_node_id": "0.0-91.0-9.0", "time_elapsed": 890710, "key_press": -1, "trial_index": 127}, "uniqueid": "MTK1313:3SNLUL3WO5UXTMMEWYZ7JM00NEPULI", "dateTime": 1515707398716}, {"current_trial": 128, "trialdata": {"rt": -1, "trial_type": "single-stim", "stimulus": "<p id=\"stim\">+</p>", "internal_node_id": "0.0-92.0-0.0", "time_elapsed": 892213, "key_press": -1, "type": "FIXATION", "trial_index": 128}, "uniqueid": "MTK1313:3SNLUL3WO5UXTMMEWYZ7JM00NEPULI", "dateTime": 1515707400218}, {"current_trial": 129, "trialdata": {"rt": -1000, "trial_type": "single-audio", "word": "truck", "stimulus": "/static/audio/wordpool/TRUCK.wav", "conditions": [12, 1600, "a", 12000], "internal_node_id": "0.0-93.0", "trial": 3, "time_elapsed": 894998, "serialpos": 0, "key_press": -1, "wordID": 1511, "type": "PRES_AUD", "trial_index": 129}, "uniqueid": "MTK1313:3SNLUL3WO5UXTMMEWYZ7JM00NEPULI", "dateTime": 1515707403003}, {"current_trial": 130, "trialdata": {"rt": -1000, "trial_type": "single-audio", "word": "virus", "stimulus": "/static/audio/wordpool/VIRUS.wav", "conditions": [12, 1600, "a", 12000], "internal_node_id": "0.0-94.0", "trial": 3, "time_elapsed": 897475, "serialpos": 1, "key_press": -1, "wordID": 1571, "type": "PRES_AUD", "trial_index": 130}, "uniqueid": "MTK1313:3SNLUL3WO5UXTMMEWYZ7JM00NEPULI", "dateTime": 1515707405480}, {"current_trial": 131, "trialdata": {"rt": -1000, "trial_type": "single-audio", "word": "flask", "stimulus": "/static/audio/wordpool/FLASK.wav", "conditions": [12, 1600, "a", 12000], "internal_node_id": "0.0-95.0", "trial": 3, "time_elapsed": 899893, "serialpos": 2, "key_press": -1, "wordID": 575, "type": "PRES_AUD", "trial_index": 131}, "uniqueid": "MTK1313:3SNLUL3WO5UXTMMEWYZ7JM00NEPULI", "dateTime": 1515707407899}, {"current_trial": 132, "trialdata": {"rt": -1000, "trial_type": "single-audio", "word": "beaker", "stimulus": "/static/audio/wordpool/BEAKER.wav", "conditions": [12, 1600, "a", 12000], "internal_node_id": "0.0-96.0", "trial": 3, "time_elapsed": 902397, "serialpos": 3, "key_press": -1, "wordID": 103, "type": "PRES_AUD", "trial_index": 132}, "uniqueid": "MTK1313:3SNLUL3WO5UXTMMEWYZ7JM00NEPULI", "dateTime": 1515707410402}, {"current_trial": 133, "trialdata": {"rt": -1000, "trial_type": "single-audio", "word": "airport", "stimulus": "/static/audio/wordpool/AIRPORT.wav", "conditions": [12, 1600, "a", 12000], "internal_node_id": "0.0-97.0", "trial": 3, "time_elapsed": 904926, "serialpos": 4, "key_press": -1, "wordID": 12, "type": "PRES_AUD", "trial_index": 133}, "uniqueid": "MTK1313:3SNLUL3WO5UXTMMEWYZ7JM00NEPULI", "dateTime": 1515707412931}, {"current_trial": 134, "trialdata": {"rt": -1000, "trial_type": "single-audio", "word": "tart", "stimulus": "/static/audio/wordpool/TART.wav", "conditions": [12, 1600, "a", 12000], "internal_node_id": "0.0-98.0", "trial": 3, "time_elapsed": 907625, "serialpos": 5, "key_press": -1, "wordID": 1435, "type": "PRES_AUD", "trial_index": 134}, "uniqueid": "MTK1313:3SNLUL3WO5UXTMMEWYZ7JM00NEPULI", "dateTime": 1515707415630}, {"current_trial": 135, "trialdata": {"rt": -1000, "trial_type": "single-audio", "word": "seagull", "stimulus": "/static/audio/wordpool/SEAGULL.wav", "conditions": [12, 1600, "a", 12000], "internal_node_id": "0.0-99.0", "trial": 3, "time_elapsed": 910297, "serialpos": 6, "key_press": -1, "wordID": 1260, "type": "PRES_AUD", "trial_index": 135}, "uniqueid": "MTK1313:3SNLUL3WO5UXTMMEWYZ7JM00NEPULI", "dateTime": 1515707418302}, {"current_trial": 136, "trialdata": {"rt": -1000, "trial_type": "single-audio", "word": "monster", "stimulus": "/static/audio/wordpool/MONSTER.wav", "conditions": [12, 1600, "a", 12000], "internal_node_id": "0.0-100.0", "trial": 3, "time_elapsed": 912992, "serialpos": 7, "key_press": -1, "wordID": 911, "type": "PRES_AUD", "trial_index": 136}, "uniqueid": "MTK1313:3SNLUL3WO5UXTMMEWYZ7JM00NEPULI", "dateTime": 1515707420998}, {"current_trial": 137, "trialdata": {"rt": -1000, "trial_type": "single-audio", "word": "bug", "stimulus": "/static/audio/wordpool/BUG.wav", "conditions": [12, 1600, "a", 12000], "internal_node_id": "0.0-101.0", "trial": 3, "time_elapsed": 915615, "serialpos": 8, "key_press": -1, "wordID": 186, "type": "PRES_AUD", "trial_index": 137}, "uniqueid": "MTK1313:3SNLUL3WO5UXTMMEWYZ7JM00NEPULI", "dateTime": 1515707423620}, {"current_trial": 138, "trialdata": {"rt": -1000, "trial_type": "single-audio", "word": "stamp", "stimulus": "/static/audio/wordpool/STAMP.wav", "conditions": [12, 1600, "a", 12000], "internal_node_id": "0.0-102.0", "trial": 3, "time_elapsed": 918027, "serialpos": 9, "key_press": -1, "wordID": 1369, "type": "PRES_AUD", "trial_index": 138}, "uniqueid": "MTK1313:3SNLUL3WO5UXTMMEWYZ7JM00NEPULI", "dateTime": 1515707426032}, {"current_trial": 139, "trialdata": {"rt": -1000, "trial_type": "single-audio", "word": "scarf", "stimulus": "/static/audio/wordpool/SCARF.wav", "conditions": [12, 1600, "a", 12000], "internal_node_id": "0.0-103.0", "trial": 3, "time_elapsed": 920712, "serialpos": 10, "key_press": -1, "wordID": 1245, "type": "PRES_AUD", "trial_index": 139}, "uniqueid": "MTK1313:3SNLUL3WO5UXTMMEWYZ7JM00NEPULI", "dateTime": 1515707428717}, {"current_trial": 140, "trialdata": {"rt": -1000, "trial_type": "single-audio", "word": "worker", "stimulus": "/static/audio/wordpool/WORKER.wav", "conditions": [12, 1600, "a", 12000], "internal_node_id": "0.0-104.0", "trial": 3, "time_elapsed": 923217, "serialpos": 11, "key_press": -1, "wordID": 1620, "type": "PRES_AUD", "trial_index": 140}, "uniqueid": "MTK1313:3SNLUL3WO5UXTMMEWYZ7JM00NEPULI", "dateTime": 1515707431222}, {"current_trial": 141, "trialdata": {"rt": -1, "trial_type": "single-stim", "stimulus": "", "internal_node_id": "0.0-105.0-0.0", "time_elapsed": 924491, "key_press": -1, "type": "PRE_RECALL_DELAY", "trial_index": 141}, "uniqueid": "MTK1313:3SNLUL3WO5UXTMMEWYZ7JM00NEPULI", "dateTime": 1515707432496}, {"current_trial": 142, "trialdata": {"rt": -1000, "trial_type": "single-audio", "stimulus": "/static/audio/400Hz.wav", "internal_node_id": "0.0-106.0", "time_elapsed": 925000, "key_press": -1, "type": "PRE_RECALL_ALERT", "trial_index": 142}, "uniqueid": "MTK1313:3SNLUL3WO5UXTMMEWYZ7JM00NEPULI", "dateTime": 1515707433005}, {"current_trial": 143, "trialdata": {"rt": [3869, 5016, 6997, 9317, 12282, 16643], "recwords": ["stamp", "worker", "scarf", "bug", "eaglee", "worker"], "key_times": [2210, 3136, 3275, 3402, 3597, 3869, 4121, 4259, 4431, 4547, 4688, 4803, 5016, 5356, 5688, 6091, 6320, 6536, 6631, 6855, 6997, 8775, 8940, 9131, 9317, 11405, 11610, 11803, 11956, 12065, 12117, 12282, 15397, 15509, 15655, 15773, 15899, 16016, 16643], "trial_type": "free-recall", "conditions": [12, 1600, "a", 12000], "internal_node_id": "0.0-107.0-0.0", "key_presses": [83, 84, 65, 77, 80, 13, 87, 79, 82, 75, 69, 82, 13, 83, 75, 8, 67, 65, 82, 70, 13, 66, 85, 71, 13, 69, 65, 71, 76, 69, 69, 13, 87, 79, 82, 75, 69, 82, 13], "trial": 3, "time_elapsed": 985003, "type": "FREE_RECALL", "trial_index": 143}, "uniqueid": "MTK1313:3SNLUL3WO5UXTMMEWYZ7JM00NEPULI", "dateTime": 1515707493012}, {"current_trial": 144, "trialdata": {"rt": 2096, "trial_type": "text", "internal_node_id": "0.0-108.0", "time_elapsed": 989105, "key_press": 13, "type": "INSTRUCTIONS", "trial_index": 144}, "uniqueid": "MTK1313:3SNLUL3WO5UXTMMEWYZ7JM00NEPULI", "dateTime": 1515707497110}, {"current_trial": 145, "trialdata": {"rt": [3922, 6712, 12903, 20058, 23700], "trial_type": "math-distractor", "key_times": [3110, 3338, 3922, 6061, 6261, 6712, 12333, 12567, 12903, 17038, 19449, 20058, 22645, 23152, 23700], "responses": ["23", "10", "21", "17", "18"], "num2": [4, 2, 5, 9, 5, 7], "num3": [9, 3, 9, 5, 4, 9], "conditions": [24, 1600, "a", 24000], "internal_node_id": "0.0-109.0", "key_presses": [50, 51, 13, 49, 48, 13, 50, 49, 13, 49, 55, 13, 49, 56, 13], "trial": 4, "time_elapsed": 1015108, "type": "DISTRACTOR", "trial_index": 145, "num1": [9, 5, 7, 3, 9, 7]}, "uniqueid": "MTK1313:3SNLUL3WO5UXTMMEWYZ7JM00NEPULI", "dateTime": 1515707523114}, {"current_trial": 146, "trialdata": {"rt": -1, "trial_type": "single-stim", "stimulus": "<p id=\"stim\">10</p>", "internal_node_id": "0.0-110.0-0.0", "time_elapsed": 1018111, "key_press": -1, "trial_index": 146}, "uniqueid": "MTK1313:3SNLUL3WO5UXTMMEWYZ7JM00NEPULI", "dateTime": 1515707526116}, {"current_trial": 147, "trialdata": {"rt": -1, "trial_type": "single-stim", "stimulus": "<p id=\"stim\">9</p>", "internal_node_id": "0.0-110.0-1.0", "time_elapsed": 1019113, "key_press": -1, "trial_index": 147}, "uniqueid": "MTK1313:3SNLUL3WO5UXTMMEWYZ7JM00NEPULI", "dateTime": 1515707527118}, {"current_trial": 148, "trialdata": {"rt": -1, "trial_type": "single-stim", "stimulus": "<p id=\"stim\">8</p>", "internal_node_id": "0.0-110.0-2.0", "time_elapsed": 1020115, "key_press": -1, "trial_index": 148}, "uniqueid": "MTK1313:3SNLUL3WO5UXTMMEWYZ7JM00NEPULI", "dateTime": 1515707528120}, {"current_trial": 149, "trialdata": {"rt": -1, "trial_type": "single-stim", "stimulus": "<p id=\"stim\">7</p>", "internal_node_id": "0.0-110.0-3.0", "time_elapsed": 1021117, "key_press": -1, "trial_index": 149}, "uniqueid": "MTK1313:3SNLUL3WO5UXTMMEWYZ7JM00NEPULI", "dateTime": 1515707529122}, {"current_trial": 150, "trialdata": {"rt": -1, "trial_type": "single-stim", "stimulus": "<p id=\"stim\">6</p>", "internal_node_id": "0.0-110.0-4.0", "time_elapsed": 1022118, "key_press": -1, "trial_index": 150}, "uniqueid": "MTK1313:3SNLUL3WO5UXTMMEWYZ7JM00NEPULI", "dateTime": 1515707530123}, {"current_trial": 151, "trialdata": {"rt": -1, "trial_type": "single-stim", "stimulus": "<p id=\"stim\">5</p>", "internal_node_id": "0.0-110.0-5.0", "time_elapsed": 1023120, "key_press": -1, "trial_index": 151}, "uniqueid": "MTK1313:3SNLUL3WO5UXTMMEWYZ7JM00NEPULI", "dateTime": 1515707531125}, {"current_trial": 152, "trialdata": {"rt": -1, "trial_type": "single-stim", "stimulus": "<p id=\"stim\">4</p>", "internal_node_id": "0.0-110.0-6.0", "time_elapsed": 1024121, "key_press": -1, "trial_index": 152}, "uniqueid": "MTK1313:3SNLUL3WO5UXTMMEWYZ7JM00NEPULI", "dateTime": 1515707532127}, {"current_trial": 153, "trialdata": {"rt": -1, "trial_type": "single-stim", "stimulus": "<p id=\"stim\">3</p>", "internal_node_id": "0.0-110.0-7.0", "time_elapsed": 1025124, "key_press": -1, "trial_index": 153}, "uniqueid": "MTK1313:3SNLUL3WO5UXTMMEWYZ7JM00NEPULI", "dateTime": 1515707533129}, {"current_trial": 154, "trialdata": {"rt": -1, "trial_type": "single-stim", "stimulus": "<p id=\"stim\">2</p>", "internal_node_id": "0.0-110.0-8.0", "time_elapsed": 1026125, "key_press": -1, "trial_index": 154}, "uniqueid": "MTK1313:3SNLUL3WO5UXTMMEWYZ7JM00NEPULI", "dateTime": 1515707534131}, {"current_trial": 155, "trialdata": {"rt": -1, "trial_type": "single-stim", "stimulus": "<p id=\"stim\">1</p>", "internal_node_id": "0.0-110.0-9.0", "time_elapsed": 1027127, "key_press": -1, "trial_index": 155}, "uniqueid": "MTK1313:3SNLUL3WO5UXTMMEWYZ7JM00NEPULI", "dateTime": 1515707535132}, {"current_trial": 156, "trialdata": {"rt": -1, "trial_type": "single-stim", "stimulus": "<p id=\"stim\">+</p>", "internal_node_id": "0.0-111.0-0.0", "time_elapsed": 1028629, "key_press": -1, "type": "FIXATION", "trial_index": 156}, "uniqueid": "MTK1313:3SNLUL3WO5UXTMMEWYZ7JM00NEPULI", "dateTime": 1515707536635}, {"current_trial": 157, "trialdata": {"rt": -1000, "trial_type": "single-audio", "word": "salt", "stimulus": "/static/audio/wordpool/SALT.wav", "conditions": [24, 1600, "a", 24000], "internal_node_id": "0.0-112.0", "trial": 4, "time_elapsed": 1031194, "serialpos": 0, "key_press": -1, "wordID": 1228, "type": "PRES_AUD", "trial_index": 157}, "uniqueid": "MTK1313:3SNLUL3WO5UXTMMEWYZ7JM00NEPULI", "dateTime": 1515707539199}, {"current_trial": 158, "trialdata": {"rt": -1000, "trial_type": "single-audio", "word": "buggy", "stimulus": "/static/audio/wordpool/BUGGY.wav", "conditions": [24, 1600, "a", 24000], "internal_node_id": "0.0-113.0", "trial": 4, "time_elapsed": 1033720, "serialpos": 1, "key_press": -1, "wordID": 187, "type": "PRES_AUD", "trial_index": 158}, "uniqueid": "MTK1313:3SNLUL3WO5UXTMMEWYZ7JM00NEPULI", "dateTime": 1515707541725}, {"current_trial": 159, "trialdata": {"rt": -1000, "trial_type": "single-audio", "word": "hood", "stimulus": "/static/audio/wordpool/HOOD.wav", "conditions": [24, 1600, "a", 24000], "internal_node_id": "0.0-114.0", "trial": 4, "time_elapsed": 1036242, "serialpos": 2, "key_press": -1, "wordID": 713, "type": "PRES_AUD", "trial_index": 159}, "uniqueid": "MTK1313:3SNLUL3WO5UXTMMEWYZ7JM00NEPULI", "dateTime": 1515707544247}, {"current_trial": 160, "trialdata": {"rt": -1000, "trial_type": "single-audio", "word": "snack", "stimulus": "/static/audio/wordpool/SNACK.wav", "conditions": [24, 1600, "a", 24000], "internal_node_id": "0.0-115.0", "trial": 4, "time_elapsed": 1038701, "serialpos": 3, "key_press": -1, "wordID": 1330, "type": "PRES_AUD", "trial_index": 160}, "uniqueid": "MTK1313:3SNLUL3WO5UXTMMEWYZ7JM00NEPULI", "dateTime": 1515707546707}, {"current_trial": 161, "trialdata": {"rt": -1000, "trial_type": "single-audio", "word": "pocket", "stimulus": "/static/audio/wordpool/POCKET.wav", "conditions": [24, 1600, "a", 24000], "internal_node_id": "0.0-116.0", "trial": 4, "time_elapsed": 1041245, "serialpos": 4, "key_press": -1, "wordID": 1092, "type": "PRES_AUD", "trial_index": 161}, "uniqueid": "MTK1313:3SNLUL3WO5UXTMMEWYZ7JM00NEPULI", "dateTime": 1515707549251}, {"current_trial": 162, "trialdata": {"rt": -1000, "trial_type": "single-audio", "word": "kitchen", "stimulus": "/static/audio/wordpool/KITCHEN.wav", "conditions": [24, 1600, "a", 24000], "internal_node_id": "0.0-117.0", "trial": 4, "time_elapsed": 1043952, "serialpos": 5, "key_press": -1, "wordID": 777, "type": "PRES_AUD", "trial_index": 162}, "uniqueid": "MTK1313:3SNLUL3WO5UXTMMEWYZ7JM00NEPULI", "dateTime": 1515707551957}, {"current_trial": 163, "trialdata": {"rt": -1000, "trial_type": "single-audio", "word": "cook", "stimulus": "/static/audio/wordpool/COOK.wav", "conditions": [24, 1600, "a", 24000], "internal_node_id": "0.0-118.0", "trial": 4, "time_elapsed": 1046689, "serialpos": 6, "key_press": -1, "wordID": 371, "type": "PRES_AUD", "trial_index": 163}, "uniqueid": "MTK1313:3SNLUL3WO5UXTMMEWYZ7JM00NEPULI", "dateTime": 1515707554694}, {"current_trial": 164, "trialdata": {"rt": -1000, "trial_type": "single-audio", "word": "velvet", "stimulus": "/static/audio/wordpool/VELVET.wav", "conditions": [24, 1600, "a", 24000], "internal_node_id": "0.0-119.0", "trial": 4, "time_elapsed": 1049292, "serialpos": 7, "key_press": -1, "wordID": 1554, "type": "PRES_AUD", "trial_index": 164}, "uniqueid": "MTK1313:3SNLUL3WO5UXTMMEWYZ7JM00NEPULI", "dateTime": 1515707557298}, {"current_trial": 165, "trialdata": {"rt": -1000, "trial_type": "single-audio", "word": "muffin", "stimulus": "/static/audio/wordpool/MUFFIN.wav", "conditions": [24, 1600, "a", 24000], "internal_node_id": "0.0-120.0", "trial": 4, "time_elapsed": 1051916, "serialpos": 8, "key_press": -1, "wordID": 928, "type": "PRES_AUD", "trial_index": 165}, "uniqueid": "MTK1313:3SNLUL3WO5UXTMMEWYZ7JM00NEPULI", "dateTime": 1515707559921}, {"current_trial": 166, "trialdata": {"rt": -1000, "trial_type": "single-audio", "word": "world", "stimulus": "/static/audio/wordpool/WORLD.wav", "conditions": [24, 1600, "a", 24000], "internal_node_id": "0.0-121.0", "trial": 4, "time_elapsed": 1054495, "serialpos": 9, "key_press": -1, "wordID": 1621, "type": "PRES_AUD", "trial_index": 166}, "uniqueid": "MTK1313:3SNLUL3WO5UXTMMEWYZ7JM00NEPULI", "dateTime": 1515707562500}, {"current_trial": 167, "trialdata": {"rt": -1000, "trial_type": "single-audio", "word": "market", "stimulus": "/static/audio/wordpool/MARKET.wav", "conditions": [24, 1600, "a", 24000], "internal_node_id": "0.0-122.0", "trial": 4, "time_elapsed": 1056989, "serialpos": 10, "key_press": -1, "wordID": 870, "type": "PRES_AUD", "trial_index": 167}, "uniqueid": "MTK1313:3SNLUL3WO5UXTMMEWYZ7JM00NEPULI", "dateTime": 1515707564994}, {"current_trial": 168, "trialdata": {"rt": -1000, "trial_type": "single-audio", "word": "catcher", "stimulus": "/static/audio/wordpool/CATCHER.wav", "conditions": [24, 1600, "a", 24000], "internal_node_id": "0.0-123.0", "trial": 4, "time_elapsed": 1059468, "serialpos": 11, "key_press": -1, "wordID": 257, "type": "PRES_AUD", "trial_index": 168}, "uniqueid": "MTK1313:3SNLUL3WO5UXTMMEWYZ7JM00NEPULI", "dateTime": 1515707567473}, {"current_trial": 169, "trialdata": {"rt": -1000, "trial_type": "single-audio", "word": "ox", "stimulus": "/static/audio/wordpool/OX.wav", "conditions": [24, 1600, "a", 24000], "internal_node_id": "0.0-124.0", "trial": 4, "time_elapsed": 1061901, "serialpos": 12, "key_press": -1, "wordID": 993, "type": "PRES_AUD", "trial_index": 169}, "uniqueid": "MTK1313:3SNLUL3WO5UXTMMEWYZ7JM00NEPULI", "dateTime": 1515707569906}, {"current_trial": 170, "trialdata": {"rt": -1000, "trial_type": "single-audio", "word": "country", "stimulus": "/static/audio/wordpool/COUNTRY.wav", "conditions": [24, 1600, "a", 24000], "internal_node_id": "0.0-125.0", "trial": 4, "time_elapsed": 1064635, "serialpos": 13, "key_press": -1, "wordID": 387, "type": "PRES_AUD", "trial_index": 170}, "uniqueid": "MTK1313:3SNLUL3WO5UXTMMEWYZ7JM00NEPULI", "dateTime": 1515707572640}, {"current_trial": 171, "trialdata": {"rt": -1000, "trial_type": "single-audio", "word": "handbag", "stimulus": "/static/audio/wordpool/HANDBAG.wav", "conditions": [24, 1600, "a", 24000], "internal_node_id": "0.0-126.0", "trial": 4, "time_elapsed": 1067275, "serialpos": 14, "key_press": -1, "wordID": 683, "type": "PRES_AUD", "trial_index": 171}, "uniqueid": "MTK1313:3SNLUL3WO5UXTMMEWYZ7JM00NEPULI", "dateTime": 1515707575280}, {"current_trial": 172, "trialdata": {"rt": -1000, "trial_type": "single-audio", "word": "raft", "stimulus": "/static/audio/wordpool/RAFT.wav", "conditions": [24, 1600, "a", 24000], "internal_node_id": "0.0-127.0", "trial": 4, "time_elapsed": 1070040, "serialpos": 15, "key_press": -1, "wordID": 1158, "type": "PRES_AUD", "trial_index": 172}, "uniqueid": "MTK1313:3SNLUL3WO5UXTMMEWYZ7JM00NEPULI", "dateTime": 1515707578045}, {"current_trial": 173, "trialdata": {"rt": -1000, "trial_type": "single-audio", "word": "plaid", "stimulus": "/static/audio/wordpool/PLAID.wav", "conditions": [24, 1600, "a", 24000], "internal_node_id": "0.0-128.0", "trial": 4, "time_elapsed": 1072617, "serialpos": 16, "key_press": -1, "wordID": 1079, "type": "PRES_AUD", "trial_index": 173}, "uniqueid": "MTK1313:3SNLUL3WO5UXTMMEWYZ7JM00NEPULI", "dateTime": 1515707580622}, {"current_trial": 174, "trialdata": {"rt": -1000, "trial_type": "single-audio", "word": "county", "stimulus": "/static/audio/wordpool/COUNTY.wav", "conditions": [24, 1600, "a", 24000], "internal_node_id": "0.0-129.0", "trial": 4, "time_elapsed": 1075302, "serialpos": 17, "key_press": -1, "wordID": 388, "type": "PRES_AUD", "trial_index": 174}, "uniqueid": "MTK1313:3SNLUL3WO5UXTMMEWYZ7JM00NEPULI", "dateTime": 1515707583307}, {"current_trial": 175, "trialdata": {"rt": -1000, "trial_type": "single-audio", "word": "sheriff", "stimulus": "/static/audio/wordpool/SHERIFF.wav", "conditions": [24, 1600, "a", 24000], "internal_node_id": "0.0-130.0", "trial": 4, "time_elapsed": 1077807, "serialpos": 18, "key_press": -1, "wordID": 1283, "type": "PRES_AUD", "trial_index": 175}, "uniqueid": "MTK1313:3SNLUL3WO5UXTMMEWYZ7JM00NEPULI", "dateTime": 1515707585813}, {"current_trial": 176, "trialdata": {"rt": -1000, "trial_type": "single-audio", "word": "cellar", "stimulus": "/static/audio/wordpool/CELLAR.wav", "conditions": [24, 1600, "a", 24000], "internal_node_id": "0.0-131.0", "trial": 4, "time_elapsed": 1080381, "serialpos": 19, "key_press": -1, "wordID": 266, "type": "PRES_AUD", "trial_index": 176}, "uniqueid": "MTK1313:3SNLUL3WO5UXTMMEWYZ7JM00NEPULI", "dateTime": 1515707588386}, {"current_trial": 177, "trialdata": {"rt": -1000, "trial_type": "single-audio", "word": "slug", "stimulus": "/static/audio/wordpool/SLUG.wav", "conditions": [24, 1600, "a", 24000], "internal_node_id": "0.0-132.0", "trial": 4, "time_elapsed": 1082998, "serialpos": 20, "key_press": -1, "wordID": 1328, "type": "PRES_AUD", "trial_index": 177}, "uniqueid": "MTK1313:3SNLUL3WO5UXTMMEWYZ7JM00NEPULI", "dateTime": 1515707591003}, {"current_trial": 178, "trialdata": {"rt": -1000, "trial_type": "single-audio", "word": "salmon", "stimulus": "/static/audio/wordpool/SALMON.wav", "conditions": [24, 1600, "a", 24000], "internal_node_id": "0.0-133.0", "trial": 4, "time_elapsed": 1085544, "serialpos": 21, "key_press": -1, "wordID": 1226, "type": "PRES_AUD", "trial_index": 178}, "uniqueid": "MTK1313:3SNLUL3WO5UXTMMEWYZ7JM00NEPULI", "dateTime": 1515707593549}, {"current_trial": 179, "trialdata": {"rt": -1000, "trial_type": "single-audio", "word": "fungus", "stimulus": "/static/audio/wordpool/FUNGUS.wav", "conditions": [24, 1600, "a", 24000], "internal_node_id": "0.0-134.0", "trial": 4, "time_elapsed": 1088296, "serialpos": 22, "key_press": -1, "wordID": 613, "type": "PRES_AUD", "trial_index": 179}, "uniqueid": "MTK1313:3SNLUL3WO5UXTMMEWYZ7JM00NEPULI", "dateTime": 1515707596301}, {"current_trial": 180, "trialdata": {"rt": -1000, "trial_type": "single-audio", "word": "lace", "stimulus": "/static/audio/wordpool/LACE.wav", "conditions": [24, 1600, "a", 24000], "internal_node_id": "0.0-135.0", "trial": 4, "time_elapsed": 1091050, "serialpos": 23, "key_press": -1, "wordID": 791, "type": "PRES_AUD", "trial_index": 180}, "uniqueid": "MTK1313:3SNLUL3WO5UXTMMEWYZ7JM00NEPULI", "dateTime": 1515707599055}, {"current_trial": 181, "trialdata": {"rt": -1, "trial_type": "single-stim", "stimulus": "", "internal_node_id": "0.0-136.0-0.0", "time_elapsed": 1092422, "key_press": -1, "type": "PRE_RECALL_DELAY", "trial_index": 181}, "uniqueid": "MTK1313:3SNLUL3WO5UXTMMEWYZ7JM00NEPULI", "dateTime": 1515707600427}, {"current_trial": 182, "trialdata": {"rt": -1000, "trial_type": "single-audio", "stimulus": "/static/audio/400Hz.wav", "internal_node_id": "0.0-137.0", "time_elapsed": 1092926, "key_press": -1, "type": "PRE_RECALL_ALERT", "trial_index": 182}, "uniqueid": "MTK1313:3SNLUL3WO5UXTMMEWYZ7JM00NEPULI", "dateTime": 1515707600931}], "currenttrial": 183, "condition": 1, "mode": "live"}