{"assignmentId": "3RKNTXVS3N5HG51VK1JZX4MVWP74AU", "workerId": "MTK1850", "questiondata": {"avail_screen_height": 712, "color_depth": 24, "screen_width": 1280, "pixel_depth": 24, "avail_screen_width": 1280, "screen_height": 800}, "bonus": 0, "hitId": "3LVTFB9DE5PNSH32EWDK792J87RQGW", "counterbalance": 2349, "useragent": "Mozilla/5.0 (Macintosh; Intel Mac OS X 10_12_6) AppleWebKit/537.36 (KHTML, like Gecko) Chrome/63.0.3239.132 Safari/537.36", "eventdata": [{"eventtype": "initialized", "interval": 0, "value": null, "timestamp": 1516480353262}, {"eventtype": "window_resize", "interval": 0, "value": [1280, 726], "timestamp": 1516480353262}, {"eventtype": "focus", "interval": 461561, "value": "on", "timestamp": 1516480814823}, {"eventtype": "focus", "interval": 2032, "value": "off", "timestamp": 1516480816855}, {"eventtype": "focus", "interval": 11471, "value": "on", "timestamp": 1516480828326}, {"eventtype": "focus", "interval": 42967, "value": "off", "timestamp": 1516480871293}, {"eventtype": "focus", "interval": 7322, "value": "on", "timestamp": 1516480878615}, {"eventtype": "focus", "interval": 3058, "value": "off", "timestamp": 1516480881673}, {"eventtype": "focus", "interval": 967, "value": "on", "timestamp": 1516480882640}, {"eventtype": "focus", "interval": 546688, "value": "off", "timestamp": 1516481429328}, {"eventtype": "focus", "interval": 164, "value": "on", "timestamp": 1516481429492}], "data": [{"current_trial": 0, "trialdata": {"rt": 525329, "trial_type": "text", "internal_node_id": "0.0-0.0", "time_elapsed": 525330, "key_press": 32, "type": "INSTRUCTIONS", "trial_index": 0}, "uniqueid": "MTK1850:3RKNTXVS3N5HG51VK1JZX4MVWP74AU", "dateTime": 1516480879598}, {"current_trial": 1, "trialdata": {"rt": 541273, "trial_type": "text", "internal_node_id": "0.0-1.0", "time_elapsed": 1066605, "key_press": 32, "type": "INSTRUCTIONS", "trial_index": 1}, "uniqueid": "MTK1850:3RKNTXVS3N5HG51VK1JZX4MVWP74AU", "dateTime": 1516481420872}, {"current_trial": 2, "trialdata": {"rt": [5950, 13945], "trial_type": "audio-test", "responses": ["oceano", "ocean"], "internal_node_id": "0.0-2.0", "time_elapsed": 1080562, "type": "AUDIO_TEST", "trial_index": 2}, "uniqueid": "MTK1850:3RKNTXVS3N5HG51VK1JZX4MVWP74AU", "dateTime": 1516481434830}, {"current_trial": 3, "trialdata": {"rt": [4704], "trial_type": "audio-test", "responses": ["crystal"], "internal_node_id": "0.0-3.0", "time_elapsed": 1085271, "type": "AUDIO_TEST", "trial_index": 3}, "uniqueid": "MTK1850:3RKNTXVS3N5HG51VK1JZX4MVWP74AU", "dateTime": 1516481439538}, {"current_trial": 4, "trialdata": {"rt": [3002], "trial_type": "audio-test", "responses": ["spice"], "internal_node_id": "0.0-4.0", "time_elapsed": 1088279, "type": "AUDIO_TEST", "trial_index": 4}, "uniqueid": "MTK1850:3RKNTXVS3N5HG51VK1JZX4MVWP74AU", "dateTime": 1516481442546}, {"current_trial": 5, "trialdata": {"rt": 15113, "trial_type": "survey-text", "responses": "{\"Q0\":\"11 PM\",\"Q1\":\"8 AM\",\"Q2\":\"5\"}", "internal_node_id": "0.0-5.0", "time_elapsed": 1104149, "type": "SLEEP_SURVEY", "trial_index": 5}, "uniqueid": "MTK1850:3RKNTXVS3N5HG51VK1JZX4MVWP74AU", "dateTime": 1516481458416}, {"current_trial": 6, "trialdata": {"rt": 19276, "trial_type": "text", "internal_node_id": "0.0-6.0", "time_elapsed": 1124429, "key_press": 32, "type": "INSTRUCTIONS", "trial_index": 6}, "uniqueid": "MTK1850:3RKNTXVS3N5HG51VK1JZX4MVWP74AU", "dateTime": 1516481478696}, {"current_trial": 7, "trialdata": {"rt": 9856, "trial_type": "text", "internal_node_id": "0.0-7.0", "time_elapsed": 1134788, "key_press": 32, "type": "INSTRUCTIONS", "trial_index": 7}, "uniqueid": "MTK1850:3RKNTXVS3N5HG51VK1JZX4MVWP74AU", "dateTime": 1516481489055}, {"current_trial": 8, "trialdata": {"rt": 3795, "trial_type": "text", "internal_node_id": "0.0-8.0", "time_elapsed": 1139088, "key_press": 32, "type": "INSTRUCTIONS", "trial_index": 8}, "uniqueid": "MTK1850:3RKNTXVS3N5HG51VK1JZX4MVWP74AU", "dateTime": 1516481493355}, {"current_trial": 9, "trialdata": {"rt": [2426, 4774, 13403, 17003], "trial_type": "math-distractor", "key_times": [2059, 2130, 2426, 4219, 4554, 4774, 13276, 13323, 13403, 16878, 16898, 17003], "responses": ["13", "16", "21", "23"], "num2": [4, 6, 9, 9, 9], "num3": [8, 8, 7, 6, 4], "conditions": [18, 1200, "v", 18000], "internal_node_id": "0.0-9.0", "key_presses": [49, 51, 13, 49, 54, 13, 50, 49, 13, 50, 51, 13], "trial": 0, "time_elapsed": 1158101, "type": "DISTRACTOR", "trial_index": 9, "num1": [1, 2, 5, 8, 2]}, "uniqueid": "MTK1850:3RKNTXVS3N5HG51VK1JZX4MVWP74AU", "dateTime": 1516481512368}, {"current_trial": 10, "trialdata": {"rt": -1, "trial_type": "single-stim", "stimulus": "<p id=\"stim\">10</p>", "internal_node_id": "0.0-10.0-0.0", "time_elapsed": 1161108, "key_press": -1, "trial_index": 10}, "uniqueid": "MTK1850:3RKNTXVS3N5HG51VK1JZX4MVWP74AU", "dateTime": 1516481515375}, {"current_trial": 11, "trialdata": {"rt": -1, "trial_type": "single-stim", "stimulus": "<p id=\"stim\">9</p>", "internal_node_id": "0.0-10.0-1.0", "time_elapsed": 1162112, "key_press": -1, "trial_index": 11}, "uniqueid": "MTK1850:3RKNTXVS3N5HG51VK1JZX4MVWP74AU", "dateTime": 1516481516379}, {"current_trial": 12, "trialdata": {"rt": -1, "trial_type": "single-stim", "stimulus": "<p id=\"stim\">8</p>", "internal_node_id": "0.0-10.0-2.0", "time_elapsed": 1163116, "key_press": -1, "trial_index": 12}, "uniqueid": "MTK1850:3RKNTXVS3N5HG51VK1JZX4MVWP74AU", "dateTime": 1516481517383}, {"current_trial": 13, "trialdata": {"rt": -1, "trial_type": "single-stim", "stimulus": "<p id=\"stim\">7</p>", "internal_node_id": "0.0-10.0-3.0", "time_elapsed": 1164121, "key_press": -1, "trial_index": 13}, "uniqueid": "MTK1850:3RKNTXVS3N5HG51VK1JZX4MVWP74AU", "dateTime": 1516481518388}, {"current_trial": 14, "trialdata": {"rt": -1, "trial_type": "single-stim", "stimulus": "<p id=\"stim\">6</p>", "internal_node_id": "0.0-10.0-4.0", "time_elapsed": 1165127, "key_press": -1, "trial_index": 14}, "uniqueid": "MTK1850:3RKNTXVS3N5HG51VK1JZX4MVWP74AU", "dateTime": 1516481519394}, {"current_trial": 15, "trialdata": {"rt": -1, "trial_type": "single-stim", "stimulus": "<p id=\"stim\">5</p>", "internal_node_id": "0.0-10.0-5.0", "time_elapsed": 1166133, "key_press": -1, "trial_index": 15}, "uniqueid": "MTK1850:3RKNTXVS3N5HG51VK1JZX4MVWP74AU", "dateTime": 1516481520400}, {"current_trial": 16, "trialdata": {"rt": -1, "trial_type": "single-stim", "stimulus": "<p id=\"stim\">4</p>", "internal_node_id": "0.0-10.0-6.0", "time_elapsed": 1167138, "key_press": -1, "trial_index": 16}, "uniqueid": "MTK1850:3RKNTXVS3N5HG51VK1JZX4MVWP74AU", "dateTime": 1516481521405}, {"current_trial": 17, "trialdata": {"rt": -1, "trial_type": "single-stim", "stimulus": "<p id=\"stim\">3</p>", "internal_node_id": "0.0-10.0-7.0", "time_elapsed": 1168142, "key_press": -1, "trial_index": 17}, "uniqueid": "MTK1850:3RKNTXVS3N5HG51VK1JZX4MVWP74AU", "dateTime": 1516481522409}, {"current_trial": 18, "trialdata": {"rt": -1, "trial_type": "single-stim", "stimulus": "<p id=\"stim\">2</p>", "internal_node_id": "0.0-10.0-8.0", "time_elapsed": 1169146, "key_press": -1, "trial_index": 18}, "uniqueid": "MTK1850:3RKNTXVS3N5HG51VK1JZX4MVWP74AU", "dateTime": 1516481523413}, {"current_trial": 19, "trialdata": {"rt": -1, "trial_type": "single-stim", "stimulus": "<p id=\"stim\">1</p>", "internal_node_id": "0.0-10.0-9.0", "time_elapsed": 1170150, "key_press": -1, "trial_index": 19}, "uniqueid": "MTK1850:3RKNTXVS3N5HG51VK1JZX4MVWP74AU", "dateTime": 1516481524417}, {"current_trial": 20, "trialdata": {"rt": -1, "trial_type": "single-stim", "stimulus": "<p id=\"stim\">+</p>", "internal_node_id": "0.0-11.0-0.0", "time_elapsed": 1171651, "key_press": -1, "type": "FIXATION", "trial_index": 20}, "uniqueid": "MTK1850:3RKNTXVS3N5HG51VK1JZX4MVWP74AU", "dateTime": 1516481525918}, {"current_trial": 21, "trialdata": {"rt": -1, "trial_type": "single-stim", "word": "sticker", "stimulus": "<p id=\"stim\">STICKER</p>", "conditions": [18, 1200, "v", 18000], "internal_node_id": "0.0-12.0", "trial": 0, "time_elapsed": 1172855, "serialpos": 0, "key_press": -1, "wordID": 1381, "type": "PRES_VIS", "trial_index": 21}, "uniqueid": "MTK1850:3RKNTXVS3N5HG51VK1JZX4MVWP74AU", "dateTime": 1516481527122}, {"current_trial": 22, "trialdata": {"rt": -1, "trial_type": "single-stim", "word": "patient", "stimulus": "<p id=\"stim\">PATIENT</p>", "conditions": [18, 1200, "v", 18000], "internal_node_id": "0.0-13.0", "trial": 0, "time_elapsed": 1175194, "serialpos": 1, "key_press": -1, "wordID": 1023, "type": "PRES_VIS", "trial_index": 22}, "uniqueid": "MTK1850:3RKNTXVS3N5HG51VK1JZX4MVWP74AU", "dateTime": 1516481529461}, {"current_trial": 23, "trialdata": {"rt": -1, "trial_type": "single-stim", "word": "hood", "stimulus": "<p id=\"stim\">HOOD</p>", "conditions": [18, 1200, "v", 18000], "internal_node_id": "0.0-14.0", "trial": 0, "time_elapsed": 1177451, "serialpos": 2, "key_press": -1, "wordID": 713, "type": "PRES_VIS", "trial_index": 23}, "uniqueid": "MTK1850:3RKNTXVS3N5HG51VK1JZX4MVWP74AU", "dateTime": 1516481531718}, {"current_trial": 24, "trialdata": {"rt": -1, "trial_type": "single-stim", "word": "paper", "stimulus": "<p id=\"stim\">PAPER</p>", "conditions": [18, 1200, "v", 18000], "internal_node_id": "0.0-15.0", "trial": 0, "time_elapsed": 1179674, "serialpos": 3, "key_press": -1, "wordID": 1010, "type": "PRES_VIS", "trial_index": 24}, "uniqueid": "MTK1850:3RKNTXVS3N5HG51VK1JZX4MVWP74AU", "dateTime": 1516481533941}, {"current_trial": 25, "trialdata": {"rt": -1, "trial_type": "single-stim", "word": "scalpel", "stimulus": "<p id=\"stim\">SCALPEL</p>", "conditions": [18, 1200, "v", 18000], "internal_node_id": "0.0-16.0", "trial": 0, "time_elapsed": 1181862, "serialpos": 4, "key_press": -1, "wordID": 1242, "type": "PRES_VIS", "trial_index": 25}, "uniqueid": "MTK1850:3RKNTXVS3N5HG51VK1JZX4MVWP74AU", "dateTime": 1516481536129}, {"current_trial": 26, "trialdata": {"rt": -1, "trial_type": "single-stim", "word": "slide", "stimulus": "<p id=\"stim\">SLIDE</p>", "conditions": [18, 1200, "v", 18000], "internal_node_id": "0.0-17.0", "trial": 0, "time_elapsed": 1184219, "serialpos": 5, "key_press": -1, "wordID": 1325, "type": "PRES_VIS", "trial_index": 26}, "uniqueid": "MTK1850:3RKNTXVS3N5HG51VK1JZX4MVWP74AU", "dateTime": 1516481538486}, {"current_trial": 27, "trialdata": {"rt": -1, "trial_type": "single-stim", "word": "sibling", "stimulus": "<p id=\"stim\">SIBLING</p>", "conditions": [18, 1200, "v", 18000], "internal_node_id": "0.0-18.0", "trial": 0, "time_elapsed": 1186471, "serialpos": 6, "key_press": -1, "wordID": 1300, "type": "PRES_VIS", "trial_index": 27}, "uniqueid": "MTK1850:3RKNTXVS3N5HG51VK1JZX4MVWP74AU", "dateTime": 1516481540738}, {"current_trial": 28, "trialdata": {"rt": -1, "trial_type": "single-stim", "word": "ketchup", "stimulus": "<p id=\"stim\">KETCHUP</p>", "conditions": [18, 1200, "v", 18000], "internal_node_id": "0.0-19.0", "trial": 0, "time_elapsed": 1188856, "serialpos": 7, "key_press": -1, "wordID": 770, "type": "PRES_VIS", "trial_index": 28}, "uniqueid": "MTK1850:3RKNTXVS3N5HG51VK1JZX4MVWP74AU", "dateTime": 1516481543123}, {"current_trial": 29, "trialdata": {"rt": -1, "trial_type": "single-stim", "word": "couch", "stimulus": "<p id=\"stim\">COUCH</p>", "conditions": [18, 1200, "v", 18000], "internal_node_id": "0.0-20.0", "trial": 0, "time_elapsed": 1191090, "serialpos": 8, "key_press": -1, "wordID": 385, "type": "PRES_VIS", "trial_index": 29}, "uniqueid": "MTK1850:3RKNTXVS3N5HG51VK1JZX4MVWP74AU", "dateTime": 1516481545358}, {"current_trial": 30, "trialdata": {"rt": -1, "trial_type": "single-stim", "word": "jello", "stimulus": "<p id=\"stim\">JELLO</p>", "conditions": [18, 1200, "v", 18000], "internal_node_id": "0.0-21.0", "trial": 0, "time_elapsed": 1193325, "serialpos": 9, "key_press": -1, "wordID": 753, "type": "PRES_VIS", "trial_index": 30}, "uniqueid": "MTK1850:3RKNTXVS3N5HG51VK1JZX4MVWP74AU", "dateTime": 1516481547592}, {"current_trial": 31, "trialdata": {"rt": -1, "trial_type": "single-stim", "word": "beef", "stimulus": "<p id=\"stim\">BEEF</p>", "conditions": [18, 1200, "v", 18000], "internal_node_id": "0.0-22.0", "trial": 0, "time_elapsed": 1195722, "serialpos": 10, "key_press": -1, "wordID": 112, "type": "PRES_VIS", "trial_index": 31}, "uniqueid": "MTK1850:3RKNTXVS3N5HG51VK1JZX4MVWP74AU", "dateTime": 1516481549989}, {"current_trial": 32, "trialdata": {"rt": -1, "trial_type": "single-stim", "word": "pigment", "stimulus": "<p id=\"stim\">PIGMENT</p>", "conditions": [18, 1200, "v", 18000], "internal_node_id": "0.0-23.0", "trial": 0, "time_elapsed": 1197765, "serialpos": 11, "key_press": -1, "wordID": 1065, "type": "PRES_VIS", "trial_index": 32}, "uniqueid": "MTK1850:3RKNTXVS3N5HG51VK1JZX4MVWP74AU", "dateTime": 1516481552032}, {"current_trial": 33, "trialdata": {"rt": -1, "trial_type": "single-stim", "word": "wrist", "stimulus": "<p id=\"stim\">WRIST</p>", "conditions": [18, 1200, "v", 18000], "internal_node_id": "0.0-24.0", "trial": 0, "time_elapsed": 1200139, "serialpos": 12, "key_press": -1, "wordID": 1625, "type": "PRES_VIS", "trial_index": 33}, "uniqueid": "MTK1850:3RKNTXVS3N5HG51VK1JZX4MVWP74AU", "dateTime": 1516481554406}, {"current_trial": 34, "trialdata": {"rt": -1, "trial_type": "single-stim", "word": "umpire", "stimulus": "<p id=\"stim\">UMPIRE</p>", "conditions": [18, 1200, "v", 18000], "internal_node_id": "0.0-25.0", "trial": 0, "time_elapsed": 1202257, "serialpos": 13, "key_press": -1, "wordID": 1534, "type": "PRES_VIS", "trial_index": 34}, "uniqueid": "MTK1850:3RKNTXVS3N5HG51VK1JZX4MVWP74AU", "dateTime": 1516481556524}, {"current_trial": 35, "trialdata": {"rt": -1, "trial_type": "single-stim", "word": "queen", "stimulus": "<p id=\"stim\">QUEEN</p>", "conditions": [18, 1200, "v", 18000], "internal_node_id": "0.0-26.0", "trial": 0, "time_elapsed": 1204434, "serialpos": 14, "key_press": -1, "wordID": 1148, "type": "PRES_VIS", "trial_index": 35}, "uniqueid": "MTK1850:3RKNTXVS3N5HG51VK1JZX4MVWP74AU", "dateTime": 1516481558702}, {"current_trial": 36, "trialdata": {"rt": -1, "trial_type": "single-stim", "word": "canyon", "stimulus": "<p id=\"stim\">CANYON</p>", "conditions": [18, 1200, "v", 18000], "internal_node_id": "0.0-27.0", "trial": 0, "time_elapsed": 1206546, "serialpos": 15, "key_press": -1, "wordID": 234, "type": "PRES_VIS", "trial_index": 36}, "uniqueid": "MTK1850:3RKNTXVS3N5HG51VK1JZX4MVWP74AU", "dateTime": 1516481560813}, {"current_trial": 37, "trialdata": {"rt": -1, "trial_type": "single-stim", "word": "napkin", "stimulus": "<p id=\"stim\">NAPKIN</p>", "conditions": [18, 1200, "v", 18000], "internal_node_id": "0.0-28.0", "trial": 0, "time_elapsed": 1208850, "serialpos": 16, "key_press": -1, "wordID": 936, "type": "PRES_VIS", "trial_index": 37}, "uniqueid": "MTK1850:3RKNTXVS3N5HG51VK1JZX4MVWP74AU", "dateTime": 1516481563117}, {"current_trial": 38, "trialdata": {"rt": -1, "trial_type": "single-stim", "word": "burglar", "stimulus": "<p id=\"stim\">BURGLAR</p>", "conditions": [18, 1200, "v", 18000], "internal_node_id": "0.0-29.0", "trial": 0, "time_elapsed": 1211119, "serialpos": 17, "key_press": -1, "wordID": 199, "type": "PRES_VIS", "trial_index": 38}, "uniqueid": "MTK1850:3RKNTXVS3N5HG51VK1JZX4MVWP74AU", "dateTime": 1516481565386}, {"current_trial": 39, "trialdata": {"rt": -1, "trial_type": "single-stim", "stimulus": "", "internal_node_id": "0.0-30.0-0.0", "time_elapsed": 1213372, "key_press": -1, "type": "PRE_RECALL_DELAY", "trial_index": 39}, "uniqueid": "MTK1850:3RKNTXVS3N5HG51VK1JZX4MVWP74AU", "dateTime": 1516481567639}, {"current_trial": 40, "trialdata": {"rt": -1000, "trial_type": "single-audio", "stimulus": "/static/audio/400Hz.wav", "internal_node_id": "0.0-31.0", "time_elapsed": 1213874, "key_press": -1, "type": "PRE_RECALL_ALERT", "trial_index": 40}, "uniqueid": "MTK1850:3RKNTXVS3N5HG51VK1JZX4MVWP74AU", "dateTime": 1516481568141}], "currenttrial": 41, "condition": 0, "mode": "live"}