{"condition": 0, "counterbalance": 430, "assignmentId": "3HWRJOOET69383KIQ7H3RQSSRMWSE8", "workerId": "MTK1052", "hitId": "3CIS7GGG65QH0WESPA71H7EWWA6EUQ", "currenttrial": 619, "bonus": 0, "data": [{"uniqueid": "MTK1052:3HWRJOOET69383KIQ7H3RQSSRMWSE8", "current_trial": 0, "dateTime": 1513017601572, "trialdata": {"rt": 2143, "key_press": 13, "type": "INSTRUCTIONS", "trial_type": "text", "trial_index": 0, "time_elapsed": 2145, "internal_node_id": "0.0-0.0"}}, {"uniqueid": "MTK1052:3HWRJOOET69383KIQ7H3RQSSRMWSE8", "current_trial": 1, "dateTime": 1513017606005, "trialdata": {"rt": 4430, "key_press": 175, "type": "INSTRUCTIONS", "trial_type": "text", "trial_index": 1, "time_elapsed": 6578, "internal_node_id": "0.0-1.0"}}, {"uniqueid": "MTK1052:3HWRJOOET69383KIQ7H3RQSSRMWSE8", "current_trial": 2, "dateTime": 1513017625643, "trialdata": {"rt": [19626], "responses": ["ocean"], "type": "AUDIO_TEST", "trial_type": "audio-test", "trial_index": 2, "time_elapsed": 26217, "internal_node_id": "0.0-2.0"}}, {"uniqueid": "MTK1052:3HWRJOOET69383KIQ7H3RQSSRMWSE8", "current_trial": 3, "dateTime": 1513017633230, "trialdata": {"rt": [7583], "responses": ["crystal"], "type": "AUDIO_TEST", "trial_type": "audio-test", "trial_index": 3, "time_elapsed": 33804, "internal_node_id": "0.0-3.0"}}, {"uniqueid": "MTK1052:3HWRJOOET69383KIQ7H3RQSSRMWSE8", "current_trial": 4, "dateTime": 1513017637329, "trialdata": {"rt": [4096], "responses": ["spice"], "type": "AUDIO_TEST", "trial_type": "audio-test", "trial_index": 4, "time_elapsed": 37903, "internal_node_id": "0.0-4.0"}}, {"uniqueid": "MTK1052:3HWRJOOET69383KIQ7H3RQSSRMWSE8", "current_trial": 5, "dateTime": 1513017649867, "trialdata": {"rt": 11783, "responses": "{\"Q0\":\"9pm\",\"Q1\":\"7am\",\"Q2\":\"5\"}", "type": "SLEEP_SURVEY", "trial_type": "survey-text", "trial_index": 5, "time_elapsed": 50441, "internal_node_id": "0.0-5.0"}}, {"uniqueid": "MTK1052:3HWRJOOET69383KIQ7H3RQSSRMWSE8", "current_trial": 6, "dateTime": 1513017664811, "trialdata": {"rt": 13941, "key_press": 13, "type": "INSTRUCTIONS", "trial_type": "text", "trial_index": 6, "time_elapsed": 65384, "internal_node_id": "0.0-6.0"}}, {"uniqueid": "MTK1052:3HWRJOOET69383KIQ7H3RQSSRMWSE8", "current_trial": 7, "dateTime": 1513017672096, "trialdata": {"rt": 6783, "key_press": 13, "type": "INSTRUCTIONS", "trial_type": "text", "trial_index": 7, "time_elapsed": 72670, "internal_node_id": "0.0-7.0"}}, {"uniqueid": "MTK1052:3HWRJOOET69383KIQ7H3RQSSRMWSE8", "current_trial": 8, "dateTime": 1513017677599, "trialdata": {"rt": 5001, "key_press": 13, "type": "INSTRUCTIONS", "trial_type": "text", "trial_index": 8, "time_elapsed": 78173, "internal_node_id": "0.0-8.0"}}, {"uniqueid": "MTK1052:3HWRJOOET69383KIQ7H3RQSSRMWSE8", "current_trial": 9, "dateTime": 1513017696610, "trialdata": {"rt": [4502, 7421, 11462, 13300, 15224, 17717], "responses": ["22", "9", "21", "7", "15", "19"], "num1": [7, 1, 5, 1, 6, 7, 2], "num2": [6, 4, 7, 5, 1, 7, 3], "num3": [9, 4, 9, 1, 8, 5, 7], "type": "DISTRACTOR", "conditions": [18, 1200, "a", 18000], "trial": 0, "trial_type": "math-distractor", "trial_index": 9, "time_elapsed": 97183, "internal_node_id": "0.0-9.0"}}, {"uniqueid": "MTK1052:3HWRJOOET69383KIQ7H3RQSSRMWSE8", "current_trial": 10, "dateTime": 1513017699614, "trialdata": {"rt": -1, "stimulus": "<p id=\"stim\">10</p>", "key_press": -1, "trial_type": "single-stim", "trial_index": 10, "time_elapsed": 100188, "internal_node_id": "0.0-10.0-0.0"}}, {"uniqueid": "MTK1052:3HWRJOOET69383KIQ7H3RQSSRMWSE8", "current_trial": 11, "dateTime": 1513017700616, "trialdata": {"rt": -1, "stimulus": "<p id=\"stim\">9</p>", "key_press": -1, "trial_type": "single-stim", "trial_index": 11, "time_elapsed": 101190, "internal_node_id": "0.0-10.0-1.0"}}, {"uniqueid": "MTK1052:3HWRJOOET69383KIQ7H3RQSSRMWSE8", "current_trial": 12, "dateTime": 1513017701619, "trialdata": {"rt": -1, "stimulus": "<p id=\"stim\">8</p>", "key_press": -1, "trial_type": "single-stim", "trial_index": 12, "time_elapsed": 102193, "internal_node_id": "0.0-10.0-2.0"}}, {"uniqueid": "MTK1052:3HWRJOOET69383KIQ7H3RQSSRMWSE8", "current_trial": 13, "dateTime": 1513017702622, "trialdata": {"rt": -1, "stimulus": "<p id=\"stim\">7</p>", "key_press": -1, "trial_type": "single-stim", "trial_index": 13, "time_elapsed": 103195, "internal_node_id": "0.0-10.0-3.0"}}, {"uniqueid": "MTK1052:3HWRJOOET69383KIQ7H3RQSSRMWSE8", "current_trial": 14, "dateTime": 1513017703624, "trialdata": {"rt": -1, "stimulus": "<p id=\"stim\">6</p>", "key_press": -1, "trial_type": "single-stim", "trial_index": 14, "time_elapsed": 104198, "internal_node_id": "0.0-10.0-4.0"}}, {"uniqueid": "MTK1052:3HWRJOOET69383KIQ7H3RQSSRMWSE8", "current_trial": 15, "dateTime": 1513017704627, "trialdata": {"rt": -1, "stimulus": "<p id=\"stim\">5</p>", "key_press": -1, "trial_type": "single-stim", "trial_index": 15, "time_elapsed": 105201, "internal_node_id": "0.0-10.0-5.0"}}, {"uniqueid": "MTK1052:3HWRJOOET69383KIQ7H3RQSSRMWSE8", "current_trial": 16, "dateTime": 1513017705629, "trialdata": {"rt": -1, "stimulus": "<p id=\"stim\">4</p>", "key_press": -1, "trial_type": "single-stim", "trial_index": 16, "time_elapsed": 106202, "internal_node_id": "0.0-10.0-6.0"}}, {"uniqueid": "MTK1052:3HWRJOOET69383KIQ7H3RQSSRMWSE8", "current_trial": 17, "dateTime": 1513017706632, "trialdata": {"rt": -1, "stimulus": "<p id=\"stim\">3</p>", "key_press": -1, "trial_type": "single-stim", "trial_index": 17, "time_elapsed": 107205, "internal_node_id": "0.0-10.0-7.0"}}, {"uniqueid": "MTK1052:3HWRJOOET69383KIQ7H3RQSSRMWSE8", "current_trial": 18, "dateTime": 1513017707633, "trialdata": {"rt": -1, "stimulus": "<p id=\"stim\">2</p>", "key_press": -1, "trial_type": "single-stim", "trial_index": 18, "time_elapsed": 108206, "internal_node_id": "0.0-10.0-8.0"}}, {"uniqueid": "MTK1052:3HWRJOOET69383KIQ7H3RQSSRMWSE8", "current_trial": 19, "dateTime": 1513017708635, "trialdata": {"rt": -1, "stimulus": "<p id=\"stim\">1</p>", "key_press": -1, "trial_type": "single-stim", "trial_index": 19, "time_elapsed": 109208, "internal_node_id": "0.0-10.0-9.0"}}, {"uniqueid": "MTK1052:3HWRJOOET69383KIQ7H3RQSSRMWSE8", "current_trial": 20, "dateTime": 1513017710137, "trialdata": {"rt": -1, "stimulus": "<p id=\"stim\">+</p>", "key_press": -1, "type": "FIXATION", "trial_type": "single-stim", "trial_index": 20, "time_elapsed": 110711, "internal_node_id": "0.0-11.0-0.0"}}, {"uniqueid": "MTK1052:3HWRJOOET69383KIQ7H3RQSSRMWSE8", "current_trial": 21, "dateTime": 1513017712326, "trialdata": {"rt": -1000, "stimulus": "/static/audio/wordpool/CREATURE.wav", "key_press": -1, "type": "PRES_AUD", "word": "creature", "wordID": 402, "conditions": [18, 1200, "a", 18000], "trial": 0, "serialpos": 0, "trial_type": "single-audio", "trial_index": 21, "time_elapsed": 112900, "internal_node_id": "0.0-12.0"}}, {"uniqueid": "MTK1052:3HWRJOOET69383KIQ7H3RQSSRMWSE8", "current_trial": 22, "dateTime": 1513017714736, "trialdata": {"rt": -1000, "stimulus": "/static/audio/wordpool/TUNNEL.wav", "key_press": -1, "type": "PRES_AUD", "word": "tunnel", "wordID": 1518, "conditions": [18, 1200, "a", 18000], "trial": 0, "serialpos": 1, "trial_type": "single-audio", "trial_index": 22, "time_elapsed": 115310, "internal_node_id": "0.0-13.0"}}, {"uniqueid": "MTK1052:3HWRJOOET69383KIQ7H3RQSSRMWSE8", "current_trial": 23, "dateTime": 1513017716754, "trialdata": {"rt": -1000, "stimulus": "/static/audio/wordpool/FRAME.wav", "key_press": -1, "type": "PRES_AUD", "word": "frame", "wordID": 599, "conditions": [18, 1200, "a", 18000], "trial": 0, "serialpos": 2, "trial_type": "single-audio", "trial_index": 23, "time_elapsed": 117328, "internal_node_id": "0.0-14.0"}}, {"uniqueid": "MTK1052:3HWRJOOET69383KIQ7H3RQSSRMWSE8", "current_trial": 24, "dateTime": 1513017719110, "trialdata": {"rt": -1000, "stimulus": "/static/audio/wordpool/CARRIAGE.wav", "key_press": -1, "type": "PRES_AUD", "word": "carriage", "wordID": 247, "conditions": [18, 1200, "a", 18000], "trial": 0, "serialpos": 3, "trial_type": "single-audio", "trial_index": 24, "time_elapsed": 119684, "internal_node_id": "0.0-15.0"}}, {"uniqueid": "MTK1052:3HWRJOOET69383KIQ7H3RQSSRMWSE8", "current_trial": 25, "dateTime": 1513017721191, "trialdata": {"rt": -1000, "stimulus": "/static/audio/wordpool/GROUND.wav", "key_press": -1, "type": "PRES_AUD", "word": "ground", "wordID": 665, "conditions": [18, 1200, "a", 18000], "trial": 0, "serialpos": 4, "trial_type": "single-audio", "trial_index": 25, "time_elapsed": 121765, "internal_node_id": "0.0-16.0"}}, {"uniqueid": "MTK1052:3HWRJOOET69383KIQ7H3RQSSRMWSE8", "current_trial": 26, "dateTime": 1513017723279, "trialdata": {"rt": -1000, "stimulus": "/static/audio/wordpool/DRESS.wav", "key_press": -1, "type": "PRES_AUD", "word": "dress", "wordID": 494, "conditions": [18, 1200, "a", 18000], "trial": 0, "serialpos": 5, "trial_type": "single-audio", "trial_index": 26, "time_elapsed": 123853, "internal_node_id": "0.0-17.0"}}, {"uniqueid": "MTK1052:3HWRJOOET69383KIQ7H3RQSSRMWSE8", "current_trial": 27, "dateTime": 1513017725315, "trialdata": {"rt": -1000, "stimulus": "/static/audio/wordpool/GRILL.wav", "key_press": -1, "type": "PRES_AUD", "word": "grill", "wordID": 660, "conditions": [18, 1200, "a", 18000], "trial": 0, "serialpos": 6, "trial_type": "single-audio", "trial_index": 27, "time_elapsed": 125888, "internal_node_id": "0.0-18.0"}}, {"uniqueid": "MTK1052:3HWRJOOET69383KIQ7H3RQSSRMWSE8", "current_trial": 28, "dateTime": 1513017727569, "trialdata": {"rt": -1000, "stimulus": "/static/audio/wordpool/LONDON.wav", "key_press": -1, "type": "PRES_AUD", "word": "london", "wordID": 842, "conditions": [18, 1200, "a", 18000], "trial": 0, "serialpos": 7, "trial_type": "single-audio", "trial_index": 28, "time_elapsed": 128143, "internal_node_id": "0.0-19.0"}}, {"uniqueid": "MTK1052:3HWRJOOET69383KIQ7H3RQSSRMWSE8", "current_trial": 29, "dateTime": 1513017729705, "trialdata": {"rt": -1000, "stimulus": "/static/audio/wordpool/BABY.wav", "key_press": -1, "type": "PRES_AUD", "word": "baby", "wordID": 63, "conditions": [18, 1200, "a", 18000], "trial": 0, "serialpos": 8, "trial_type": "single-audio", "trial_index": 29, "time_elapsed": 130279, "internal_node_id": "0.0-20.0"}}, {"uniqueid": "MTK1052:3HWRJOOET69383KIQ7H3RQSSRMWSE8", "current_trial": 30, "dateTime": 1513017731984, "trialdata": {"rt": -1000, "stimulus": "/static/audio/wordpool/HIKER.wav", "key_press": -1, "type": "PRES_AUD", "word": "hiker", "wordID": 707, "conditions": [18, 1200, "a", 18000], "trial": 0, "serialpos": 9, "trial_type": "single-audio", "trial_index": 30, "time_elapsed": 132558, "internal_node_id": "0.0-21.0"}}, {"uniqueid": "MTK1052:3HWRJOOET69383KIQ7H3RQSSRMWSE8", "current_trial": 31, "dateTime": 1513017734149, "trialdata": {"rt": -1000, "stimulus": "/static/audio/wordpool/BROOK.wav", "key_press": -1, "type": "PRES_AUD", "word": "brook", "wordID": 176, "conditions": [18, 1200, "a", 18000], "trial": 0, "serialpos": 10, "trial_type": "single-audio", "trial_index": 31, "time_elapsed": 134723, "internal_node_id": "0.0-22.0"}}, {"uniqueid": "MTK1052:3HWRJOOET69383KIQ7H3RQSSRMWSE8", "current_trial": 32, "dateTime": 1513017736194, "trialdata": {"rt": -1000, "stimulus": "/static/audio/wordpool/POSTAGE.wav", "key_press": -1, "type": "PRES_AUD", "word": "postage", "wordID": 1112, "conditions": [18, 1200, "a", 18000], "trial": 0, "serialpos": 11, "trial_type": "single-audio", "trial_index": 32, "time_elapsed": 136768, "internal_node_id": "0.0-23.0"}}, {"uniqueid": "MTK1052:3HWRJOOET69383KIQ7H3RQSSRMWSE8", "current_trial": 33, "dateTime": 1513017738255, "trialdata": {"rt": -1000, "stimulus": "/static/audio/wordpool/GRAVE.wav", "key_press": -1, "type": "PRES_AUD", "word": "grave", "wordID": 657, "conditions": [18, 1200, "a", 18000], "trial": 0, "serialpos": 12, "trial_type": "single-audio", "trial_index": 33, "time_elapsed": 138829, "internal_node_id": "0.0-24.0"}}, {"uniqueid": "MTK1052:3HWRJOOET69383KIQ7H3RQSSRMWSE8", "current_trial": 34, "dateTime": 1513017746666, "trialdata": {"rt": -1000, "stimulus": "/static/audio/wordpool/WHISKERS.wav", "key_press": -1, "type": "PRES_AUD", "word": "whiskers", "wordID": 1604, "conditions": [18, 1200, "a", 18000], "trial": 0, "serialpos": 13, "trial_type": "single-audio", "trial_index": 34, "time_elapsed": 147240, "internal_node_id": "0.0-25.0"}}, {"uniqueid": "MTK1052:3HWRJOOET69383KIQ7H3RQSSRMWSE8", "current_trial": 35, "dateTime": 1513017749004, "trialdata": {"rt": -1000, "stimulus": "/static/audio/wordpool/COMET.wav", "key_press": -1, "type": "PRES_AUD", "word": "comet", "wordID": 352, "conditions": [18, 1200, "a", 18000], "trial": 0, "serialpos": 14, "trial_type": "single-audio", "trial_index": 35, "time_elapsed": 149578, "internal_node_id": "0.0-26.0"}}, {"uniqueid": "MTK1052:3HWRJOOET69383KIQ7H3RQSSRMWSE8", "current_trial": 36, "dateTime": 1513017751369, "trialdata": {"rt": -1000, "stimulus": "/static/audio/wordpool/PERMIT.wav", "key_press": -1, "type": "PRES_AUD", "word": "permit", "wordID": 1050, "conditions": [18, 1200, "a", 18000], "trial": 0, "serialpos": 15, "trial_type": "single-audio", "trial_index": 36, "time_elapsed": 151943, "internal_node_id": "0.0-27.0"}}, {"uniqueid": "MTK1052:3HWRJOOET69383KIQ7H3RQSSRMWSE8", "current_trial": 37, "dateTime": 1513017753417, "trialdata": {"rt": -1000, "stimulus": "/static/audio/wordpool/XEROX.wav", "key_press": -1, "type": "PRES_AUD", "word": "xerox", "wordID": 1627, "conditions": [18, 1200, "a", 18000], "trial": 0, "serialpos": 16, "trial_type": "single-audio", "trial_index": 37, "time_elapsed": 153991, "internal_node_id": "0.0-28.0"}}, {"uniqueid": "MTK1052:3HWRJOOET69383KIQ7H3RQSSRMWSE8", "current_trial": 38, "dateTime": 1513017755521, "trialdata": {"rt": -1000, "stimulus": "/static/audio/wordpool/HAWK.wav", "key_press": -1, "type": "PRES_AUD", "word": "hawk", "wordID": 691, "conditions": [18, 1200, "a", 18000], "trial": 0, "serialpos": 17, "trial_type": "single-audio", "trial_index": 38, "time_elapsed": 156095, "internal_node_id": "0.0-29.0"}}, {"uniqueid": "MTK1052:3HWRJOOET69383KIQ7H3RQSSRMWSE8", "current_trial": 39, "dateTime": 1513017756891, "trialdata": {"rt": -1, "stimulus": "", "key_press": -1, "type": "PRE_RECALL_DELAY", "trial_type": "single-stim", "trial_index": 39, "time_elapsed": 157465, "internal_node_id": "0.0-30.0-0.0"}}, {"uniqueid": "MTK1052:3HWRJOOET69383KIQ7H3RQSSRMWSE8", "current_trial": 40, "dateTime": 1513017757378, "trialdata": {"rt": -1000, "stimulus": "/static/audio/400Hz.wav", "key_press": -1, "type": "PRE_RECALL_ALERT", "trial_type": "single-audio", "trial_index": 40, "time_elapsed": 157952, "internal_node_id": "0.0-31.0"}}, {"uniqueid": "MTK1052:3HWRJOOET69383KIQ7H3RQSSRMWSE8", "current_trial": 41, "dateTime": 1513017818343, "trialdata": {"rt": [6929, 9126, 11066, 12814, 15206], "recwords": ["creature", "tunnel", "wiskers", "socks", "tunnel"], "type": "FREE_RECALL", "conditions": [18, 1200, "a", 18000], "trial": 0, "trial_type": "free-recall", "trial_index": 41, "time_elapsed": 218910, "internal_node_id": "0.0-32.0-0.0"}}, {"uniqueid": "MTK1052:3HWRJOOET69383KIQ7H3RQSSRMWSE8", "current_trial": 42, "dateTime": 1513017822235, "trialdata": {"rt": 1891, "key_press": 13, "type": "INSTRUCTIONS", "trial_type": "text", "trial_index": 42, "time_elapsed": 222809, "internal_node_id": "0.0-33.0"}}, {"uniqueid": "MTK1052:3HWRJOOET69383KIQ7H3RQSSRMWSE8", "current_trial": 43, "dateTime": 1513017842242, "trialdata": {"rt": [2472, 4082, 5601, 7319, 9136, 10992, 13179, 14717, 17297], "responses": ["13", "12", "18", "12", "7", "11", "12", "18", "23"], "num1": [9, 3, 5, 5, 2, 2, 6, 3, 9, 7], "num2": [2, 7, 5, 3, 2, 1, 1, 7, 9, 8], "num3": [2, 2, 8, 4, 3, 8, 5, 8, 5, 6], "type": "DISTRACTOR", "conditions": [18, 1200, "v", 18000], "trial": 1, "trial_type": "math-distractor", "trial_index": 43, "time_elapsed": 242816, "internal_node_id": "0.0-34.0"}}, {"uniqueid": "MTK1052:3HWRJOOET69383KIQ7H3RQSSRMWSE8", "current_trial": 44, "dateTime": 1513017845246, "trialdata": {"rt": -1, "stimulus": "<p id=\"stim\">10</p>", "key_press": -1, "trial_type": "single-stim", "trial_index": 44, "time_elapsed": 245820, "internal_node_id": "0.0-35.0-0.0"}}, {"uniqueid": "MTK1052:3HWRJOOET69383KIQ7H3RQSSRMWSE8", "current_trial": 45, "dateTime": 1513017846248, "trialdata": {"rt": -1, "stimulus": "<p id=\"stim\">9</p>", "key_press": -1, "trial_type": "single-stim", "trial_index": 45, "time_elapsed": 246822, "internal_node_id": "0.0-35.0-1.0"}}, {"uniqueid": "MTK1052:3HWRJOOET69383KIQ7H3RQSSRMWSE8", "current_trial": 46, "dateTime": 1513017847250, "trialdata": {"rt": -1, "stimulus": "<p id=\"stim\">8</p>", "key_press": -1, "trial_type": "single-stim", "trial_index": 46, "time_elapsed": 247824, "internal_node_id": "0.0-35.0-2.0"}}, {"uniqueid": "MTK1052:3HWRJOOET69383KIQ7H3RQSSRMWSE8", "current_trial": 47, "dateTime": 1513017848252, "trialdata": {"rt": -1, "stimulus": "<p id=\"stim\">7</p>", "key_press": -1, "trial_type": "single-stim", "trial_index": 47, "time_elapsed": 248826, "internal_node_id": "0.0-35.0-3.0"}}, {"uniqueid": "MTK1052:3HWRJOOET69383KIQ7H3RQSSRMWSE8", "current_trial": 48, "dateTime": 1513017849255, "trialdata": {"rt": -1, "stimulus": "<p id=\"stim\">6</p>", "key_press": -1, "trial_type": "single-stim", "trial_index": 48, "time_elapsed": 249829, "internal_node_id": "0.0-35.0-4.0"}}, {"uniqueid": "MTK1052:3HWRJOOET69383KIQ7H3RQSSRMWSE8", "current_trial": 49, "dateTime": 1513017850256, "trialdata": {"rt": -1, "stimulus": "<p id=\"stim\">5</p>", "key_press": -1, "trial_type": "single-stim", "trial_index": 49, "time_elapsed": 250830, "internal_node_id": "0.0-35.0-5.0"}}, {"uniqueid": "MTK1052:3HWRJOOET69383KIQ7H3RQSSRMWSE8", "current_trial": 50, "dateTime": 1513017851258, "trialdata": {"rt": -1, "stimulus": "<p id=\"stim\">4</p>", "key_press": -1, "trial_type": "single-stim", "trial_index": 50, "time_elapsed": 251832, "internal_node_id": "0.0-35.0-6.0"}}, {"uniqueid": "MTK1052:3HWRJOOET69383KIQ7H3RQSSRMWSE8", "current_trial": 51, "dateTime": 1513017852260, "trialdata": {"rt": -1, "stimulus": "<p id=\"stim\">3</p>", "key_press": -1, "trial_type": "single-stim", "trial_index": 51, "time_elapsed": 252834, "internal_node_id": "0.0-35.0-7.0"}}, {"uniqueid": "MTK1052:3HWRJOOET69383KIQ7H3RQSSRMWSE8", "current_trial": 52, "dateTime": 1513017853263, "trialdata": {"rt": -1, "stimulus": "<p id=\"stim\">2</p>", "key_press": -1, "trial_type": "single-stim", "trial_index": 52, "time_elapsed": 253837, "internal_node_id": "0.0-35.0-8.0"}}, {"uniqueid": "MTK1052:3HWRJOOET69383KIQ7H3RQSSRMWSE8", "current_trial": 53, "dateTime": 1513017854265, "trialdata": {"rt": -1, "stimulus": "<p id=\"stim\">1</p>", "key_press": -1, "trial_type": "single-stim", "trial_index": 53, "time_elapsed": 254839, "internal_node_id": "0.0-35.0-9.0"}}, {"uniqueid": "MTK1052:3HWRJOOET69383KIQ7H3RQSSRMWSE8", "current_trial": 54, "dateTime": 1513017855767, "trialdata": {"rt": -1, "stimulus": "<p id=\"stim\">+</p>", "key_press": -1, "type": "FIXATION", "trial_type": "single-stim", "trial_index": 54, "time_elapsed": 256340, "internal_node_id": "0.0-36.0-0.0"}}, {"uniqueid": "MTK1052:3HWRJOOET69383KIQ7H3RQSSRMWSE8", "current_trial": 55, "dateTime": 1513017856969, "trialdata": {"rt": -1, "stimulus": "<p id=\"stim\">APPLE</p>", "key_press": -1, "type": "PRES_VIS", "word": "apple", "wordID": 32, "conditions": [18, 1200, "v", 18000], "trial": 1, "serialpos": 0, "trial_type": "single-stim", "trial_index": 55, "time_elapsed": 257542, "internal_node_id": "0.0-37.0"}}, {"uniqueid": "MTK1052:3HWRJOOET69383KIQ7H3RQSSRMWSE8", "current_trial": 56, "dateTime": 1513017859099, "trialdata": {"rt": -1, "stimulus": "<p id=\"stim\">PASSAGE</p>", "key_press": -1, "type": "PRES_VIS", "word": "passage", "wordID": 1018, "conditions": [18, 1200, "v", 18000], "trial": 1, "serialpos": 1, "trial_type": "single-stim", "trial_index": 56, "time_elapsed": 259672, "internal_node_id": "0.0-38.0"}}, {"uniqueid": "MTK1052:3HWRJOOET69383KIQ7H3RQSSRMWSE8", "current_trial": 57, "dateTime": 1513017861234, "trialdata": {"rt": -1, "stimulus": "<p id=\"stim\">WASHER</p>", "key_press": -1, "type": "PRES_VIS", "word": "washer", "wordID": 1591, "conditions": [18, 1200, "v", 18000], "trial": 1, "serialpos": 2, "trial_type": "single-stim", "trial_index": 57, "time_elapsed": 261807, "internal_node_id": "0.0-39.0"}}, {"uniqueid": "MTK1052:3HWRJOOET69383KIQ7H3RQSSRMWSE8", "current_trial": 58, "dateTime": 1513017863320, "trialdata": {"rt": -1, "stimulus": "<p id=\"stim\">POISON</p>", "key_press": -1, "type": "PRES_VIS", "word": "poison", "wordID": 1095, "conditions": [18, 1200, "v", 18000], "trial": 1, "serialpos": 3, "trial_type": "single-stim", "trial_index": 58, "time_elapsed": 263894, "internal_node_id": "0.0-40.0"}}, {"uniqueid": "MTK1052:3HWRJOOET69383KIQ7H3RQSSRMWSE8", "current_trial": 59, "dateTime": 1513017865600, "trialdata": {"rt": -1, "stimulus": "<p id=\"stim\">MOTOR</p>", "key_press": -1, "type": "PRES_VIS", "word": "motor", "wordID": 921, "conditions": [18, 1200, "v", 18000], "trial": 1, "serialpos": 4, "trial_type": "single-stim", "trial_index": 59, "time_elapsed": 266173, "internal_node_id": "0.0-41.0"}}, {"uniqueid": "MTK1052:3HWRJOOET69383KIQ7H3RQSSRMWSE8", "current_trial": 60, "dateTime": 1513017867808, "trialdata": {"rt": -1, "stimulus": "<p id=\"stim\">BLOCKADE</p>", "key_press": -1, "type": "PRES_VIS", "word": "blockade", "wordID": 136, "conditions": [18, 1200, "v", 18000], "trial": 1, "serialpos": 5, "trial_type": "single-stim", "trial_index": 60, "time_elapsed": 268381, "internal_node_id": "0.0-42.0"}}, {"uniqueid": "MTK1052:3HWRJOOET69383KIQ7H3RQSSRMWSE8", "current_trial": 61, "dateTime": 1513017869995, "trialdata": {"rt": -1, "stimulus": "<p id=\"stim\">RECORD</p>", "key_press": -1, "type": "PRES_VIS", "word": "record", "wordID": 1175, "conditions": [18, 1200, "v", 18000], "trial": 1, "serialpos": 6, "trial_type": "single-stim", "trial_index": 61, "time_elapsed": 270568, "internal_node_id": "0.0-43.0"}}, {"uniqueid": "MTK1052:3HWRJOOET69383KIQ7H3RQSSRMWSE8", "current_trial": 62, "dateTime": 1513017872091, "trialdata": {"rt": -1, "stimulus": "<p id=\"stim\">ARMY</p>", "key_press": -1, "type": "PRES_VIS", "word": "army", "wordID": 38, "conditions": [18, 1200, "v", 18000], "trial": 1, "serialpos": 7, "trial_type": "single-stim", "trial_index": 62, "time_elapsed": 272664, "internal_node_id": "0.0-44.0"}}, {"uniqueid": "MTK1052:3HWRJOOET69383KIQ7H3RQSSRMWSE8", "current_trial": 63, "dateTime": 1513017874174, "trialdata": {"rt": -1, "stimulus": "<p id=\"stim\">COMPASS</p>", "key_press": -1, "type": "PRES_VIS", "word": "compass", "wordID": 357, "conditions": [18, 1200, "v", 18000], "trial": 1, "serialpos": 8, "trial_type": "single-stim", "trial_index": 63, "time_elapsed": 274747, "internal_node_id": "0.0-45.0"}}, {"uniqueid": "MTK1052:3HWRJOOET69383KIQ7H3RQSSRMWSE8", "current_trial": 64, "dateTime": 1513017876299, "trialdata": {"rt": -1, "stimulus": "<p id=\"stim\">POWDER</p>", "key_press": -1, "type": "PRES_VIS", "word": "powder", "wordID": 1116, "conditions": [18, 1200, "v", 18000], "trial": 1, "serialpos": 9, "trial_type": "single-stim", "trial_index": 64, "time_elapsed": 276873, "internal_node_id": "0.0-46.0"}}, {"uniqueid": "MTK1052:3HWRJOOET69383KIQ7H3RQSSRMWSE8", "current_trial": 65, "dateTime": 1513017878527, "trialdata": {"rt": -1, "stimulus": "<p id=\"stim\">AGENT</p>", "key_press": -1, "type": "PRES_VIS", "word": "agent", "wordID": 9, "conditions": [18, 1200, "v", 18000], "trial": 1, "serialpos": 10, "trial_type": "single-stim", "trial_index": 65, "time_elapsed": 279100, "internal_node_id": "0.0-47.0"}}, {"uniqueid": "MTK1052:3HWRJOOET69383KIQ7H3RQSSRMWSE8", "current_trial": 66, "dateTime": 1513017880580, "trialdata": {"rt": -1, "stimulus": "<p id=\"stim\">PEACH</p>", "key_press": -1, "type": "PRES_VIS", "word": "peach", "wordID": 1030, "conditions": [18, 1200, "v", 18000], "trial": 1, "serialpos": 11, "trial_type": "single-stim", "trial_index": 66, "time_elapsed": 281154, "internal_node_id": "0.0-48.0"}}, {"uniqueid": "MTK1052:3HWRJOOET69383KIQ7H3RQSSRMWSE8", "current_trial": 67, "dateTime": 1513017882939, "trialdata": {"rt": -1, "stimulus": "<p id=\"stim\">GAZELLE</p>", "key_press": -1, "type": "PRES_VIS", "word": "gazelle", "wordID": 627, "conditions": [18, 1200, "v", 18000], "trial": 1, "serialpos": 12, "trial_type": "single-stim", "trial_index": 67, "time_elapsed": 283512, "internal_node_id": "0.0-49.0"}}, {"uniqueid": "MTK1052:3HWRJOOET69383KIQ7H3RQSSRMWSE8", "current_trial": 68, "dateTime": 1513017885071, "trialdata": {"rt": -1, "stimulus": "<p id=\"stim\">GAVEL</p>", "key_press": -1, "type": "PRES_VIS", "word": "gavel", "wordID": 626, "conditions": [18, 1200, "v", 18000], "trial": 1, "serialpos": 13, "trial_type": "single-stim", "trial_index": 68, "time_elapsed": 285640, "internal_node_id": "0.0-50.0"}}, {"uniqueid": "MTK1052:3HWRJOOET69383KIQ7H3RQSSRMWSE8", "current_trial": 69, "dateTime": 1513017887182, "trialdata": {"rt": -1, "stimulus": "<p id=\"stim\">GLOBE</p>", "key_press": -1, "type": "PRES_VIS", "word": "globe", "wordID": 640, "conditions": [18, 1200, "v", 18000], "trial": 1, "serialpos": 14, "trial_type": "single-stim", "trial_index": 69, "time_elapsed": 287755, "internal_node_id": "0.0-51.0"}}, {"uniqueid": "MTK1052:3HWRJOOET69383KIQ7H3RQSSRMWSE8", "current_trial": 70, "dateTime": 1513017889428, "trialdata": {"rt": -1, "stimulus": "<p id=\"stim\">CHIPMUNK</p>", "key_press": -1, "type": "PRES_VIS", "word": "chipmunk", "wordID": 303, "conditions": [18, 1200, "v", 18000], "trial": 1, "serialpos": 15, "trial_type": "single-stim", "trial_index": 70, "time_elapsed": 290002, "internal_node_id": "0.0-52.0"}}, {"uniqueid": "MTK1052:3HWRJOOET69383KIQ7H3RQSSRMWSE8", "current_trial": 71, "dateTime": 1513017891469, "trialdata": {"rt": -1, "stimulus": "<p id=\"stim\">PATIENT</p>", "key_press": -1, "type": "PRES_VIS", "word": "patient", "wordID": 1023, "conditions": [18, 1200, "v", 18000], "trial": 1, "serialpos": 16, "trial_type": "single-stim", "trial_index": 71, "time_elapsed": 292043, "internal_node_id": "0.0-53.0"}}, {"uniqueid": "MTK1052:3HWRJOOET69383KIQ7H3RQSSRMWSE8", "current_trial": 72, "dateTime": 1513017893632, "trialdata": {"rt": -1, "stimulus": "<p id=\"stim\">JOURNAL</p>", "key_press": -1, "type": "PRES_VIS", "word": "journal", "wordID": 759, "conditions": [18, 1200, "v", 18000], "trial": 1, "serialpos": 17, "trial_type": "single-stim", "trial_index": 72, "time_elapsed": 294205, "internal_node_id": "0.0-54.0"}}, {"uniqueid": "MTK1052:3HWRJOOET69383KIQ7H3RQSSRMWSE8", "current_trial": 73, "dateTime": 1513017895940, "trialdata": {"rt": -1, "stimulus": "", "key_press": -1, "type": "PRE_RECALL_DELAY", "trial_type": "single-stim", "trial_index": 73, "time_elapsed": 296514, "internal_node_id": "0.0-55.0-0.0"}}, {"uniqueid": "MTK1052:3HWRJOOET69383KIQ7H3RQSSRMWSE8", "current_trial": 74, "dateTime": 1513017896442, "trialdata": {"rt": -1000, "stimulus": "/static/audio/400Hz.wav", "key_press": -1, "type": "PRE_RECALL_ALERT", "trial_type": "single-audio", "trial_index": 74, "time_elapsed": 297016, "internal_node_id": "0.0-56.0"}}, {"uniqueid": "MTK1052:3HWRJOOET69383KIQ7H3RQSSRMWSE8", "current_trial": 75, "dateTime": 1513017957138, "trialdata": {"rt": [3510, 5161, 6810, 7842, 17497, 19852, 21936, 24071, 28115, 30360, 37136, 39990], "recwords": ["apple", "passage", "monkey", "army", "compass", "powder", "agent", "peach", "gavel", "globe", "patient", "journal"], "type": "FREE_RECALL", "conditions": [18, 1200, "v", 18000], "trial": 1, "trial_type": "free-recall", "trial_index": 75, "time_elapsed": 357710, "internal_node_id": "0.0-57.0-0.0"}}, {"uniqueid": "MTK1052:3HWRJOOET69383KIQ7H3RQSSRMWSE8", "current_trial": 76, "dateTime": 1513017963024, "trialdata": {"rt": 3882, "key_press": 13, "type": "INSTRUCTIONS", "trial_type": "text", "trial_index": 76, "time_elapsed": 363595, "internal_node_id": "0.0-58.0"}}, {"uniqueid": "MTK1052:3HWRJOOET69383KIQ7H3RQSSRMWSE8", "current_trial": 77, "dateTime": 1513017976032, "trialdata": {"rt": [1892, 3440, 5559, 7374, 8936, 10838], "responses": ["14", "13", "15", "18", "10", "17"], "num1": [8, 4, 4, 7, 2, 6, 1], "num2": [3, 3, 3, 9, 2, 2, 8], "num3": [3, 6, 8, 2, 6, 9, 5], "type": "DISTRACTOR", "conditions": [12, 1600, "a", 12000], "trial": 2, "trial_type": "math-distractor", "trial_index": 77, "time_elapsed": 376606, "internal_node_id": "0.0-59.0"}}, {"uniqueid": "MTK1052:3HWRJOOET69383KIQ7H3RQSSRMWSE8", "current_trial": 78, "dateTime": 1513017979036, "trialdata": {"rt": -1, "stimulus": "<p id=\"stim\">10</p>", "key_press": -1, "trial_type": "single-stim", "trial_index": 78, "time_elapsed": 379609, "internal_node_id": "0.0-60.0-0.0"}}, {"uniqueid": "MTK1052:3HWRJOOET69383KIQ7H3RQSSRMWSE8", "current_trial": 79, "dateTime": 1513017980038, "trialdata": {"rt": -1, "stimulus": "<p id=\"stim\">9</p>", "key_press": -1, "trial_type": "single-stim", "trial_index": 79, "time_elapsed": 380611, "internal_node_id": "0.0-60.0-1.0"}}, {"uniqueid": "MTK1052:3HWRJOOET69383KIQ7H3RQSSRMWSE8", "current_trial": 80, "dateTime": 1513017981040, "trialdata": {"rt": -1, "stimulus": "<p id=\"stim\">8</p>", "key_press": -1, "trial_type": "single-stim", "trial_index": 80, "time_elapsed": 381613, "internal_node_id": "0.0-60.0-2.0"}}, {"uniqueid": "MTK1052:3HWRJOOET69383KIQ7H3RQSSRMWSE8", "current_trial": 81, "dateTime": 1513017982043, "trialdata": {"rt": -1, "stimulus": "<p id=\"stim\">7</p>", "key_press": -1, "trial_type": "single-stim", "trial_index": 81, "time_elapsed": 382616, "internal_node_id": "0.0-60.0-3.0"}}, {"uniqueid": "MTK1052:3HWRJOOET69383KIQ7H3RQSSRMWSE8", "current_trial": 82, "dateTime": 1513017983046, "trialdata": {"rt": -1, "stimulus": "<p id=\"stim\">6</p>", "key_press": -1, "trial_type": "single-stim", "trial_index": 82, "time_elapsed": 383619, "internal_node_id": "0.0-60.0-4.0"}}, {"uniqueid": "MTK1052:3HWRJOOET69383KIQ7H3RQSSRMWSE8", "current_trial": 83, "dateTime": 1513017984049, "trialdata": {"rt": -1, "stimulus": "<p id=\"stim\">5</p>", "key_press": -1, "trial_type": "single-stim", "trial_index": 83, "time_elapsed": 384622, "internal_node_id": "0.0-60.0-5.0"}}, {"uniqueid": "MTK1052:3HWRJOOET69383KIQ7H3RQSSRMWSE8", "current_trial": 84, "dateTime": 1513017985051, "trialdata": {"rt": -1, "stimulus": "<p id=\"stim\">4</p>", "key_press": -1, "trial_type": "single-stim", "trial_index": 84, "time_elapsed": 385625, "internal_node_id": "0.0-60.0-6.0"}}, {"uniqueid": "MTK1052:3HWRJOOET69383KIQ7H3RQSSRMWSE8", "current_trial": 85, "dateTime": 1513017986054, "trialdata": {"rt": -1, "stimulus": "<p id=\"stim\">3</p>", "key_press": -1, "trial_type": "single-stim", "trial_index": 85, "time_elapsed": 386628, "internal_node_id": "0.0-60.0-7.0"}}, {"uniqueid": "MTK1052:3HWRJOOET69383KIQ7H3RQSSRMWSE8", "current_trial": 86, "dateTime": 1513017987056, "trialdata": {"rt": -1, "stimulus": "<p id=\"stim\">2</p>", "key_press": -1, "trial_type": "single-stim", "trial_index": 86, "time_elapsed": 387630, "internal_node_id": "0.0-60.0-8.0"}}, {"uniqueid": "MTK1052:3HWRJOOET69383KIQ7H3RQSSRMWSE8", "current_trial": 87, "dateTime": 1513017988058, "trialdata": {"rt": -1, "stimulus": "<p id=\"stim\">1</p>", "key_press": -1, "trial_type": "single-stim", "trial_index": 87, "time_elapsed": 388631, "internal_node_id": "0.0-60.0-9.0"}}, {"uniqueid": "MTK1052:3HWRJOOET69383KIQ7H3RQSSRMWSE8", "current_trial": 88, "dateTime": 1513017989559, "trialdata": {"rt": -1, "stimulus": "<p id=\"stim\">+</p>", "key_press": -1, "type": "FIXATION", "trial_type": "single-stim", "trial_index": 88, "time_elapsed": 390133, "internal_node_id": "0.0-61.0-0.0"}}, {"uniqueid": "MTK1052:3HWRJOOET69383KIQ7H3RQSSRMWSE8", "current_trial": 89, "dateTime": 1513017992161, "trialdata": {"rt": -1000, "stimulus": "/static/audio/wordpool/GUITAR.wav", "key_press": -1, "type": "PRES_AUD", "word": "guitar", "wordID": 669, "conditions": [12, 1600, "a", 12000], "trial": 2, "serialpos": 0, "trial_type": "single-audio", "trial_index": 89, "time_elapsed": 392735, "internal_node_id": "0.0-62.0"}}, {"uniqueid": "MTK1052:3HWRJOOET69383KIQ7H3RQSSRMWSE8", "current_trial": 90, "dateTime": 1513017994608, "trialdata": {"rt": -1000, "stimulus": "/static/audio/wordpool/STICKER.wav", "key_press": -1, "type": "PRES_AUD", "word": "sticker", "wordID": 1381, "conditions": [12, 1600, "a", 12000], "trial": 2, "serialpos": 1, "trial_type": "single-audio", "trial_index": 90, "time_elapsed": 395182, "internal_node_id": "0.0-63.0"}}, {"uniqueid": "MTK1052:3HWRJOOET69383KIQ7H3RQSSRMWSE8", "current_trial": 91, "dateTime": 1513017997026, "trialdata": {"rt": -1000, "stimulus": "/static/audio/wordpool/STOVE.wav", "key_press": -1, "type": "PRES_AUD", "word": "stove", "wordID": 1387, "conditions": [12, 1600, "a", 12000], "trial": 2, "serialpos": 2, "trial_type": "single-audio", "trial_index": 91, "time_elapsed": 397600, "internal_node_id": "0.0-64.0"}}, {"uniqueid": "MTK1052:3HWRJOOET69383KIQ7H3RQSSRMWSE8", "current_trial": 92, "dateTime": 1513017999804, "trialdata": {"rt": -1000, "stimulus": "/static/audio/wordpool/WAITER.wav", "key_press": -1, "type": "PRES_AUD", "word": "waiter", "wordID": 1579, "conditions": [12, 1600, "a", 12000], "trial": 2, "serialpos": 3, "trial_type": "single-audio", "trial_index": 92, "time_elapsed": 400378, "internal_node_id": "0.0-65.0"}}, {"uniqueid": "MTK1052:3HWRJOOET69383KIQ7H3RQSSRMWSE8", "current_trial": 93, "dateTime": 1513018002375, "trialdata": {"rt": -1000, "stimulus": "/static/audio/wordpool/SADDLE.wav", "key_press": -1, "type": "PRES_AUD", "word": "saddle", "wordID": 1220, "conditions": [12, 1600, "a", 12000], "trial": 2, "serialpos": 4, "trial_type": "single-audio", "trial_index": 93, "time_elapsed": 402949, "internal_node_id": "0.0-66.0"}}, {"uniqueid": "MTK1052:3HWRJOOET69383KIQ7H3RQSSRMWSE8", "current_trial": 94, "dateTime": 1513018005070, "trialdata": {"rt": -1000, "stimulus": "/static/audio/wordpool/CRIB.wav", "key_press": -1, "type": "PRES_AUD", "word": "crib", "wordID": 406, "conditions": [12, 1600, "a", 12000], "trial": 2, "serialpos": 5, "trial_type": "single-audio", "trial_index": 94, "time_elapsed": 405644, "internal_node_id": "0.0-67.0"}}, {"uniqueid": "MTK1052:3HWRJOOET69383KIQ7H3RQSSRMWSE8", "current_trial": 95, "dateTime": 1513018007473, "trialdata": {"rt": -1000, "stimulus": "/static/audio/wordpool/CANYON.wav", "key_press": -1, "type": "PRES_AUD", "word": "canyon", "wordID": 234, "conditions": [12, 1600, "a", 12000], "trial": 2, "serialpos": 6, "trial_type": "single-audio", "trial_index": 95, "time_elapsed": 408047, "internal_node_id": "0.0-68.0"}}, {"uniqueid": "MTK1052:3HWRJOOET69383KIQ7H3RQSSRMWSE8", "current_trial": 96, "dateTime": 1513018010239, "trialdata": {"rt": -1000, "stimulus": "/static/audio/wordpool/VALLEY.wav", "key_press": -1, "type": "PRES_AUD", "word": "valley", "wordID": 1544, "conditions": [12, 1600, "a", 12000], "trial": 2, "serialpos": 7, "trial_type": "single-audio", "trial_index": 96, "time_elapsed": 410813, "internal_node_id": "0.0-69.0"}}, {"uniqueid": "MTK1052:3HWRJOOET69383KIQ7H3RQSSRMWSE8", "current_trial": 97, "dateTime": 1513018012772, "trialdata": {"rt": -1000, "stimulus": "/static/audio/wordpool/FOREHEAD.wav", "key_press": -1, "type": "PRES_AUD", "word": "forehead", "wordID": 591, "conditions": [12, 1600, "a", 12000], "trial": 2, "serialpos": 8, "trial_type": "single-audio", "trial_index": 97, "time_elapsed": 413346, "internal_node_id": "0.0-70.0"}}, {"uniqueid": "MTK1052:3HWRJOOET69383KIQ7H3RQSSRMWSE8", "current_trial": 98, "dateTime": 1513018015178, "trialdata": {"rt": -1000, "stimulus": "/static/audio/wordpool/TURNIP.wav", "key_press": -1, "type": "PRES_AUD", "word": "turnip", "wordID": 1520, "conditions": [12, 1600, "a", 12000], "trial": 2, "serialpos": 9, "trial_type": "single-audio", "trial_index": 98, "time_elapsed": 415752, "internal_node_id": "0.0-71.0"}}, {"uniqueid": "MTK1052:3HWRJOOET69383KIQ7H3RQSSRMWSE8", "current_trial": 99, "dateTime": 1513018017867, "trialdata": {"rt": -1000, "stimulus": "/static/audio/wordpool/CANDY.wav", "key_press": -1, "type": "PRES_AUD", "word": "candy", "wordID": 229, "conditions": [12, 1600, "a", 12000], "trial": 2, "serialpos": 10, "trial_type": "single-audio", "trial_index": 99, "time_elapsed": 418441, "internal_node_id": "0.0-72.0"}}, {"uniqueid": "MTK1052:3HWRJOOET69383KIQ7H3RQSSRMWSE8", "current_trial": 100, "dateTime": 1513018020561, "trialdata": {"rt": -1000, "stimulus": "/static/audio/wordpool/COOK.wav", "key_press": -1, "type": "PRES_AUD", "word": "cook", "wordID": 371, "conditions": [12, 1600, "a", 12000], "trial": 2, "serialpos": 11, "trial_type": "single-audio", "trial_index": 100, "time_elapsed": 421135, "internal_node_id": "0.0-73.0"}}, {"uniqueid": "MTK1052:3HWRJOOET69383KIQ7H3RQSSRMWSE8", "current_trial": 101, "dateTime": 1513018021780, "trialdata": {"rt": -1, "stimulus": "", "key_press": -1, "type": "PRE_RECALL_DELAY", "trial_type": "single-stim", "trial_index": 101, "time_elapsed": 422354, "internal_node_id": "0.0-74.0-0.0"}}, {"uniqueid": "MTK1052:3HWRJOOET69383KIQ7H3RQSSRMWSE8", "current_trial": 102, "dateTime": 1513018022282, "trialdata": {"rt": -1000, "stimulus": "/static/audio/400Hz.wav", "key_press": -1, "type": "PRE_RECALL_ALERT", "trial_type": "single-audio", "trial_index": 102, "time_elapsed": 422856, "internal_node_id": "0.0-75.0"}}, {"uniqueid": "MTK1052:3HWRJOOET69383KIQ7H3RQSSRMWSE8", "current_trial": 103, "dateTime": 1513018082292, "trialdata": {"rt": [3413, 5280, 6682, 8076], "recwords": ["guitar", "sticker", "stove", "candy"], "type": "FREE_RECALL", "conditions": [12, 1600, "a", 12000], "trial": 2, "trial_type": "free-recall", "trial_index": 103, "time_elapsed": 482861, "internal_node_id": "0.0-76.0-0.0"}}, {"uniqueid": "MTK1052:3HWRJOOET69383KIQ7H3RQSSRMWSE8", "current_trial": 104, "dateTime": 1513018086701, "trialdata": {"rt": 2408, "key_press": 13, "type": "INSTRUCTIONS", "trial_type": "text", "trial_index": 104, "time_elapsed": 487275, "internal_node_id": "0.0-77.0"}}, {"uniqueid": "MTK1052:3HWRJOOET69383KIQ7H3RQSSRMWSE8", "current_trial": 105, "dateTime": 1513018100711, "trialdata": {"rt": [3332, 5278, 6971, 9467, 11189], "responses": ["25", "25", "14", "23", "18"], "num1": [8, 7, 5, 9, 9, 7], "num2": [8, 9, 3, 5, 3, 7], "num3": [9, 9, 6, 9, 6, 7], "type": "DISTRACTOR", "conditions": [24, 800, "v", 12000], "trial": 3, "trial_type": "math-distractor", "trial_index": 105, "time_elapsed": 501285, "internal_node_id": "0.0-78.0"}}, {"uniqueid": "MTK1052:3HWRJOOET69383KIQ7H3RQSSRMWSE8", "current_trial": 106, "dateTime": 1513018103716, "trialdata": {"rt": -1, "stimulus": "<p id=\"stim\">10</p>", "key_press": -1, "trial_type": "single-stim", "trial_index": 106, "time_elapsed": 504289, "internal_node_id": "0.0-79.0-0.0"}}, {"uniqueid": "MTK1052:3HWRJOOET69383KIQ7H3RQSSRMWSE8", "current_trial": 107, "dateTime": 1513018104718, "trialdata": {"rt": -1, "stimulus": "<p id=\"stim\">9</p>", "key_press": -1, "trial_type": "single-stim", "trial_index": 107, "time_elapsed": 505291, "internal_node_id": "0.0-79.0-1.0"}}, {"uniqueid": "MTK1052:3HWRJOOET69383KIQ7H3RQSSRMWSE8", "current_trial": 108, "dateTime": 1513018105720, "trialdata": {"rt": -1, "stimulus": "<p id=\"stim\">8</p>", "key_press": -1, "trial_type": "single-stim", "trial_index": 108, "time_elapsed": 506293, "internal_node_id": "0.0-79.0-2.0"}}, {"uniqueid": "MTK1052:3HWRJOOET69383KIQ7H3RQSSRMWSE8", "current_trial": 109, "dateTime": 1513018106721, "trialdata": {"rt": -1, "stimulus": "<p id=\"stim\">7</p>", "key_press": -1, "trial_type": "single-stim", "trial_index": 109, "time_elapsed": 507295, "internal_node_id": "0.0-79.0-3.0"}}, {"uniqueid": "MTK1052:3HWRJOOET69383KIQ7H3RQSSRMWSE8", "current_trial": 110, "dateTime": 1513018107725, "trialdata": {"rt": -1, "stimulus": "<p id=\"stim\">6</p>", "key_press": -1, "trial_type": "single-stim", "trial_index": 110, "time_elapsed": 508298, "internal_node_id": "0.0-79.0-4.0"}}, {"uniqueid": "MTK1052:3HWRJOOET69383KIQ7H3RQSSRMWSE8", "current_trial": 111, "dateTime": 1513018108726, "trialdata": {"rt": -1, "stimulus": "<p id=\"stim\">5</p>", "key_press": -1, "trial_type": "single-stim", "trial_index": 111, "time_elapsed": 509299, "internal_node_id": "0.0-79.0-5.0"}}, {"uniqueid": "MTK1052:3HWRJOOET69383KIQ7H3RQSSRMWSE8", "current_trial": 112, "dateTime": 1513018109728, "trialdata": {"rt": -1, "stimulus": "<p id=\"stim\">4</p>", "key_press": -1, "trial_type": "single-stim", "trial_index": 112, "time_elapsed": 510302, "internal_node_id": "0.0-79.0-6.0"}}, {"uniqueid": "MTK1052:3HWRJOOET69383KIQ7H3RQSSRMWSE8", "current_trial": 113, "dateTime": 1513018110729, "trialdata": {"rt": -1, "stimulus": "<p id=\"stim\">3</p>", "key_press": -1, "trial_type": "single-stim", "trial_index": 113, "time_elapsed": 511302, "internal_node_id": "0.0-79.0-7.0"}}, {"uniqueid": "MTK1052:3HWRJOOET69383KIQ7H3RQSSRMWSE8", "current_trial": 114, "dateTime": 1513018111731, "trialdata": {"rt": -1, "stimulus": "<p id=\"stim\">2</p>", "key_press": -1, "trial_type": "single-stim", "trial_index": 114, "time_elapsed": 512304, "internal_node_id": "0.0-79.0-8.0"}}, {"uniqueid": "MTK1052:3HWRJOOET69383KIQ7H3RQSSRMWSE8", "current_trial": 115, "dateTime": 1513018112733, "trialdata": {"rt": -1, "stimulus": "<p id=\"stim\">1</p>", "key_press": -1, "trial_type": "single-stim", "trial_index": 115, "time_elapsed": 513307, "internal_node_id": "0.0-79.0-9.0"}}, {"uniqueid": "MTK1052:3HWRJOOET69383KIQ7H3RQSSRMWSE8", "current_trial": 116, "dateTime": 1513018114235, "trialdata": {"rt": -1, "stimulus": "<p id=\"stim\">+</p>", "key_press": -1, "type": "FIXATION", "trial_type": "single-stim", "trial_index": 116, "time_elapsed": 514809, "internal_node_id": "0.0-80.0-0.0"}}, {"uniqueid": "MTK1052:3HWRJOOET69383KIQ7H3RQSSRMWSE8", "current_trial": 117, "dateTime": 1513018115037, "trialdata": {"rt": -1, "stimulus": "<p id=\"stim\">TRANSPLANT</p>", "key_press": -1, "type": "PRES_VIS", "word": "transplant", "wordID": 1495, "conditions": [24, 800, "v", 12000], "trial": 3, "serialpos": 0, "trial_type": "single-stim", "trial_index": 117, "time_elapsed": 515611, "internal_node_id": "0.0-81.0"}}, {"uniqueid": "MTK1052:3HWRJOOET69383KIQ7H3RQSSRMWSE8", "current_trial": 118, "dateTime": 1513018116814, "trialdata": {"rt": -1, "stimulus": "<p id=\"stim\">COD</p>", "key_press": -1, "type": "PRES_VIS", "word": "cod", "wordID": 339, "conditions": [24, 800, "v", 12000], "trial": 3, "serialpos": 1, "trial_type": "single-stim", "trial_index": 118, "time_elapsed": 517387, "internal_node_id": "0.0-82.0"}}, {"uniqueid": "MTK1052:3HWRJOOET69383KIQ7H3RQSSRMWSE8", "current_trial": 119, "dateTime": 1513018118538, "trialdata": {"rt": -1, "stimulus": "<p id=\"stim\">CAMEL</p>", "key_press": -1, "type": "PRES_VIS", "word": "camel", "wordID": 222, "conditions": [24, 800, "v", 12000], "trial": 3, "serialpos": 2, "trial_type": "single-stim", "trial_index": 119, "time_elapsed": 519111, "internal_node_id": "0.0-83.0"}}, {"uniqueid": "MTK1052:3HWRJOOET69383KIQ7H3RQSSRMWSE8", "current_trial": 120, "dateTime": 1513018120309, "trialdata": {"rt": -1, "stimulus": "<p id=\"stim\">SUNRISE</p>", "key_press": -1, "type": "PRES_VIS", "word": "sunrise", "wordID": 1406, "conditions": [24, 800, "v", 12000], "trial": 3, "serialpos": 3, "trial_type": "single-stim", "trial_index": 120, "time_elapsed": 520882, "internal_node_id": "0.0-84.0"}}, {"uniqueid": "MTK1052:3HWRJOOET69383KIQ7H3RQSSRMWSE8", "current_trial": 121, "dateTime": 1513018122157, "trialdata": {"rt": -1, "stimulus": "<p id=\"stim\">SANDWICH</p>", "key_press": -1, "type": "PRES_VIS", "word": "sandwich", "wordID": 1231, "conditions": [24, 800, "v", 12000], "trial": 3, "serialpos": 4, "trial_type": "single-stim", "trial_index": 121, "time_elapsed": 522730, "internal_node_id": "0.0-85.0"}}, {"uniqueid": "MTK1052:3HWRJOOET69383KIQ7H3RQSSRMWSE8", "current_trial": 122, "dateTime": 1513018123838, "trialdata": {"rt": -1, "stimulus": "<p id=\"stim\">SNACK</p>", "key_press": -1, "type": "PRES_VIS", "word": "snack", "wordID": 1330, "conditions": [24, 800, "v", 12000], "trial": 3, "serialpos": 5, "trial_type": "single-stim", "trial_index": 122, "time_elapsed": 524411, "internal_node_id": "0.0-86.0"}}, {"uniqueid": "MTK1052:3HWRJOOET69383KIQ7H3RQSSRMWSE8", "current_trial": 123, "dateTime": 1513018125769, "trialdata": {"rt": -1, "stimulus": "<p id=\"stim\">OUTDOORS</p>", "key_press": -1, "type": "PRES_VIS", "word": "outdoors", "wordID": 986, "conditions": [24, 800, "v", 12000], "trial": 3, "serialpos": 6, "trial_type": "single-stim", "trial_index": 123, "time_elapsed": 526342, "internal_node_id": "0.0-87.0"}}, {"uniqueid": "MTK1052:3HWRJOOET69383KIQ7H3RQSSRMWSE8", "current_trial": 124, "dateTime": 1513018127495, "trialdata": {"rt": -1, "stimulus": "<p id=\"stim\">CHILD</p>", "key_press": -1, "type": "PRES_VIS", "word": "child", "wordID": 298, "conditions": [24, 800, "v", 12000], "trial": 3, "serialpos": 7, "trial_type": "single-stim", "trial_index": 124, "time_elapsed": 528068, "internal_node_id": "0.0-88.0"}}, {"uniqueid": "MTK1052:3HWRJOOET69383KIQ7H3RQSSRMWSE8", "current_trial": 125, "dateTime": 1513018129417, "trialdata": {"rt": -1, "stimulus": "<p id=\"stim\">KIDNEY</p>", "key_press": -1, "type": "PRES_VIS", "word": "kidney", "wordID": 775, "conditions": [24, 800, "v", 12000], "trial": 3, "serialpos": 8, "trial_type": "single-stim", "trial_index": 125, "time_elapsed": 529990, "internal_node_id": "0.0-89.0"}}, {"uniqueid": "MTK1052:3HWRJOOET69383KIQ7H3RQSSRMWSE8", "current_trial": 126, "dateTime": 1513018131355, "trialdata": {"rt": -1, "stimulus": "<p id=\"stim\">CRAYON</p>", "key_press": -1, "type": "PRES_VIS", "word": "crayon", "wordID": 400, "conditions": [24, 800, "v", 12000], "trial": 3, "serialpos": 9, "trial_type": "single-stim", "trial_index": 126, "time_elapsed": 531928, "internal_node_id": "0.0-90.0"}}, {"uniqueid": "MTK1052:3HWRJOOET69383KIQ7H3RQSSRMWSE8", "current_trial": 127, "dateTime": 1513018133250, "trialdata": {"rt": -1, "stimulus": "<p id=\"stim\">YARN</p>", "key_press": -1, "type": "PRES_VIS", "word": "yarn", "wordID": 1630, "conditions": [24, 800, "v", 12000], "trial": 3, "serialpos": 10, "trial_type": "single-stim", "trial_index": 127, "time_elapsed": 533823, "internal_node_id": "0.0-91.0"}}, {"uniqueid": "MTK1052:3HWRJOOET69383KIQ7H3RQSSRMWSE8", "current_trial": 128, "dateTime": 1513018135028, "trialdata": {"rt": -1, "stimulus": "<p id=\"stim\">PUDDLE</p>", "key_press": -1, "type": "PRES_VIS", "word": "puddle", "wordID": 1139, "conditions": [24, 800, "v", 12000], "trial": 3, "serialpos": 11, "trial_type": "single-stim", "trial_index": 128, "time_elapsed": 535601, "internal_node_id": "0.0-92.0"}}, {"uniqueid": "MTK1052:3HWRJOOET69383KIQ7H3RQSSRMWSE8", "current_trial": 129, "dateTime": 1513018136850, "trialdata": {"rt": -1, "stimulus": "<p id=\"stim\">SHERIFF</p>", "key_press": -1, "type": "PRES_VIS", "word": "sheriff", "wordID": 1283, "conditions": [24, 800, "v", 12000], "trial": 3, "serialpos": 12, "trial_type": "single-stim", "trial_index": 129, "time_elapsed": 537424, "internal_node_id": "0.0-93.0"}}, {"uniqueid": "MTK1052:3HWRJOOET69383KIQ7H3RQSSRMWSE8", "current_trial": 130, "dateTime": 1513018138835, "trialdata": {"rt": -1, "stimulus": "<p id=\"stim\">SCOTCH</p>", "key_press": -1, "type": "PRES_VIS", "word": "scotch", "wordID": 1250, "conditions": [24, 800, "v", 12000], "trial": 3, "serialpos": 13, "trial_type": "single-stim", "trial_index": 130, "time_elapsed": 539408, "internal_node_id": "0.0-94.0"}}, {"uniqueid": "MTK1052:3HWRJOOET69383KIQ7H3RQSSRMWSE8", "current_trial": 131, "dateTime": 1513018140632, "trialdata": {"rt": -1, "stimulus": "<p id=\"stim\">HOOK</p>", "key_press": -1, "type": "PRES_VIS", "word": "hook", "wordID": 714, "conditions": [24, 800, "v", 12000], "trial": 3, "serialpos": 14, "trial_type": "single-stim", "trial_index": 131, "time_elapsed": 541205, "internal_node_id": "0.0-95.0"}}, {"uniqueid": "MTK1052:3HWRJOOET69383KIQ7H3RQSSRMWSE8", "current_trial": 132, "dateTime": 1513018142339, "trialdata": {"rt": -1, "stimulus": "<p id=\"stim\">COUNTY</p>", "key_press": -1, "type": "PRES_VIS", "word": "county", "wordID": 388, "conditions": [24, 800, "v", 12000], "trial": 3, "serialpos": 15, "trial_type": "single-stim", "trial_index": 132, "time_elapsed": 542913, "internal_node_id": "0.0-96.0"}}, {"uniqueid": "MTK1052:3HWRJOOET69383KIQ7H3RQSSRMWSE8", "current_trial": 133, "dateTime": 1513018144033, "trialdata": {"rt": -1, "stimulus": "<p id=\"stim\">COIN</p>", "key_press": -1, "type": "PRES_VIS", "word": "coin", "wordID": 342, "conditions": [24, 800, "v", 12000], "trial": 3, "serialpos": 16, "trial_type": "single-stim", "trial_index": 133, "time_elapsed": 544606, "internal_node_id": "0.0-97.0"}}, {"uniqueid": "MTK1052:3HWRJOOET69383KIQ7H3RQSSRMWSE8", "current_trial": 134, "dateTime": 1513018145865, "trialdata": {"rt": -1, "stimulus": "<p id=\"stim\">PLATE</p>", "key_press": -1, "type": "PRES_VIS", "word": "plate", "wordID": 1085, "conditions": [24, 800, "v", 12000], "trial": 3, "serialpos": 17, "trial_type": "single-stim", "trial_index": 134, "time_elapsed": 546438, "internal_node_id": "0.0-98.0"}}, {"uniqueid": "MTK1052:3HWRJOOET69383KIQ7H3RQSSRMWSE8", "current_trial": 135, "dateTime": 1513018147548, "trialdata": {"rt": -1, "stimulus": "<p id=\"stim\">LIGHTNING</p>", "key_press": -1, "type": "PRES_VIS", "word": "lightning", "wordID": 819, "conditions": [24, 800, "v", 12000], "trial": 3, "serialpos": 18, "trial_type": "single-stim", "trial_index": 135, "time_elapsed": 548121, "internal_node_id": "0.0-99.0"}}, {"uniqueid": "MTK1052:3HWRJOOET69383KIQ7H3RQSSRMWSE8", "current_trial": 136, "dateTime": 1513018149221, "trialdata": {"rt": -1, "stimulus": "<p id=\"stim\">SHELF</p>", "key_press": -1, "type": "PRES_VIS", "word": "shelf", "wordID": 1279, "conditions": [24, 800, "v", 12000], "trial": 3, "serialpos": 19, "trial_type": "single-stim", "trial_index": 136, "time_elapsed": 549794, "internal_node_id": "0.0-100.0"}}, {"uniqueid": "MTK1052:3HWRJOOET69383KIQ7H3RQSSRMWSE8", "current_trial": 137, "dateTime": 1513018151073, "trialdata": {"rt": -1, "stimulus": "<p id=\"stim\">BRIEFCASE</p>", "key_press": -1, "type": "PRES_VIS", "word": "briefcase", "wordID": 174, "conditions": [24, 800, "v", 12000], "trial": 3, "serialpos": 20, "trial_type": "single-stim", "trial_index": 137, "time_elapsed": 551646, "internal_node_id": "0.0-101.0"}}, {"uniqueid": "MTK1052:3HWRJOOET69383KIQ7H3RQSSRMWSE8", "current_trial": 138, "dateTime": 1513018152758, "trialdata": {"rt": -1, "stimulus": "<p id=\"stim\">KNAPSACK</p>", "key_press": -1, "type": "PRES_VIS", "word": "knapsack", "wordID": 782, "conditions": [24, 800, "v", 12000], "trial": 3, "serialpos": 21, "trial_type": "single-stim", "trial_index": 138, "time_elapsed": 553331, "internal_node_id": "0.0-102.0"}}, {"uniqueid": "MTK1052:3HWRJOOET69383KIQ7H3RQSSRMWSE8", "current_trial": 139, "dateTime": 1513018154676, "trialdata": {"rt": -1, "stimulus": "<p id=\"stim\">SUBWAY</p>", "key_press": -1, "type": "PRES_VIS", "word": "subway", "wordID": 1399, "conditions": [24, 800, "v", 12000], "trial": 3, "serialpos": 22, "trial_type": "single-stim", "trial_index": 139, "time_elapsed": 555249, "internal_node_id": "0.0-103.0"}}, {"uniqueid": "MTK1052:3HWRJOOET69383KIQ7H3RQSSRMWSE8", "current_trial": 140, "dateTime": 1513018156406, "trialdata": {"rt": -1, "stimulus": "<p id=\"stim\">SEAL</p>", "key_press": -1, "type": "PRES_VIS", "word": "seal", "wordID": 1261, "conditions": [24, 800, "v", 12000], "trial": 3, "serialpos": 23, "trial_type": "single-stim", "trial_index": 140, "time_elapsed": 556979, "internal_node_id": "0.0-104.0"}}, {"uniqueid": "MTK1052:3HWRJOOET69383KIQ7H3RQSSRMWSE8", "current_trial": 141, "dateTime": 1513018158609, "trialdata": {"rt": -1, "stimulus": "", "key_press": -1, "type": "PRE_RECALL_DELAY", "trial_type": "single-stim", "trial_index": 141, "time_elapsed": 559182, "internal_node_id": "0.0-105.0-0.0"}}, {"uniqueid": "MTK1052:3HWRJOOET69383KIQ7H3RQSSRMWSE8", "current_trial": 142, "dateTime": 1513018159114, "trialdata": {"rt": -1000, "stimulus": "/static/audio/400Hz.wav", "key_press": -1, "type": "PRE_RECALL_ALERT", "trial_type": "single-audio", "trial_index": 142, "time_elapsed": 559688, "internal_node_id": "0.0-106.0"}}, {"uniqueid": "MTK1052:3HWRJOOET69383KIQ7H3RQSSRMWSE8", "current_trial": 143, "dateTime": 1513018219126, "trialdata": {"rt": [2937, 4183, 5334, 7557, 12089, 18136, 19919, 22580, 24791, 27309], "recwords": ["transplant", "code", "caml", "subway", "snack", "outdoors", "child", "kidney", "yarn", "puddle"], "type": "FREE_RECALL", "conditions": [24, 800, "v", 12000], "trial": 3, "trial_type": "free-recall", "trial_index": 143, "time_elapsed": 619693, "internal_node_id": "0.0-107.0-0.0"}}, {"uniqueid": "MTK1052:3HWRJOOET69383KIQ7H3RQSSRMWSE8", "current_trial": 144, "dateTime": 1513018224482, "trialdata": {"rt": 3353, "key_press": 13, "type": "INSTRUCTIONS", "trial_type": "text", "trial_index": 144, "time_elapsed": 625055, "internal_node_id": "0.0-108.0"}}, {"uniqueid": "MTK1052:3HWRJOOET69383KIQ7H3RQSSRMWSE8", "current_trial": 145, "dateTime": 1513018238486, "trialdata": {"rt": [3930, 5677, 7869, 9863, 11515], "responses": ["17", "14", "20", "11", "14"], "num1": [5, 5, 9, 2, 2, 7], "num2": [9, 6, 3, 8, 5, 5], "num3": [3, 3, 8, 1, 7, 5], "type": "DISTRACTOR", "conditions": [12, 800, "a", 12000], "trial": 4, "trial_type": "math-distractor", "trial_index": 145, "time_elapsed": 639059, "internal_node_id": "0.0-109.0"}}, {"uniqueid": "MTK1052:3HWRJOOET69383KIQ7H3RQSSRMWSE8", "current_trial": 146, "dateTime": 1513018241488, "trialdata": {"rt": -1, "stimulus": "<p id=\"stim\">10</p>", "key_press": -1, "trial_type": "single-stim", "trial_index": 146, "time_elapsed": 642062, "internal_node_id": "0.0-110.0-0.0"}}, {"uniqueid": "MTK1052:3HWRJOOET69383KIQ7H3RQSSRMWSE8", "current_trial": 147, "dateTime": 1513018242489, "trialdata": {"rt": -1, "stimulus": "<p id=\"stim\">9</p>", "key_press": -1, "trial_type": "single-stim", "trial_index": 147, "time_elapsed": 643062, "internal_node_id": "0.0-110.0-1.0"}}, {"uniqueid": "MTK1052:3HWRJOOET69383KIQ7H3RQSSRMWSE8", "current_trial": 148, "dateTime": 1513018243491, "trialdata": {"rt": -1, "stimulus": "<p id=\"stim\">8</p>", "key_press": -1, "trial_type": "single-stim", "trial_index": 148, "time_elapsed": 644064, "internal_node_id": "0.0-110.0-2.0"}}, {"uniqueid": "MTK1052:3HWRJOOET69383KIQ7H3RQSSRMWSE8", "current_trial": 149, "dateTime": 1513018244493, "trialdata": {"rt": -1, "stimulus": "<p id=\"stim\">7</p>", "key_press": -1, "trial_type": "single-stim", "trial_index": 149, "time_elapsed": 645066, "internal_node_id": "0.0-110.0-3.0"}}, {"uniqueid": "MTK1052:3HWRJOOET69383KIQ7H3RQSSRMWSE8", "current_trial": 150, "dateTime": 1513018245495, "trialdata": {"rt": -1, "stimulus": "<p id=\"stim\">6</p>", "key_press": -1, "trial_type": "single-stim", "trial_index": 150, "time_elapsed": 646068, "internal_node_id": "0.0-110.0-4.0"}}, {"uniqueid": "MTK1052:3HWRJOOET69383KIQ7H3RQSSRMWSE8", "current_trial": 151, "dateTime": 1513018246497, "trialdata": {"rt": -1, "stimulus": "<p id=\"stim\">5</p>", "key_press": -1, "trial_type": "single-stim", "trial_index": 151, "time_elapsed": 647070, "internal_node_id": "0.0-110.0-5.0"}}, {"uniqueid": "MTK1052:3HWRJOOET69383KIQ7H3RQSSRMWSE8", "current_trial": 152, "dateTime": 1513018247499, "trialdata": {"rt": -1, "stimulus": "<p id=\"stim\">4</p>", "key_press": -1, "trial_type": "single-stim", "trial_index": 152, "time_elapsed": 648072, "internal_node_id": "0.0-110.0-6.0"}}, {"uniqueid": "MTK1052:3HWRJOOET69383KIQ7H3RQSSRMWSE8", "current_trial": 153, "dateTime": 1513018248501, "trialdata": {"rt": -1, "stimulus": "<p id=\"stim\">3</p>", "key_press": -1, "trial_type": "single-stim", "trial_index": 153, "time_elapsed": 649074, "internal_node_id": "0.0-110.0-7.0"}}, {"uniqueid": "MTK1052:3HWRJOOET69383KIQ7H3RQSSRMWSE8", "current_trial": 154, "dateTime": 1513018249503, "trialdata": {"rt": -1, "stimulus": "<p id=\"stim\">2</p>", "key_press": -1, "trial_type": "single-stim", "trial_index": 154, "time_elapsed": 650076, "internal_node_id": "0.0-110.0-8.0"}}, {"uniqueid": "MTK1052:3HWRJOOET69383KIQ7H3RQSSRMWSE8", "current_trial": 155, "dateTime": 1513018250505, "trialdata": {"rt": -1, "stimulus": "<p id=\"stim\">1</p>", "key_press": -1, "trial_type": "single-stim", "trial_index": 155, "time_elapsed": 651078, "internal_node_id": "0.0-110.0-9.0"}}, {"uniqueid": "MTK1052:3HWRJOOET69383KIQ7H3RQSSRMWSE8", "current_trial": 156, "dateTime": 1513018252007, "trialdata": {"rt": -1, "stimulus": "<p id=\"stim\">+</p>", "key_press": -1, "type": "FIXATION", "trial_type": "single-stim", "trial_index": 156, "time_elapsed": 652580, "internal_node_id": "0.0-111.0-0.0"}}, {"uniqueid": "MTK1052:3HWRJOOET69383KIQ7H3RQSSRMWSE8", "current_trial": 157, "dateTime": 1513018253857, "trialdata": {"rt": -1000, "stimulus": "/static/audio/wordpool/GOBLIN.wav", "key_press": -1, "type": "PRES_AUD", "word": "goblin", "wordID": 644, "conditions": [12, 800, "a", 12000], "trial": 4, "serialpos": 0, "trial_type": "single-audio", "trial_index": 157, "time_elapsed": 654431, "internal_node_id": "0.0-112.0"}}, {"uniqueid": "MTK1052:3HWRJOOET69383KIQ7H3RQSSRMWSE8", "current_trial": 158, "dateTime": 1513018255485, "trialdata": {"rt": -1000, "stimulus": "/static/audio/wordpool/CRATER.wav", "key_press": -1, "type": "PRES_AUD", "word": "crater", "wordID": 399, "conditions": [12, 800, "a", 12000], "trial": 4, "serialpos": 1, "trial_type": "single-audio", "trial_index": 158, "time_elapsed": 656059, "internal_node_id": "0.0-113.0"}}, {"uniqueid": "MTK1052:3HWRJOOET69383KIQ7H3RQSSRMWSE8", "current_trial": 159, "dateTime": 1513018257318, "trialdata": {"rt": -1000, "stimulus": "/static/audio/wordpool/LAVA.wav", "key_press": -1, "type": "PRES_AUD", "word": "lava", "wordID": 803, "conditions": [12, 800, "a", 12000], "trial": 4, "serialpos": 2, "trial_type": "single-audio", "trial_index": 159, "time_elapsed": 657892, "internal_node_id": "0.0-114.0"}}, {"uniqueid": "MTK1052:3HWRJOOET69383KIQ7H3RQSSRMWSE8", "current_trial": 160, "dateTime": 1513018259240, "trialdata": {"rt": -1000, "stimulus": "/static/audio/wordpool/KNIFE.wav", "key_press": -1, "type": "PRES_AUD", "word": "knife", "wordID": 784, "conditions": [12, 800, "a", 12000], "trial": 4, "serialpos": 3, "trial_type": "single-audio", "trial_index": 160, "time_elapsed": 659814, "internal_node_id": "0.0-115.0"}}, {"uniqueid": "MTK1052:3HWRJOOET69383KIQ7H3RQSSRMWSE8", "current_trial": 161, "dateTime": 1513018260958, "trialdata": {"rt": -1000, "stimulus": "/static/audio/wordpool/SPIDER.wav", "key_press": -1, "type": "PRES_AUD", "word": "spider", "wordID": 1350, "conditions": [12, 800, "a", 12000], "trial": 4, "serialpos": 4, "trial_type": "single-audio", "trial_index": 161, "time_elapsed": 661532, "internal_node_id": "0.0-116.0"}}, {"uniqueid": "MTK1052:3HWRJOOET69383KIQ7H3RQSSRMWSE8", "current_trial": 162, "dateTime": 1513018262948, "trialdata": {"rt": -1000, "stimulus": "/static/audio/wordpool/MUFFIN.wav", "key_press": -1, "type": "PRES_AUD", "word": "muffin", "wordID": 928, "conditions": [12, 800, "a", 12000], "trial": 4, "serialpos": 5, "trial_type": "single-audio", "trial_index": 162, "time_elapsed": 663522, "internal_node_id": "0.0-117.0"}}, {"uniqueid": "MTK1052:3HWRJOOET69383KIQ7H3RQSSRMWSE8", "current_trial": 163, "dateTime": 1513018264852, "trialdata": {"rt": -1000, "stimulus": "/static/audio/wordpool/POET.wav", "key_press": -1, "type": "PRES_AUD", "word": "poet", "wordID": 1094, "conditions": [12, 800, "a", 12000], "trial": 4, "serialpos": 6, "trial_type": "single-audio", "trial_index": 163, "time_elapsed": 665426, "internal_node_id": "0.0-118.0"}}, {"uniqueid": "MTK1052:3HWRJOOET69383KIQ7H3RQSSRMWSE8", "current_trial": 164, "dateTime": 1513018266571, "trialdata": {"rt": -1000, "stimulus": "/static/audio/wordpool/THIEF.wav", "key_press": -1, "type": "PRES_AUD", "word": "thief", "wordID": 1455, "conditions": [12, 800, "a", 12000], "trial": 4, "serialpos": 7, "trial_type": "single-audio", "trial_index": 164, "time_elapsed": 667145, "internal_node_id": "0.0-119.0"}}, {"uniqueid": "MTK1052:3HWRJOOET69383KIQ7H3RQSSRMWSE8", "current_trial": 165, "dateTime": 1513018268458, "trialdata": {"rt": -1000, "stimulus": "/static/audio/wordpool/TOURIST.wav", "key_press": -1, "type": "PRES_AUD", "word": "tourist", "wordID": 1487, "conditions": [12, 800, "a", 12000], "trial": 4, "serialpos": 8, "trial_type": "single-audio", "trial_index": 165, "time_elapsed": 669032, "internal_node_id": "0.0-120.0"}}, {"uniqueid": "MTK1052:3HWRJOOET69383KIQ7H3RQSSRMWSE8", "current_trial": 166, "dateTime": 1513018270256, "trialdata": {"rt": -1000, "stimulus": "/static/audio/wordpool/SCISSORS.wav", "key_press": -1, "type": "PRES_AUD", "word": "scissors", "wordID": 1249, "conditions": [12, 800, "a", 12000], "trial": 4, "serialpos": 9, "trial_type": "single-audio", "trial_index": 166, "time_elapsed": 670830, "internal_node_id": "0.0-121.0"}}, {"uniqueid": "MTK1052:3HWRJOOET69383KIQ7H3RQSSRMWSE8", "current_trial": 167, "dateTime": 1513018271866, "trialdata": {"rt": -1000, "stimulus": "/static/audio/wordpool/PEANUT.wav", "key_press": -1, "type": "PRES_AUD", "word": "peanut", "wordID": 1031, "conditions": [12, 800, "a", 12000], "trial": 4, "serialpos": 10, "trial_type": "single-audio", "trial_index": 167, "time_elapsed": 672440, "internal_node_id": "0.0-122.0"}}, {"uniqueid": "MTK1052:3HWRJOOET69383KIQ7H3RQSSRMWSE8", "current_trial": 168, "dateTime": 1513018273685, "trialdata": {"rt": -1000, "stimulus": "/static/audio/wordpool/LUMBER.wav", "key_press": -1, "type": "PRES_AUD", "word": "lumber", "wordID": 847, "conditions": [12, 800, "a", 12000], "trial": 4, "serialpos": 11, "trial_type": "single-audio", "trial_index": 168, "time_elapsed": 674259, "internal_node_id": "0.0-123.0"}}, {"uniqueid": "MTK1052:3HWRJOOET69383KIQ7H3RQSSRMWSE8", "current_trial": 169, "dateTime": 1513018275029, "trialdata": {"rt": -1, "stimulus": "", "key_press": -1, "type": "PRE_RECALL_DELAY", "trial_type": "single-stim", "trial_index": 169, "time_elapsed": 675603, "internal_node_id": "0.0-124.0-0.0"}}, {"uniqueid": "MTK1052:3HWRJOOET69383KIQ7H3RQSSRMWSE8", "current_trial": 170, "dateTime": 1513018275532, "trialdata": {"rt": -1000, "stimulus": "/static/audio/400Hz.wav", "key_press": -1, "type": "PRE_RECALL_ALERT", "trial_type": "single-audio", "trial_index": 170, "time_elapsed": 676106, "internal_node_id": "0.0-125.0"}}, {"uniqueid": "MTK1052:3HWRJOOET69383KIQ7H3RQSSRMWSE8", "current_trial": 171, "dateTime": 1513018335545, "trialdata": {"rt": [3358, 5060, 6729], "recwords": ["peanut", "lava", "crazy"], "type": "FREE_RECALL", "conditions": [12, 800, "a", 12000], "trial": 4, "trial_type": "free-recall", "trial_index": 171, "time_elapsed": 736110, "internal_node_id": "0.0-126.0-0.0"}}, {"uniqueid": "MTK1052:3HWRJOOET69383KIQ7H3RQSSRMWSE8", "current_trial": 172, "dateTime": 1513018344734, "trialdata": {"rt": 7187, "key_press": 13, "type": "INSTRUCTIONS", "trial_type": "text", "trial_index": 172, "time_elapsed": 745308, "internal_node_id": "0.0-127.0"}}, {"uniqueid": "MTK1052:3HWRJOOET69383KIQ7H3RQSSRMWSE8", "current_trial": 173, "dateTime": 1513018370741, "trialdata": {"rt": [4660, 6437, 8184, 9622, 11487, 13003, 15174, 16644, 18152, 20757, 22317, 23924], "responses": ["20", "8", "19", "17", "21", "14", "20", "9", "16", "17", "18", "19"], "num1": [7, 3, 6, 8, 6, 5, 8, 3, 7, 7, 8, 2, 2], "num2": [6, 2, 9, 8, 6, 2, 6, 5, 3, 5, 2, 8, 1], "num3": [7, 3, 5, 1, 9, 7, 6, 1, 6, 5, 8, 9, 9], "type": "DISTRACTOR", "conditions": [24, 1600, "v", 24000], "trial": 5, "trial_type": "math-distractor", "trial_index": 173, "time_elapsed": 771314, "internal_node_id": "0.0-128.0"}}, {"uniqueid": "MTK1052:3HWRJOOET69383KIQ7H3RQSSRMWSE8", "current_trial": 174, "dateTime": 1513018373744, "trialdata": {"rt": -1, "stimulus": "<p id=\"stim\">10</p>", "key_press": -1, "trial_type": "single-stim", "trial_index": 174, "time_elapsed": 774318, "internal_node_id": "0.0-129.0-0.0"}}, {"uniqueid": "MTK1052:3HWRJOOET69383KIQ7H3RQSSRMWSE8", "current_trial": 175, "dateTime": 1513018374746, "trialdata": {"rt": -1, "stimulus": "<p id=\"stim\">9</p>", "key_press": -1, "trial_type": "single-stim", "trial_index": 175, "time_elapsed": 775320, "internal_node_id": "0.0-129.0-1.0"}}, {"uniqueid": "MTK1052:3HWRJOOET69383KIQ7H3RQSSRMWSE8", "current_trial": 176, "dateTime": 1513018375749, "trialdata": {"rt": -1, "stimulus": "<p id=\"stim\">8</p>", "key_press": -1, "trial_type": "single-stim", "trial_index": 176, "time_elapsed": 776322, "internal_node_id": "0.0-129.0-2.0"}}, {"uniqueid": "MTK1052:3HWRJOOET69383KIQ7H3RQSSRMWSE8", "current_trial": 177, "dateTime": 1513018376751, "trialdata": {"rt": -1, "stimulus": "<p id=\"stim\">7</p>", "key_press": -1, "trial_type": "single-stim", "trial_index": 177, "time_elapsed": 777325, "internal_node_id": "0.0-129.0-3.0"}}, {"uniqueid": "MTK1052:3HWRJOOET69383KIQ7H3RQSSRMWSE8", "current_trial": 178, "dateTime": 1513018377753, "trialdata": {"rt": -1, "stimulus": "<p id=\"stim\">6</p>", "key_press": -1, "trial_type": "single-stim", "trial_index": 178, "time_elapsed": 778327, "internal_node_id": "0.0-129.0-4.0"}}, {"uniqueid": "MTK1052:3HWRJOOET69383KIQ7H3RQSSRMWSE8", "current_trial": 179, "dateTime": 1513018378754, "trialdata": {"rt": -1, "stimulus": "<p id=\"stim\">5</p>", "key_press": -1, "trial_type": "single-stim", "trial_index": 179, "time_elapsed": 779328, "internal_node_id": "0.0-129.0-5.0"}}, {"uniqueid": "MTK1052:3HWRJOOET69383KIQ7H3RQSSRMWSE8", "current_trial": 180, "dateTime": 1513018379757, "trialdata": {"rt": -1, "stimulus": "<p id=\"stim\">4</p>", "key_press": -1, "trial_type": "single-stim", "trial_index": 180, "time_elapsed": 780330, "internal_node_id": "0.0-129.0-6.0"}}, {"uniqueid": "MTK1052:3HWRJOOET69383KIQ7H3RQSSRMWSE8", "current_trial": 181, "dateTime": 1513018380758, "trialdata": {"rt": -1, "stimulus": "<p id=\"stim\">3</p>", "key_press": -1, "trial_type": "single-stim", "trial_index": 181, "time_elapsed": 781331, "internal_node_id": "0.0-129.0-7.0"}}, {"uniqueid": "MTK1052:3HWRJOOET69383KIQ7H3RQSSRMWSE8", "current_trial": 182, "dateTime": 1513018381761, "trialdata": {"rt": -1, "stimulus": "<p id=\"stim\">2</p>", "key_press": -1, "trial_type": "single-stim", "trial_index": 182, "time_elapsed": 782335, "internal_node_id": "0.0-129.0-8.0"}}, {"uniqueid": "MTK1052:3HWRJOOET69383KIQ7H3RQSSRMWSE8", "current_trial": 183, "dateTime": 1513018382763, "trialdata": {"rt": -1, "stimulus": "<p id=\"stim\">1</p>", "key_press": -1, "trial_type": "single-stim", "trial_index": 183, "time_elapsed": 783336, "internal_node_id": "0.0-129.0-9.0"}}, {"uniqueid": "MTK1052:3HWRJOOET69383KIQ7H3RQSSRMWSE8", "current_trial": 184, "dateTime": 1513018384265, "trialdata": {"rt": -1, "stimulus": "<p id=\"stim\">+</p>", "key_press": -1, "type": "FIXATION", "trial_type": "single-stim", "trial_index": 184, "time_elapsed": 784838, "internal_node_id": "0.0-130.0-0.0"}}, {"uniqueid": "MTK1052:3HWRJOOET69383KIQ7H3RQSSRMWSE8", "current_trial": 185, "dateTime": 1513018385868, "trialdata": {"rt": -1, "stimulus": "<p id=\"stim\">SCARECROW</p>", "key_press": -1, "type": "PRES_VIS", "word": "scarecrow", "wordID": 1244, "conditions": [24, 1600, "v", 24000], "trial": 5, "serialpos": 0, "trial_type": "single-stim", "trial_index": 185, "time_elapsed": 786441, "internal_node_id": "0.0-131.0"}}, {"uniqueid": "MTK1052:3HWRJOOET69383KIQ7H3RQSSRMWSE8", "current_trial": 186, "dateTime": 1513018388429, "trialdata": {"rt": -1, "stimulus": "<p id=\"stim\">DUST</p>", "key_press": -1, "type": "PRES_VIS", "word": "dust", "wordID": 507, "conditions": [24, 1600, "v", 24000], "trial": 5, "serialpos": 1, "trial_type": "single-stim", "trial_index": 186, "time_elapsed": 789002, "internal_node_id": "0.0-132.0"}}, {"uniqueid": "MTK1052:3HWRJOOET69383KIQ7H3RQSSRMWSE8", "current_trial": 187, "dateTime": 1513018390953, "trialdata": {"rt": -1, "stimulus": "<p id=\"stim\">QUARTER</p>", "key_press": -1, "type": "PRES_VIS", "word": "quarter", "wordID": 1147, "conditions": [24, 1600, "v", 24000], "trial": 5, "serialpos": 2, "trial_type": "single-stim", "trial_index": 187, "time_elapsed": 791521, "internal_node_id": "0.0-133.0"}}, {"uniqueid": "MTK1052:3HWRJOOET69383KIQ7H3RQSSRMWSE8", "current_trial": 188, "dateTime": 1513018393597, "trialdata": {"rt": -1, "stimulus": "<p id=\"stim\">SCALLOP</p>", "key_press": -1, "type": "PRES_VIS", "word": "scallop", "wordID": 1241, "conditions": [24, 1600, "v", 24000], "trial": 5, "serialpos": 3, "trial_type": "single-stim", "trial_index": 188, "time_elapsed": 794170, "internal_node_id": "0.0-134.0"}}, {"uniqueid": "MTK1052:3HWRJOOET69383KIQ7H3RQSSRMWSE8", "current_trial": 189, "dateTime": 1513018396302, "trialdata": {"rt": -1, "stimulus": "<p id=\"stim\">PIMPLE</p>", "key_press": -1, "type": "PRES_VIS", "word": "pimple", "wordID": 1070, "conditions": [24, 1600, "v", 24000], "trial": 5, "serialpos": 4, "trial_type": "single-stim", "trial_index": 189, "time_elapsed": 796875, "internal_node_id": "0.0-135.0"}}, {"uniqueid": "MTK1052:3HWRJOOET69383KIQ7H3RQSSRMWSE8", "current_trial": 190, "dateTime": 1513018398776, "trialdata": {"rt": -1, "stimulus": "<p id=\"stim\">LACE</p>", "key_press": -1, "type": "PRES_VIS", "word": "lace", "wordID": 791, "conditions": [24, 1600, "v", 24000], "trial": 5, "serialpos": 5, "trial_type": "single-stim", "trial_index": 190, "time_elapsed": 799350, "internal_node_id": "0.0-136.0"}}, {"uniqueid": "MTK1052:3HWRJOOET69383KIQ7H3RQSSRMWSE8", "current_trial": 191, "dateTime": 1513018401716, "trialdata": {"rt": -1, "stimulus": "<p id=\"stim\">VELVET</p>", "key_press": -1, "type": "PRES_VIS", "word": "velvet", "wordID": 1554, "conditions": [24, 1600, "v", 24000], "trial": 5, "serialpos": 6, "trial_type": "single-stim", "trial_index": 191, "time_elapsed": 802289, "internal_node_id": "0.0-137.0"}}, {"uniqueid": "MTK1052:3HWRJOOET69383KIQ7H3RQSSRMWSE8", "current_trial": 192, "dateTime": 1513018404312, "trialdata": {"rt": -1, "stimulus": "<p id=\"stim\">CONVICT</p>", "key_press": -1, "type": "PRES_VIS", "word": "convict", "wordID": 370, "conditions": [24, 1600, "v", 24000], "trial": 5, "serialpos": 7, "trial_type": "single-stim", "trial_index": 192, "time_elapsed": 804886, "internal_node_id": "0.0-138.0"}}, {"uniqueid": "MTK1052:3HWRJOOET69383KIQ7H3RQSSRMWSE8", "current_trial": 193, "dateTime": 1513018407036, "trialdata": {"rt": -1, "stimulus": "<p id=\"stim\">FRECKLE</p>", "key_press": -1, "type": "PRES_VIS", "word": "freckle", "wordID": 601, "conditions": [24, 1600, "v", 24000], "trial": 5, "serialpos": 8, "trial_type": "single-stim", "trial_index": 193, "time_elapsed": 807609, "internal_node_id": "0.0-139.0"}}, {"uniqueid": "MTK1052:3HWRJOOET69383KIQ7H3RQSSRMWSE8", "current_trial": 194, "dateTime": 1513018409790, "trialdata": {"rt": -1, "stimulus": "<p id=\"stim\">MILDEW</p>", "key_press": -1, "type": "PRES_VIS", "word": "mildew", "wordID": 892, "conditions": [24, 1600, "v", 24000], "trial": 5, "serialpos": 9, "trial_type": "single-stim", "trial_index": 194, "time_elapsed": 810363, "internal_node_id": "0.0-140.0"}}, {"uniqueid": "MTK1052:3HWRJOOET69383KIQ7H3RQSSRMWSE8", "current_trial": 195, "dateTime": 1513018412387, "trialdata": {"rt": -1, "stimulus": "<p id=\"stim\">CLAM</p>", "key_press": -1, "type": "PRES_VIS", "word": "clam", "wordID": 314, "conditions": [24, 1600, "v", 24000], "trial": 5, "serialpos": 10, "trial_type": "single-stim", "trial_index": 195, "time_elapsed": 812960, "internal_node_id": "0.0-141.0"}}, {"uniqueid": "MTK1052:3HWRJOOET69383KIQ7H3RQSSRMWSE8", "current_trial": 196, "dateTime": 1513018415155, "trialdata": {"rt": -1, "stimulus": "<p id=\"stim\">PORTRAIT</p>", "key_press": -1, "type": "PRES_VIS", "word": "portrait", "wordID": 1110, "conditions": [24, 1600, "v", 24000], "trial": 5, "serialpos": 11, "trial_type": "single-stim", "trial_index": 196, "time_elapsed": 815728, "internal_node_id": "0.0-142.0"}}, {"uniqueid": "MTK1052:3HWRJOOET69383KIQ7H3RQSSRMWSE8", "current_trial": 197, "dateTime": 1513018417632, "trialdata": {"rt": -1, "stimulus": "<p id=\"stim\">CHEMIST</p>", "key_press": -1, "type": "PRES_VIS", "word": "chemist", "wordID": 291, "conditions": [24, 1600, "v", 24000], "trial": 5, "serialpos": 12, "trial_type": "single-stim", "trial_index": 197, "time_elapsed": 818205, "internal_node_id": "0.0-143.0"}}, {"uniqueid": "MTK1052:3HWRJOOET69383KIQ7H3RQSSRMWSE8", "current_trial": 198, "dateTime": 1513018420189, "trialdata": {"rt": -1, "stimulus": "<p id=\"stim\">TAXI</p>", "key_press": -1, "type": "PRES_VIS", "word": "taxi", "wordID": 1437, "conditions": [24, 1600, "v", 24000], "trial": 5, "serialpos": 13, "trial_type": "single-stim", "trial_index": 198, "time_elapsed": 820762, "internal_node_id": "0.0-144.0"}}, {"uniqueid": "MTK1052:3HWRJOOET69383KIQ7H3RQSSRMWSE8", "current_trial": 199, "dateTime": 1513018422900, "trialdata": {"rt": -1, "stimulus": "<p id=\"stim\">MILK</p>", "key_press": -1, "type": "PRES_VIS", "word": "milk", "wordID": 894, "conditions": [24, 1600, "v", 24000], "trial": 5, "serialpos": 14, "trial_type": "single-stim", "trial_index": 199, "time_elapsed": 823473, "internal_node_id": "0.0-145.0"}}, {"uniqueid": "MTK1052:3HWRJOOET69383KIQ7H3RQSSRMWSE8", "current_trial": 200, "dateTime": 1513018425378, "trialdata": {"rt": -1, "stimulus": "<p id=\"stim\">HONEY</p>", "key_press": -1, "type": "PRES_VIS", "word": "honey", "wordID": 712, "conditions": [24, 1600, "v", 24000], "trial": 5, "serialpos": 15, "trial_type": "single-stim", "trial_index": 200, "time_elapsed": 825951, "internal_node_id": "0.0-146.0"}}, {"uniqueid": "MTK1052:3HWRJOOET69383KIQ7H3RQSSRMWSE8", "current_trial": 201, "dateTime": 1513018428173, "trialdata": {"rt": -1, "stimulus": "<p id=\"stim\">GRAPE</p>", "key_press": -1, "type": "PRES_VIS", "word": "grape", "wordID": 653, "conditions": [24, 1600, "v", 24000], "trial": 5, "serialpos": 16, "trial_type": "single-stim", "trial_index": 201, "time_elapsed": 828746, "internal_node_id": "0.0-147.0"}}, {"uniqueid": "MTK1052:3HWRJOOET69383KIQ7H3RQSSRMWSE8", "current_trial": 202, "dateTime": 1513018430929, "trialdata": {"rt": -1, "stimulus": "<p id=\"stim\">JUDGE</p>", "key_press": -1, "type": "PRES_VIS", "word": "judge", "wordID": 760, "conditions": [24, 1600, "v", 24000], "trial": 5, "serialpos": 17, "trial_type": "single-stim", "trial_index": 202, "time_elapsed": 831502, "internal_node_id": "0.0-148.0"}}, {"uniqueid": "MTK1052:3HWRJOOET69383KIQ7H3RQSSRMWSE8", "current_trial": 203, "dateTime": 1513018433645, "trialdata": {"rt": -1, "stimulus": "<p id=\"stim\">HUSBAND</p>", "key_press": -1, "type": "PRES_VIS", "word": "husband", "wordID": 727, "conditions": [24, 1600, "v", 24000], "trial": 5, "serialpos": 18, "trial_type": "single-stim", "trial_index": 203, "time_elapsed": 834219, "internal_node_id": "0.0-149.0"}}, {"uniqueid": "MTK1052:3HWRJOOET69383KIQ7H3RQSSRMWSE8", "current_trial": 204, "dateTime": 1513018436249, "trialdata": {"rt": -1, "stimulus": "<p id=\"stim\">BARLEY</p>", "key_press": -1, "type": "PRES_VIS", "word": "barley", "wordID": 87, "conditions": [24, 1600, "v", 24000], "trial": 5, "serialpos": 19, "trial_type": "single-stim", "trial_index": 204, "time_elapsed": 836823, "internal_node_id": "0.0-150.0"}}, {"uniqueid": "MTK1052:3HWRJOOET69383KIQ7H3RQSSRMWSE8", "current_trial": 205, "dateTime": 1513018439081, "trialdata": {"rt": -1, "stimulus": "<p id=\"stim\">DANDRUFF</p>", "key_press": -1, "type": "PRES_VIS", "word": "dandruff", "wordID": 438, "conditions": [24, 1600, "v", 24000], "trial": 5, "serialpos": 20, "trial_type": "single-stim", "trial_index": 205, "time_elapsed": 839655, "internal_node_id": "0.0-151.0"}}, {"uniqueid": "MTK1052:3HWRJOOET69383KIQ7H3RQSSRMWSE8", "current_trial": 206, "dateTime": 1513018441827, "trialdata": {"rt": -1, "stimulus": "<p id=\"stim\">CLOUD</p>", "key_press": -1, "type": "PRES_VIS", "word": "cloud", "wordID": 327, "conditions": [24, 1600, "v", 24000], "trial": 5, "serialpos": 21, "trial_type": "single-stim", "trial_index": 206, "time_elapsed": 842401, "internal_node_id": "0.0-152.0"}}, {"uniqueid": "MTK1052:3HWRJOOET69383KIQ7H3RQSSRMWSE8", "current_trial": 207, "dateTime": 1513018444525, "trialdata": {"rt": -1, "stimulus": "<p id=\"stim\">FRAGRANCE</p>", "key_press": -1, "type": "PRES_VIS", "word": "fragrance", "wordID": 598, "conditions": [24, 1600, "v", 24000], "trial": 5, "serialpos": 22, "trial_type": "single-stim", "trial_index": 207, "time_elapsed": 845098, "internal_node_id": "0.0-153.0"}}, {"uniqueid": "MTK1052:3HWRJOOET69383KIQ7H3RQSSRMWSE8", "current_trial": 208, "dateTime": 1513018447106, "trialdata": {"rt": -1, "stimulus": "<p id=\"stim\">HERO</p>", "key_press": -1, "type": "PRES_VIS", "word": "hero", "wordID": 705, "conditions": [24, 1600, "v", 24000], "trial": 5, "serialpos": 23, "trial_type": "single-stim", "trial_index": 208, "time_elapsed": 847679, "internal_node_id": "0.0-154.0"}}, {"uniqueid": "MTK1052:3HWRJOOET69383KIQ7H3RQSSRMWSE8", "current_trial": 209, "dateTime": 1513018449460, "trialdata": {"rt": -1, "stimulus": "", "key_press": -1, "type": "PRE_RECALL_DELAY", "trial_type": "single-stim", "trial_index": 209, "time_elapsed": 850033, "internal_node_id": "0.0-155.0-0.0"}}, {"uniqueid": "MTK1052:3HWRJOOET69383KIQ7H3RQSSRMWSE8", "current_trial": 210, "dateTime": 1513018449971, "trialdata": {"rt": -1000, "stimulus": "/static/audio/400Hz.wav", "key_press": -1, "type": "PRE_RECALL_ALERT", "trial_type": "single-audio", "trial_index": 210, "time_elapsed": 850545, "internal_node_id": "0.0-156.0"}}, {"uniqueid": "MTK1052:3HWRJOOET69383KIQ7H3RQSSRMWSE8", "current_trial": 211, "dateTime": 1513018509983, "trialdata": {"rt": [2261, 4236, 9864, 12071, 14283, 17314, 20304, 22785, 26901], "recwords": ["dust", "cloud", "scallop", "pimple", "lace", "velvet", "convict", "freckle", "mildew"], "type": "FREE_RECALL", "conditions": [24, 1600, "v", 24000], "trial": 5, "trial_type": "free-recall", "trial_index": 211, "time_elapsed": 910549, "internal_node_id": "0.0-157.0-0.0"}}, {"uniqueid": "MTK1052:3HWRJOOET69383KIQ7H3RQSSRMWSE8", "current_trial": 212, "dateTime": 1513018513819, "trialdata": {"rt": 1833, "key_press": 13, "type": "INSTRUCTIONS", "trial_type": "text", "trial_index": 212, "time_elapsed": 914393, "internal_node_id": "0.0-158.0"}}, {"uniqueid": "MTK1052:3HWRJOOET69383KIQ7H3RQSSRMWSE8", "current_trial": 213, "dateTime": 1513018539823, "trialdata": {"rt": [2037, 4007, 5567, 7267, 8838, 10487, 11935, 13583, 15851, 17475, 19253, 20844, 23152], "responses": ["14", "12", "15", "15", "7", "11", "9", "15", "15", "15", "10", "17", "23"], "num1": [6, 1, 6, 4, 2, 1, 6, 4, 3, 9, 1, 3, 8, 4], "num2": [6, 3, 7, 9, 1, 2, 2, 5, 5, 3, 6, 5, 6, 1], "num3": [2, 8, 2, 2, 4, 8, 1, 6, 7, 3, 3, 9, 9, 6], "type": "DISTRACTOR", "conditions": [12, 800, "a", 24000], "trial": 6, "trial_type": "math-distractor", "trial_index": 213, "time_elapsed": 940397, "internal_node_id": "0.0-159.0"}}, {"uniqueid": "MTK1052:3HWRJOOET69383KIQ7H3RQSSRMWSE8", "current_trial": 214, "dateTime": 1513018542827, "trialdata": {"rt": -1, "stimulus": "<p id=\"stim\">10</p>", "key_press": -1, "trial_type": "single-stim", "trial_index": 214, "time_elapsed": 943400, "internal_node_id": "0.0-160.0-0.0"}}, {"uniqueid": "MTK1052:3HWRJOOET69383KIQ7H3RQSSRMWSE8", "current_trial": 215, "dateTime": 1513018543829, "trialdata": {"rt": -1, "stimulus": "<p id=\"stim\">9</p>", "key_press": -1, "trial_type": "single-stim", "trial_index": 215, "time_elapsed": 944402, "internal_node_id": "0.0-160.0-1.0"}}, {"uniqueid": "MTK1052:3HWRJOOET69383KIQ7H3RQSSRMWSE8", "current_trial": 216, "dateTime": 1513018544831, "trialdata": {"rt": -1, "stimulus": "<p id=\"stim\">8</p>", "key_press": -1, "trial_type": "single-stim", "trial_index": 216, "time_elapsed": 945404, "internal_node_id": "0.0-160.0-2.0"}}, {"uniqueid": "MTK1052:3HWRJOOET69383KIQ7H3RQSSRMWSE8", "current_trial": 217, "dateTime": 1513018545833, "trialdata": {"rt": -1, "stimulus": "<p id=\"stim\">7</p>", "key_press": -1, "trial_type": "single-stim", "trial_index": 217, "time_elapsed": 946406, "internal_node_id": "0.0-160.0-3.0"}}, {"uniqueid": "MTK1052:3HWRJOOET69383KIQ7H3RQSSRMWSE8", "current_trial": 218, "dateTime": 1513018546835, "trialdata": {"rt": -1, "stimulus": "<p id=\"stim\">6</p>", "key_press": -1, "trial_type": "single-stim", "trial_index": 218, "time_elapsed": 947408, "internal_node_id": "0.0-160.0-4.0"}}, {"uniqueid": "MTK1052:3HWRJOOET69383KIQ7H3RQSSRMWSE8", "current_trial": 219, "dateTime": 1513018547837, "trialdata": {"rt": -1, "stimulus": "<p id=\"stim\">5</p>", "key_press": -1, "trial_type": "single-stim", "trial_index": 219, "time_elapsed": 948411, "internal_node_id": "0.0-160.0-5.0"}}, {"uniqueid": "MTK1052:3HWRJOOET69383KIQ7H3RQSSRMWSE8", "current_trial": 220, "dateTime": 1513018548839, "trialdata": {"rt": -1, "stimulus": "<p id=\"stim\">4</p>", "key_press": -1, "trial_type": "single-stim", "trial_index": 220, "time_elapsed": 949413, "internal_node_id": "0.0-160.0-6.0"}}, {"uniqueid": "MTK1052:3HWRJOOET69383KIQ7H3RQSSRMWSE8", "current_trial": 221, "dateTime": 1513018549842, "trialdata": {"rt": -1, "stimulus": "<p id=\"stim\">3</p>", "key_press": -1, "trial_type": "single-stim", "trial_index": 221, "time_elapsed": 950415, "internal_node_id": "0.0-160.0-7.0"}}, {"uniqueid": "MTK1052:3HWRJOOET69383KIQ7H3RQSSRMWSE8", "current_trial": 222, "dateTime": 1513018550844, "trialdata": {"rt": -1, "stimulus": "<p id=\"stim\">2</p>", "key_press": -1, "trial_type": "single-stim", "trial_index": 222, "time_elapsed": 951417, "internal_node_id": "0.0-160.0-8.0"}}, {"uniqueid": "MTK1052:3HWRJOOET69383KIQ7H3RQSSRMWSE8", "current_trial": 223, "dateTime": 1513018551845, "trialdata": {"rt": -1, "stimulus": "<p id=\"stim\">1</p>", "key_press": -1, "trial_type": "single-stim", "trial_index": 223, "time_elapsed": 952418, "internal_node_id": "0.0-160.0-9.0"}}, {"uniqueid": "MTK1052:3HWRJOOET69383KIQ7H3RQSSRMWSE8", "current_trial": 224, "dateTime": 1513018553346, "trialdata": {"rt": -1, "stimulus": "<p id=\"stim\">+</p>", "key_press": -1, "type": "FIXATION", "trial_type": "single-stim", "trial_index": 224, "time_elapsed": 953920, "internal_node_id": "0.0-161.0-0.0"}}, {"uniqueid": "MTK1052:3HWRJOOET69383KIQ7H3RQSSRMWSE8", "current_trial": 225, "dateTime": 1513018555105, "trialdata": {"rt": -1000, "stimulus": "/static/audio/wordpool/PROTON.wav", "key_press": -1, "type": "PRES_AUD", "word": "proton", "wordID": 1131, "conditions": [12, 800, "a", 24000], "trial": 6, "serialpos": 0, "trial_type": "single-audio", "trial_index": 225, "time_elapsed": 955679, "internal_node_id": "0.0-162.0"}}, {"uniqueid": "MTK1052:3HWRJOOET69383KIQ7H3RQSSRMWSE8", "current_trial": 226, "dateTime": 1513018556851, "trialdata": {"rt": -1000, "stimulus": "/static/audio/wordpool/ATLAS.wav", "key_press": -1, "type": "PRES_AUD", "word": "atlas", "wordID": 52, "conditions": [12, 800, "a", 24000], "trial": 6, "serialpos": 1, "trial_type": "single-audio", "trial_index": 226, "time_elapsed": 957425, "internal_node_id": "0.0-163.0"}}, {"uniqueid": "MTK1052:3HWRJOOET69383KIQ7H3RQSSRMWSE8", "current_trial": 227, "dateTime": 1513018558812, "trialdata": {"rt": -1000, "stimulus": "/static/audio/wordpool/DAUGHTER.wav", "key_press": -1, "type": "PRES_AUD", "word": "daughter", "wordID": 441, "conditions": [12, 800, "a", 24000], "trial": 6, "serialpos": 2, "trial_type": "single-audio", "trial_index": 227, "time_elapsed": 959385, "internal_node_id": "0.0-164.0"}}, {"uniqueid": "MTK1052:3HWRJOOET69383KIQ7H3RQSSRMWSE8", "current_trial": 228, "dateTime": 1513018560495, "trialdata": {"rt": -1000, "stimulus": "/static/audio/wordpool/SALMON.wav", "key_press": -1, "type": "PRES_AUD", "word": "salmon", "wordID": 1226, "conditions": [12, 800, "a", 24000], "trial": 6, "serialpos": 3, "trial_type": "single-audio", "trial_index": 228, "time_elapsed": 961069, "internal_node_id": "0.0-165.0"}}, {"uniqueid": "MTK1052:3HWRJOOET69383KIQ7H3RQSSRMWSE8", "current_trial": 229, "dateTime": 1513018562281, "trialdata": {"rt": -1000, "stimulus": "/static/audio/wordpool/OX.wav", "key_press": -1, "type": "PRES_AUD", "word": "ox", "wordID": 993, "conditions": [12, 800, "a", 24000], "trial": 6, "serialpos": 4, "trial_type": "single-audio", "trial_index": 229, "time_elapsed": 962855, "internal_node_id": "0.0-166.0"}}, {"uniqueid": "MTK1052:3HWRJOOET69383KIQ7H3RQSSRMWSE8", "current_trial": 230, "dateTime": 1513018564276, "trialdata": {"rt": -1000, "stimulus": "/static/audio/wordpool/WRIST.wav", "key_press": -1, "type": "PRES_AUD", "word": "wrist", "wordID": 1625, "conditions": [12, 800, "a", 24000], "trial": 6, "serialpos": 5, "trial_type": "single-audio", "trial_index": 230, "time_elapsed": 964850, "internal_node_id": "0.0-167.0"}}, {"uniqueid": "MTK1052:3HWRJOOET69383KIQ7H3RQSSRMWSE8", "current_trial": 231, "dateTime": 1513018565934, "trialdata": {"rt": -1000, "stimulus": "/static/audio/wordpool/FINGER.wav", "key_press": -1, "type": "PRES_AUD", "word": "finger", "wordID": 566, "conditions": [12, 800, "a", 24000], "trial": 6, "serialpos": 6, "trial_type": "single-audio", "trial_index": 231, "time_elapsed": 966508, "internal_node_id": "0.0-168.0"}}, {"uniqueid": "MTK1052:3HWRJOOET69383KIQ7H3RQSSRMWSE8", "current_trial": 232, "dateTime": 1513018567693, "trialdata": {"rt": -1000, "stimulus": "/static/audio/wordpool/STOMACH.wav", "key_press": -1, "type": "PRES_AUD", "word": "stomach", "wordID": 1383, "conditions": [12, 800, "a", 24000], "trial": 6, "serialpos": 7, "trial_type": "single-audio", "trial_index": 232, "time_elapsed": 968267, "internal_node_id": "0.0-169.0"}}, {"uniqueid": "MTK1052:3HWRJOOET69383KIQ7H3RQSSRMWSE8", "current_trial": 233, "dateTime": 1513018569474, "trialdata": {"rt": -1000, "stimulus": "/static/audio/wordpool/FLIPPER.wav", "key_press": -1, "type": "PRES_AUD", "word": "flipper", "wordID": 579, "conditions": [12, 800, "a", 24000], "trial": 6, "serialpos": 8, "trial_type": "single-audio", "trial_index": 233, "time_elapsed": 970048, "internal_node_id": "0.0-170.0"}}, {"uniqueid": "MTK1052:3HWRJOOET69383KIQ7H3RQSSRMWSE8", "current_trial": 234, "dateTime": 1513018571231, "trialdata": {"rt": -1000, "stimulus": "/static/audio/wordpool/PIGEON.wav", "key_press": -1, "type": "PRES_AUD", "word": "pigeon", "wordID": 1064, "conditions": [12, 800, "a", 24000], "trial": 6, "serialpos": 9, "trial_type": "single-audio", "trial_index": 234, "time_elapsed": 971805, "internal_node_id": "0.0-171.0"}}, {"uniqueid": "MTK1052:3HWRJOOET69383KIQ7H3RQSSRMWSE8", "current_trial": 235, "dateTime": 1513018572931, "trialdata": {"rt": -1000, "stimulus": "/static/audio/wordpool/CHEST.wav", "key_press": -1, "type": "PRES_AUD", "word": "chest", "wordID": 294, "conditions": [12, 800, "a", 24000], "trial": 6, "serialpos": 10, "trial_type": "single-audio", "trial_index": 235, "time_elapsed": 973505, "internal_node_id": "0.0-172.0"}}, {"uniqueid": "MTK1052:3HWRJOOET69383KIQ7H3RQSSRMWSE8", "current_trial": 236, "dateTime": 1513018574574, "trialdata": {"rt": -1000, "stimulus": "/static/audio/wordpool/CAFE.wav", "key_press": -1, "type": "PRES_AUD", "word": "cafe", "wordID": 215, "conditions": [12, 800, "a", 24000], "trial": 6, "serialpos": 11, "trial_type": "single-audio", "trial_index": 236, "time_elapsed": 975148, "internal_node_id": "0.0-173.0"}}, {"uniqueid": "MTK1052:3HWRJOOET69383KIQ7H3RQSSRMWSE8", "current_trial": 237, "dateTime": 1513018575853, "trialdata": {"rt": -1, "stimulus": "", "key_press": -1, "type": "PRE_RECALL_DELAY", "trial_type": "single-stim", "trial_index": 237, "time_elapsed": 976426, "internal_node_id": "0.0-174.0-0.0"}}, {"uniqueid": "MTK1052:3HWRJOOET69383KIQ7H3RQSSRMWSE8", "current_trial": 238, "dateTime": 1513018576355, "trialdata": {"rt": -1000, "stimulus": "/static/audio/400Hz.wav", "key_press": -1, "type": "PRE_RECALL_ALERT", "trial_type": "single-audio", "trial_index": 238, "time_elapsed": 976928, "internal_node_id": "0.0-175.0"}}, {"uniqueid": "MTK1052:3HWRJOOET69383KIQ7H3RQSSRMWSE8", "current_trial": 239, "dateTime": 1513018636365, "trialdata": {"rt": [2069, 5368, 11131, 13166, 15344, 18852, 20368, 21941, 23333, 26584], "recwords": ["chest", "cafe", "atlas", "daughter", "salomon", "wrist", "finger", "stomach", "flipper", "chest"], "type": "FREE_RECALL", "conditions": [12, 800, "a", 24000], "trial": 6, "trial_type": "free-recall", "trial_index": 239, "time_elapsed": 1036934, "internal_node_id": "0.0-176.0-0.0"}}, {"uniqueid": "MTK1052:3HWRJOOET69383KIQ7H3RQSSRMWSE8", "current_trial": 240, "dateTime": 1513018640120, "trialdata": {"rt": 1753, "key_press": 13, "type": "INSTRUCTIONS", "trial_type": "text", "trial_index": 240, "time_elapsed": 1040693, "internal_node_id": "0.0-177.0"}}, {"uniqueid": "MTK1052:3HWRJOOET69383KIQ7H3RQSSRMWSE8", "current_trial": 241, "dateTime": 1513018654123, "trialdata": {"rt": [2000, 3590, 5191, 6937, 8500, 10080, 11478], "responses": ["17", "16", "11", "16", "15", "20", "17"], "num1": [7, 6, 5, 7, 3, 9, 6, 5], "num2": [9, 6, 4, 2, 5, 2, 4, 1], "num3": [1, 4, 2, 7, 7, 9, 7, 9], "type": "DISTRACTOR", "conditions": [24, 1600, "v", 12000], "trial": 7, "trial_type": "math-distractor", "trial_index": 241, "time_elapsed": 1054697, "internal_node_id": "0.0-178.0"}}, {"uniqueid": "MTK1052:3HWRJOOET69383KIQ7H3RQSSRMWSE8", "current_trial": 242, "dateTime": 1513018657126, "trialdata": {"rt": -1, "stimulus": "<p id=\"stim\">10</p>", "key_press": -1, "trial_type": "single-stim", "trial_index": 242, "time_elapsed": 1057699, "internal_node_id": "0.0-179.0-0.0"}}, {"uniqueid": "MTK1052:3HWRJOOET69383KIQ7H3RQSSRMWSE8", "current_trial": 243, "dateTime": 1513018658128, "trialdata": {"rt": -1, "stimulus": "<p id=\"stim\">9</p>", "key_press": -1, "trial_type": "single-stim", "trial_index": 243, "time_elapsed": 1058701, "internal_node_id": "0.0-179.0-1.0"}}, {"uniqueid": "MTK1052:3HWRJOOET69383KIQ7H3RQSSRMWSE8", "current_trial": 244, "dateTime": 1513018659131, "trialdata": {"rt": -1, "stimulus": "<p id=\"stim\">8</p>", "key_press": -1, "trial_type": "single-stim", "trial_index": 244, "time_elapsed": 1059704, "internal_node_id": "0.0-179.0-2.0"}}, {"uniqueid": "MTK1052:3HWRJOOET69383KIQ7H3RQSSRMWSE8", "current_trial": 245, "dateTime": 1513018660267, "trialdata": {"rt": -1, "stimulus": "<p id=\"stim\">7</p>", "key_press": -1, "trial_type": "single-stim", "trial_index": 245, "time_elapsed": 1060840, "internal_node_id": "0.0-179.0-3.0"}}, {"uniqueid": "MTK1052:3HWRJOOET69383KIQ7H3RQSSRMWSE8", "current_trial": 246, "dateTime": 1513018661269, "trialdata": {"rt": -1, "stimulus": "<p id=\"stim\">6</p>", "key_press": -1, "trial_type": "single-stim", "trial_index": 246, "time_elapsed": 1061842, "internal_node_id": "0.0-179.0-4.0"}}, {"uniqueid": "MTK1052:3HWRJOOET69383KIQ7H3RQSSRMWSE8", "current_trial": 247, "dateTime": 1513018662273, "trialdata": {"rt": -1, "stimulus": "<p id=\"stim\">5</p>", "key_press": -1, "trial_type": "single-stim", "trial_index": 247, "time_elapsed": 1062846, "internal_node_id": "0.0-179.0-5.0"}}, {"uniqueid": "MTK1052:3HWRJOOET69383KIQ7H3RQSSRMWSE8", "current_trial": 248, "dateTime": 1513018663276, "trialdata": {"rt": -1, "stimulus": "<p id=\"stim\">4</p>", "key_press": -1, "trial_type": "single-stim", "trial_index": 248, "time_elapsed": 1063849, "internal_node_id": "0.0-179.0-6.0"}}, {"uniqueid": "MTK1052:3HWRJOOET69383KIQ7H3RQSSRMWSE8", "current_trial": 249, "dateTime": 1513018664278, "trialdata": {"rt": 355, "stimulus": "<p id=\"stim\">3</p>", "key_press": 174, "trial_type": "single-stim", "trial_index": 249, "time_elapsed": 1064852, "internal_node_id": "0.0-179.0-7.0"}}, {"uniqueid": "MTK1052:3HWRJOOET69383KIQ7H3RQSSRMWSE8", "current_trial": 250, "dateTime": 1513018665282, "trialdata": {"rt": 0, "stimulus": "<p id=\"stim\">2</p>", "key_press": 174, "trial_type": "single-stim", "trial_index": 250, "time_elapsed": 1065855, "internal_node_id": "0.0-179.0-8.0"}}, {"uniqueid": "MTK1052:3HWRJOOET69383KIQ7H3RQSSRMWSE8", "current_trial": 251, "dateTime": 1513018666348, "trialdata": {"rt": -1, "stimulus": "<p id=\"stim\">1</p>", "key_press": -1, "trial_type": "single-stim", "trial_index": 251, "time_elapsed": 1066922, "internal_node_id": "0.0-179.0-9.0"}}, {"uniqueid": "MTK1052:3HWRJOOET69383KIQ7H3RQSSRMWSE8", "current_trial": 252, "dateTime": 1513018667852, "trialdata": {"rt": -1, "stimulus": "<p id=\"stim\">+</p>", "key_press": -1, "type": "FIXATION", "trial_type": "single-stim", "trial_index": 252, "time_elapsed": 1068425, "internal_node_id": "0.0-180.0-0.0"}}, {"uniqueid": "MTK1052:3HWRJOOET69383KIQ7H3RQSSRMWSE8", "current_trial": 253, "dateTime": 1513018669454, "trialdata": {"rt": -1, "stimulus": "<p id=\"stim\">TRENCH</p>", "key_press": -1, "type": "PRES_VIS", "word": "trench", "wordID": 1502, "conditions": [24, 1600, "v", 12000], "trial": 7, "serialpos": 0, "trial_type": "single-stim", "trial_index": 253, "time_elapsed": 1070027, "internal_node_id": "0.0-181.0"}}, {"uniqueid": "MTK1052:3HWRJOOET69383KIQ7H3RQSSRMWSE8", "current_trial": 254, "dateTime": 1513018672036, "trialdata": {"rt": -1, "stimulus": "<p id=\"stim\">WAITRESS</p>", "key_press": -1, "type": "PRES_VIS", "word": "waitress", "wordID": 1580, "conditions": [24, 1600, "v", 12000], "trial": 7, "serialpos": 1, "trial_type": "single-stim", "trial_index": 254, "time_elapsed": 1072610, "internal_node_id": "0.0-182.0"}}, {"uniqueid": "MTK1052:3HWRJOOET69383KIQ7H3RQSSRMWSE8", "current_trial": 255, "dateTime": 1513018674643, "trialdata": {"rt": -1, "stimulus": "<p id=\"stim\">TRUCK</p>", "key_press": -1, "type": "PRES_VIS", "word": "truck", "wordID": 1511, "conditions": [24, 1600, "v", 12000], "trial": 7, "serialpos": 2, "trial_type": "single-stim", "trial_index": 255, "time_elapsed": 1075216, "internal_node_id": "0.0-183.0"}}, {"uniqueid": "MTK1052:3HWRJOOET69383KIQ7H3RQSSRMWSE8", "current_trial": 256, "dateTime": 1513018677127, "trialdata": {"rt": -1, "stimulus": "<p id=\"stim\">BIKE</p>", "key_press": -1, "type": "PRES_VIS", "word": "bike", "wordID": 124, "conditions": [24, 1600, "v", 12000], "trial": 7, "serialpos": 3, "trial_type": "single-stim", "trial_index": 256, "time_elapsed": 1077700, "internal_node_id": "0.0-184.0"}}, {"uniqueid": "MTK1052:3HWRJOOET69383KIQ7H3RQSSRMWSE8", "current_trial": 257, "dateTime": 1513018679597, "trialdata": {"rt": -1, "stimulus": "<p id=\"stim\">PALACE</p>", "key_press": -1, "type": "PRES_VIS", "word": "palace", "wordID": 1005, "conditions": [24, 1600, "v", 12000], "trial": 7, "serialpos": 4, "trial_type": "single-stim", "trial_index": 257, "time_elapsed": 1080170, "internal_node_id": "0.0-185.0"}}, {"uniqueid": "MTK1052:3HWRJOOET69383KIQ7H3RQSSRMWSE8", "current_trial": 258, "dateTime": 1513018682079, "trialdata": {"rt": -1, "stimulus": "<p id=\"stim\">DENIM</p>", "key_press": -1, "type": "PRES_VIS", "word": "denim", "wordID": 445, "conditions": [24, 1600, "v", 12000], "trial": 7, "serialpos": 5, "trial_type": "single-stim", "trial_index": 258, "time_elapsed": 1082653, "internal_node_id": "0.0-186.0"}}, {"uniqueid": "MTK1052:3HWRJOOET69383KIQ7H3RQSSRMWSE8", "current_trial": 259, "dateTime": 1513018684840, "trialdata": {"rt": -1, "stimulus": "<p id=\"stim\">PAPER</p>", "key_press": -1, "type": "PRES_VIS", "word": "paper", "wordID": 1010, "conditions": [24, 1600, "v", 12000], "trial": 7, "serialpos": 6, "trial_type": "single-stim", "trial_index": 259, "time_elapsed": 1085413, "internal_node_id": "0.0-187.0"}}, {"uniqueid": "MTK1052:3HWRJOOET69383KIQ7H3RQSSRMWSE8", "current_trial": 260, "dateTime": 1513018687355, "trialdata": {"rt": -1, "stimulus": "<p id=\"stim\">FLAG</p>", "key_press": -1, "type": "PRES_VIS", "word": "flag", "wordID": 572, "conditions": [24, 1600, "v", 12000], "trial": 7, "serialpos": 7, "trial_type": "single-stim", "trial_index": 260, "time_elapsed": 1087929, "internal_node_id": "0.0-188.0"}}, {"uniqueid": "MTK1052:3HWRJOOET69383KIQ7H3RQSSRMWSE8", "current_trial": 261, "dateTime": 1513018689897, "trialdata": {"rt": -1, "stimulus": "<p id=\"stim\">PLAID</p>", "key_press": -1, "type": "PRES_VIS", "word": "plaid", "wordID": 1079, "conditions": [24, 1600, "v", 12000], "trial": 7, "serialpos": 8, "trial_type": "single-stim", "trial_index": 261, "time_elapsed": 1090471, "internal_node_id": "0.0-189.0"}}, {"uniqueid": "MTK1052:3HWRJOOET69383KIQ7H3RQSSRMWSE8", "current_trial": 262, "dateTime": 1513018692406, "trialdata": {"rt": -1, "stimulus": "<p id=\"stim\">CATTLE</p>", "key_press": -1, "type": "PRES_VIS", "word": "cattle", "wordID": 260, "conditions": [24, 1600, "v", 12000], "trial": 7, "serialpos": 9, "trial_type": "single-stim", "trial_index": 262, "time_elapsed": 1092980, "internal_node_id": "0.0-190.0"}}, {"uniqueid": "MTK1052:3HWRJOOET69383KIQ7H3RQSSRMWSE8", "current_trial": 263, "dateTime": 1513018695024, "trialdata": {"rt": -1, "stimulus": "<p id=\"stim\">BISON</p>", "key_press": -1, "type": "PRES_VIS", "word": "bison", "wordID": 130, "conditions": [24, 1600, "v", 12000], "trial": 7, "serialpos": 10, "trial_type": "single-stim", "trial_index": 263, "time_elapsed": 1095598, "internal_node_id": "0.0-191.0"}}, {"uniqueid": "MTK1052:3HWRJOOET69383KIQ7H3RQSSRMWSE8", "current_trial": 264, "dateTime": 1513018697705, "trialdata": {"rt": -1, "stimulus": "<p id=\"stim\">MATTRESS</p>", "key_press": -1, "type": "PRES_VIS", "word": "mattress", "wordID": 878, "conditions": [24, 1600, "v", 12000], "trial": 7, "serialpos": 11, "trial_type": "single-stim", "trial_index": 264, "time_elapsed": 1098278, "internal_node_id": "0.0-192.0"}}, {"uniqueid": "MTK1052:3HWRJOOET69383KIQ7H3RQSSRMWSE8", "current_trial": 265, "dateTime": 1513018700222, "trialdata": {"rt": -1, "stimulus": "<p id=\"stim\">TREAT</p>", "key_press": -1, "type": "PRES_VIS", "word": "treat", "wordID": 1500, "conditions": [24, 1600, "v", 12000], "trial": 7, "serialpos": 12, "trial_type": "single-stim", "trial_index": 265, "time_elapsed": 1100795, "internal_node_id": "0.0-193.0"}}, {"uniqueid": "MTK1052:3HWRJOOET69383KIQ7H3RQSSRMWSE8", "current_trial": 266, "dateTime": 1513018702974, "trialdata": {"rt": -1, "stimulus": "<p id=\"stim\">GARLIC</p>", "key_press": -1, "type": "PRES_VIS", "word": "garlic", "wordID": 623, "conditions": [24, 1600, "v", 12000], "trial": 7, "serialpos": 13, "trial_type": "single-stim", "trial_index": 266, "time_elapsed": 1103548, "internal_node_id": "0.0-194.0"}}, {"uniqueid": "MTK1052:3HWRJOOET69383KIQ7H3RQSSRMWSE8", "current_trial": 267, "dateTime": 1513018705537, "trialdata": {"rt": -1, "stimulus": "<p id=\"stim\">BLADE</p>", "key_press": -1, "type": "PRES_VIS", "word": "blade", "wordID": 133, "conditions": [24, 1600, "v", 12000], "trial": 7, "serialpos": 14, "trial_type": "single-stim", "trial_index": 267, "time_elapsed": 1106111, "internal_node_id": "0.0-195.0"}}, {"uniqueid": "MTK1052:3HWRJOOET69383KIQ7H3RQSSRMWSE8", "current_trial": 268, "dateTime": 1513018708043, "trialdata": {"rt": -1, "stimulus": "<p id=\"stim\">HANDBAG</p>", "key_press": -1, "type": "PRES_VIS", "word": "handbag", "wordID": 683, "conditions": [24, 1600, "v", 12000], "trial": 7, "serialpos": 15, "trial_type": "single-stim", "trial_index": 268, "time_elapsed": 1108617, "internal_node_id": "0.0-196.0"}}, {"uniqueid": "MTK1052:3HWRJOOET69383KIQ7H3RQSSRMWSE8", "current_trial": 269, "dateTime": 1513018710591, "trialdata": {"rt": -1, "stimulus": "<p id=\"stim\">SUITCASE</p>", "key_press": -1, "type": "PRES_VIS", "word": "suitcase", "wordID": 1402, "conditions": [24, 1600, "v", 12000], "trial": 7, "serialpos": 16, "trial_type": "single-stim", "trial_index": 269, "time_elapsed": 1111165, "internal_node_id": "0.0-197.0"}}, {"uniqueid": "MTK1052:3HWRJOOET69383KIQ7H3RQSSRMWSE8", "current_trial": 270, "dateTime": 1513018713233, "trialdata": {"rt": -1, "stimulus": "<p id=\"stim\">SIBLING</p>", "key_press": -1, "type": "PRES_VIS", "word": "sibling", "wordID": 1300, "conditions": [24, 1600, "v", 12000], "trial": 7, "serialpos": 17, "trial_type": "single-stim", "trial_index": 270, "time_elapsed": 1113806, "internal_node_id": "0.0-198.0"}}, {"uniqueid": "MTK1052:3HWRJOOET69383KIQ7H3RQSSRMWSE8", "current_trial": 271, "dateTime": 1513018715743, "trialdata": {"rt": -1, "stimulus": "<p id=\"stim\">BURGLAR</p>", "key_press": -1, "type": "PRES_VIS", "word": "burglar", "wordID": 199, "conditions": [24, 1600, "v", 12000], "trial": 7, "serialpos": 18