{"assignmentId": "3U5NZHP4LS9IFLVSORLFHOKU0JTHPF", "workerId": "MTK1927", "questiondata": {"avail_screen_height": 768, "color_depth": 24, "screen_width": 1366, "pixel_depth": 24, "avail_screen_width": 1366, "screen_height": 768}, "bonus": 0, "hitId": "3EHVO81VN5SDB9EWDN5NR86CFWNH14", "counterbalance": 2099, "useragent": "Mozilla/5.0 (Windows NT 6.1; WOW64; rv:48.0) Gecko/20100101 Firefox/48.0", "eventdata": [{"eventtype": "initialized", "interval": 0, "value": null, "timestamp": 1516557719573}, {"eventtype": "window_resize", "interval": 0, "value": [1348, 687], "timestamp": 1516557719573}, {"eventtype": "window_resize", "interval": 16697, "value": [1348, 687], "timestamp": 1516557736270}, {"eventtype": "window_resize", "interval": 203, "value": [1348, 687], "timestamp": 1516557736473}, {"eventtype": "focus", "interval": 2118063, "value": "off", "timestamp": 1516559854536}, {"eventtype": "focus", "interval": 1854, "value": "on", "timestamp": 1516559856390}], "data": [{"current_trial": 0, "trialdata": {"rt": 69503, "trial_type": "text", "internal_node_id": "0.0-0.0", "time_elapsed": 69521, "key_press": 13, "type": "INSTRUCTIONS", "trial_index": 0}, "uniqueid": "MTK1927:3U5NZHP4LS9IFLVSORLFHOKU0JTHPF", "dateTime": 1516557790167}, {"current_trial": 1, "trialdata": {"rt": 84459, "trial_type": "text", "internal_node_id": "0.0-1.0", "time_elapsed": 154007, "key_press": 40, "type": "INSTRUCTIONS", "trial_index": 1}, "uniqueid": "MTK1927:3U5NZHP4LS9IFLVSORLFHOKU0JTHPF", "dateTime": 1516557874653}, {"current_trial": 2, "trialdata": {"rt": [8552], "trial_type": "audio-test", "responses": ["ocean"], "internal_node_id": "0.0-2.0", "time_elapsed": 162703, "type": "AUDIO_TEST", "trial_index": 2}, "uniqueid": "MTK1927:3U5NZHP4LS9IFLVSORLFHOKU0JTHPF", "dateTime": 1516557883339}, {"current_trial": 3, "trialdata": {"rt": [8084], "trial_type": "audio-test", "responses": ["crystal"], "internal_node_id": "0.0-3.0", "time_elapsed": 170818, "type": "AUDIO_TEST", "trial_index": 3}, "uniqueid": "MTK1927:3U5NZHP4LS9IFLVSORLFHOKU0JTHPF", "dateTime": 1516557891454}, {"current_trial": 4, "trialdata": {"rt": [5642], "trial_type": "audio-test", "responses": ["spice"], "internal_node_id": "0.0-4.0", "time_elapsed": 176505, "type": "AUDIO_TEST", "trial_index": 4}, "uniqueid": "MTK1927:3U5NZHP4LS9IFLVSORLFHOKU0JTHPF", "dateTime": 1516557897142}, {"current_trial": 5, "trialdata": {"rt": 20795, "trial_type": "survey-text", "responses": "{\"Q0\":\"9 pm\",\"Q1\":\"8 am\",\"Q2\":\"5\"}", "internal_node_id": "0.0-5.0", "time_elapsed": 198067, "type": "SLEEP_SURVEY", "trial_index": 5}, "uniqueid": "MTK1927:3U5NZHP4LS9IFLVSORLFHOKU0JTHPF", "dateTime": 1516557918704}, {"current_trial": 6, "trialdata": {"rt": 41464, "trial_type": "text", "internal_node_id": "0.0-6.0", "time_elapsed": 240544, "key_press": 40, "type": "INSTRUCTIONS", "trial_index": 6}, "uniqueid": "MTK1927:3U5NZHP4LS9IFLVSORLFHOKU0JTHPF", "dateTime": 1516557961186}, {"current_trial": 7, "trialdata": {"rt": 15407, "trial_type": "text", "internal_node_id": "0.0-7.0", "time_elapsed": 256465, "key_press": 40, "type": "INSTRUCTIONS", "trial_index": 7}, "uniqueid": "MTK1927:3U5NZHP4LS9IFLVSORLFHOKU0JTHPF", "dateTime": 1516557977103}, {"current_trial": 8, "trialdata": {"rt": 19175, "trial_type": "text", "internal_node_id": "0.0-8.0", "time_elapsed": 276153, "key_press": 13, "type": "INSTRUCTIONS", "trial_index": 8}, "uniqueid": "MTK1927:3U5NZHP4LS9IFLVSORLFHOKU0JTHPF", "dateTime": 1516557996791}, {"current_trial": 9, "trialdata": {"rt": [3953, 6992, 10209, 13244, 15152, 17439], "trial_type": "math-distractor", "key_times": [2767, 2960, 3953, 6456, 6705, 6992, 9827, 9909, 10209, 12724, 12823, 13244, 14722, 15152, 16717, 16970, 17439], "responses": ["14", "18", "13", "20", "8", "16"], "num2": [6, 9, 4, 7, 4, 4, 3], "num3": [6, 7, 2, 4, 3, 8, 6], "conditions": [18, 1200, "v", 18000], "internal_node_id": "0.0-9.0", "key_presses": [97, 100, 13, 97, 104, 13, 97, 99, 13, 98, 96, 13, 104, 13, 97, 102, 13], "trial": 0, "time_elapsed": 295213, "type": "DISTRACTOR", "trial_index": 9, "num1": [2, 2, 7, 9, 1, 4, 5]}, "uniqueid": "MTK1927:3U5NZHP4LS9IFLVSORLFHOKU0JTHPF", "dateTime": 1516558015851}, {"current_trial": 10, "trialdata": {"rt": -1, "trial_type": "single-stim", "stimulus": "<p id=\"stim\">10</p>", "internal_node_id": "0.0-10.0-0.0", "time_elapsed": 298218, "key_press": -1, "trial_index": 10}, "uniqueid": "MTK1927:3U5NZHP4LS9IFLVSORLFHOKU0JTHPF", "dateTime": 1516558018855}, {"current_trial": 11, "trialdata": {"rt": -1, "trial_type": "single-stim", "stimulus": "<p id=\"stim\">9</p>", "internal_node_id": "0.0-10.0-1.0", "time_elapsed": 299221, "key_press": -1, "trial_index": 11}, "uniqueid": "MTK1927:3U5NZHP4LS9IFLVSORLFHOKU0JTHPF", "dateTime": 1516558019857}, {"current_trial": 12, "trialdata": {"rt": -1, "trial_type": "single-stim", "stimulus": "<p id=\"stim\">8</p>", "internal_node_id": "0.0-10.0-2.0", "time_elapsed": 300224, "key_press": -1, "trial_index": 12}, "uniqueid": "MTK1927:3U5NZHP4LS9IFLVSORLFHOKU0JTHPF", "dateTime": 1516558020861}, {"current_trial": 13, "trialdata": {"rt": -1, "trial_type": "single-stim", "stimulus": "<p id=\"stim\">7</p>", "internal_node_id": "0.0-10.0-3.0", "time_elapsed": 301226, "key_press": -1, "trial_index": 13}, "uniqueid": "MTK1927:3U5NZHP4LS9IFLVSORLFHOKU0JTHPF", "dateTime": 1516558021862}, {"current_trial": 14, "trialdata": {"rt": -1, "trial_type": "single-stim", "stimulus": "<p id=\"stim\">6</p>", "internal_node_id": "0.0-10.0-4.0", "time_elapsed": 302228, "key_press": -1, "trial_index": 14}, "uniqueid": "MTK1927:3U5NZHP4LS9IFLVSORLFHOKU0JTHPF", "dateTime": 1516558022864}, {"current_trial": 15, "trialdata": {"rt": -1, "trial_type": "single-stim", "stimulus": "<p id=\"stim\">5</p>", "internal_node_id": "0.0-10.0-5.0", "time_elapsed": 303230, "key_press": -1, "trial_index": 15}, "uniqueid": "MTK1927:3U5NZHP4LS9IFLVSORLFHOKU0JTHPF", "dateTime": 1516558023866}, {"current_trial": 16, "trialdata": {"rt": -1, "trial_type": "single-stim", "stimulus": "<p id=\"stim\">4</p>", "internal_node_id": "0.0-10.0-6.0", "time_elapsed": 304233, "key_press": -1, "trial_index": 16}, "uniqueid": "MTK1927:3U5NZHP4LS9IFLVSORLFHOKU0JTHPF", "dateTime": 1516558024870}, {"current_trial": 17, "trialdata": {"rt": -1, "trial_type": "single-stim", "stimulus": "<p id=\"stim\">3</p>", "internal_node_id": "0.0-10.0-7.0", "time_elapsed": 305236, "key_press": -1, "trial_index": 17}, "uniqueid": "MTK1927:3U5NZHP4LS9IFLVSORLFHOKU0JTHPF", "dateTime": 1516558025872}, {"current_trial": 18, "trialdata": {"rt": -1, "trial_type": "single-stim", "stimulus": "<p id=\"stim\">2</p>", "internal_node_id": "0.0-10.0-8.0", "time_elapsed": 306238, "key_press": -1, "trial_index": 18}, "uniqueid": "MTK1927:3U5NZHP4LS9IFLVSORLFHOKU0JTHPF", "dateTime": 1516558026874}, {"current_trial": 19, "trialdata": {"rt": -1, "trial_type": "single-stim", "stimulus": "<p id=\"stim\">1</p>", "internal_node_id": "0.0-10.0-9.0", "time_elapsed": 307240, "key_press": -1, "trial_index": 19}, "uniqueid": "MTK1927:3U5NZHP4LS9IFLVSORLFHOKU0JTHPF", "dateTime": 1516558027876}, {"current_trial": 20, "trialdata": {"rt": -1, "trial_type": "single-stim", "stimulus": "<p id=\"stim\">+</p>", "internal_node_id": "0.0-11.0-0.0", "time_elapsed": 308742, "key_press": -1, "type": "FIXATION", "trial_index": 20}, "uniqueid": "MTK1927:3U5NZHP4LS9IFLVSORLFHOKU0JTHPF", "dateTime": 1516558029379}, {"current_trial": 21, "trialdata": {"rt": -1, "trial_type": "single-stim", "word": "saddle", "stimulus": "<p id=\"stim\">SADDLE</p>", "conditions": [18, 1200, "v", 18000], "internal_node_id": "0.0-12.0", "trial": 0, "time_elapsed": 309944, "serialpos": 0, "key_press": -1, "wordID": 1220, "type": "PRES_VIS", "trial_index": 21}, "uniqueid": "MTK1927:3U5NZHP4LS9IFLVSORLFHOKU0JTHPF", "dateTime": 1516558030581}, {"current_trial": 22, "trialdata": {"rt": -1, "trial_type": "single-stim", "word": "football", "stimulus": "<p id=\"stim\">FOOTBALL</p>", "conditions": [18, 1200, "v", 18000], "internal_node_id": "0.0-13.0", "trial": 0, "time_elapsed": 311980, "serialpos": 1, "key_press": -1, "wordID": 590, "type": "PRES_VIS", "trial_index": 22}, "uniqueid": "MTK1927:3U5NZHP4LS9IFLVSORLFHOKU0JTHPF", "dateTime": 1516558032616}, {"current_trial": 23, "trialdata": {"rt": -1, "trial_type": "single-stim", "word": "hero", "stimulus": "<p id=\"stim\">HERO</p>", "conditions": [18, 1200, "v", 18000], "internal_node_id": "0.0-14.0", "trial": 0, "time_elapsed": 314065, "serialpos": 2, "key_press": -1, "wordID": 705, "type": "PRES_VIS", "trial_index": 23}, "uniqueid": "MTK1927:3U5NZHP4LS9IFLVSORLFHOKU0JTHPF", "dateTime": 1516558034701}, {"current_trial": 24, "trialdata": {"rt": -1, "trial_type": "single-stim", "word": "money", "stimulus": "<p id=\"stim\">MONEY</p>", "conditions": [18, 1200, "v", 18000], "internal_node_id": "0.0-15.0", "trial": 0, "time_elapsed": 316443, "serialpos": 3, "key_press": -1, "wordID": 907, "type": "PRES_VIS", "trial_index": 24}, "uniqueid": "MTK1927:3U5NZHP4LS9IFLVSORLFHOKU0JTHPF", "dateTime": 1516558037079}, {"current_trial": 25, "trialdata": {"rt": -1, "trial_type": "single-stim", "word": "chauffeur", "stimulus": "<p id=\"stim\">CHAUFFEUR</p>", "conditions": [18, 1200, "v", 18000], "internal_node_id": "0.0-16.0", "trial": 0, "time_elapsed": 318648, "serialpos": 4, "key_press": -1, "wordID": 282, "type": "PRES_VIS", "trial_index": 25}, "uniqueid": "MTK1927:3U5NZHP4LS9IFLVSORLFHOKU0JTHPF", "dateTime": 1516558039284}, {"current_trial": 26, "trialdata": {"rt": -1, "trial_type": "single-stim", "word": "zebra", "stimulus": "<p id=\"stim\">ZEBRA</p>", "conditions": [18, 1200, "v", 18000], "internal_node_id": "0.0-17.0", "trial": 0, "time_elapsed": 321042, "serialpos": 5, "key_press": -1, "wordID": 1634, "type": "PRES_VIS", "trial_index": 26}, "uniqueid": "MTK1927:3U5NZHP4LS9IFLVSORLFHOKU0JTHPF", "dateTime": 1516558041678}, {"current_trial": 27, "trialdata": {"rt": -1, "trial_type": "single-stim", "word": "xerox", "stimulus": "<p id=\"stim\">XEROX</p>", "conditions": [18, 1200, "v", 18000], "internal_node_id": "0.0-18.0", "trial": 0, "time_elapsed": 323439, "serialpos": 6, "key_press": -1, "wordID": 1627, "type": "PRES_VIS", "trial_index": 27}, "uniqueid": "MTK1927:3U5NZHP4LS9IFLVSORLFHOKU0JTHPF", "dateTime": 1516558044076}, {"current_trial": 28, "trialdata": {"rt": -1, "trial_type": "single-stim", "word": "bike", "stimulus": "<p id=\"stim\">BIKE</p>", "conditions": [18, 1200, "v", 18000], "internal_node_id": "0.0-19.0", "trial": 0, "time_elapsed": 325648, "serialpos": 7, "key_press": -1, "wordID": 124, "type": "PRES_VIS", "trial_index": 28}, "uniqueid": "MTK1927:3U5NZHP4LS9IFLVSORLFHOKU0JTHPF", "dateTime": 1516558046284}, {"current_trial": 29, "trialdata": {"rt": -1, "trial_type": "single-stim", "word": "ankle", "stimulus": "<p id=\"stim\">ANKLE</p>", "conditions": [18, 1200, "v", 18000], "internal_node_id": "0.0-20.0", "trial": 0, "time_elapsed": 327878, "serialpos": 8, "key_press": -1, "wordID": 23, "type": "PRES_VIS", "trial_index": 29}, "uniqueid": "MTK1927:3U5NZHP4LS9IFLVSORLFHOKU0JTHPF", "dateTime": 1516558048515}, {"current_trial": 30, "trialdata": {"rt": -1, "trial_type": "single-stim", "word": "outfit", "stimulus": "<p id=\"stim\">OUTFIT</p>", "conditions": [18, 1200, "v", 18000], "internal_node_id": "0.0-21.0", "trial": 0, "time_elapsed": 330212, "serialpos": 9, "key_press": -1, "wordID": 987, "type": "PRES_VIS", "trial_index": 30}, "uniqueid": "MTK1927:3U5NZHP4LS9IFLVSORLFHOKU0JTHPF", "dateTime": 1516558050849}, {"current_trial": 31, "trialdata": {"rt": -1, "trial_type": "single-stim", "word": "bubble", "stimulus": "<p id=\"stim\">BUBBLE</p>", "conditions": [18, 1200, "v", 18000], "internal_node_id": "0.0-22.0", "trial": 0, "time_elapsed": 332503, "serialpos": 10, "key_press": -1, "wordID": 182, "type": "PRES_VIS", "trial_index": 31}, "uniqueid": "MTK1927:3U5NZHP4LS9IFLVSORLFHOKU0JTHPF", "dateTime": 1516558053140}, {"current_trial": 32, "trialdata": {"rt": -1, "trial_type": "single-stim", "word": "sponge", "stimulus": "<p id=\"stim\">SPONGE</p>", "conditions": [18, 1200, "v", 18000], "internal_node_id": "0.0-23.0", "trial": 0, "time_elapsed": 334782, "serialpos": 11, "key_press": -1, "wordID": 1354, "type": "PRES_VIS", "trial_index": 32}, "uniqueid": "MTK1927:3U5NZHP4LS9IFLVSORLFHOKU0JTHPF", "dateTime": 1516558055419}, {"current_trial": 33, "trialdata": {"rt": -1, "trial_type": "single-stim", "word": "buggy", "stimulus": "<p id=\"stim\">BUGGY</p>", "conditions": [18, 1200, "v", 18000], "internal_node_id": "0.0-24.0", "trial": 0, "time_elapsed": 337158, "serialpos": 12, "key_press": -1, "wordID": 187, "type": "PRES_VIS", "trial_index": 33}, "uniqueid": "MTK1927:3U5NZHP4LS9IFLVSORLFHOKU0JTHPF", "dateTime": 1516558057795}, {"current_trial": 34, "trialdata": {"rt": -1, "trial_type": "single-stim", "word": "wagon", "stimulus": "<p id=\"stim\">WAGON</p>", "conditions": [18, 1200, "v", 18000], "internal_node_id": "0.0-25.0", "trial": 0, "time_elapsed": 339182, "serialpos": 13, "key_press": -1, "wordID": 1577, "type": "PRES_VIS", "trial_index": 34}, "uniqueid": "MTK1927:3U5NZHP4LS9IFLVSORLFHOKU0JTHPF", "dateTime": 1516558059819}, {"current_trial": 35, "trialdata": {"rt": -1, "trial_type": "single-stim", "word": "treat", "stimulus": "<p id=\"stim\">TREAT</p>", "conditions": [18, 1200, "v", 18000], "internal_node_id": "0.0-26.0", "trial": 0, "time_elapsed": 341586, "serialpos": 14, "key_press": -1, "wordID": 1500, "type": "PRES_VIS", "trial_index": 35}, "uniqueid": "MTK1927:3U5NZHP4LS9IFLVSORLFHOKU0JTHPF", "dateTime": 1516558062223}, {"current_trial": 36, "trialdata": {"rt": -1, "trial_type": "single-stim", "word": "transplant", "stimulus": "<p id=\"stim\">TRANSPLANT</p>", "conditions": [18, 1200, "v", 18000], "internal_node_id": "0.0-27.0", "trial": 0, "time_elapsed": 343850, "serialpos": 15, "key_press": -1, "wordID": 1495, "type": "PRES_VIS", "trial_index": 36}, "uniqueid": "MTK1927:3U5NZHP4LS9IFLVSORLFHOKU0JTHPF", "dateTime": 1516558064487}, {"current_trial": 37, "trialdata": {"rt": -1, "trial_type": "single-stim", "word": "princess", "stimulus": "<p id=\"stim\">PRINCESS</p>", "conditions": [18, 1200, "v", 18000], "internal_node_id": "0.0-28.0", "trial": 0, "time_elapsed": 345954, "serialpos": 16, "key_press": -1, "wordID": 1124, "type": "PRES_VIS", "trial_index": 37}, "uniqueid": "MTK1927:3U5NZHP4LS9IFLVSORLFHOKU0JTHPF", "dateTime": 1516558066591}, {"current_trial": 38, "trialdata": {"rt": -1, "trial_type": "single-stim", "word": "carrot", "stimulus": "<p id=\"stim\">CARROT</p>", "conditions": [18, 1200, "v", 18000], "internal_node_id": "0.0-29.0", "trial": 0, "time_elapsed": 348165, "serialpos": 17, "key_press": -1, "wordID": 248, "type": "PRES_VIS", "trial_index": 38}, "uniqueid": "MTK1927:3U5NZHP4LS9IFLVSORLFHOKU0JTHPF", "dateTime": 1516558068802}, {"current_trial": 39, "trialdata": {"rt": -1, "trial_type": "single-stim", "stimulus": "", "internal_node_id": "0.0-30.0-0.0", "time_elapsed": 350553, "key_press": -1, "type": "PRE_RECALL_DELAY", "trial_index": 39}, "uniqueid": "MTK1927:3U5NZHP4LS9IFLVSORLFHOKU0JTHPF", "dateTime": 1516558071190}, {"current_trial": 40, "trialdata": {"rt": -1000, "trial_type": "single-audio", "stimulus": "/static/audio/400Hz.wav", "internal_node_id": "0.0-31.0", "time_elapsed": 351062, "key_press": -1, "type": "PRE_RECALL_ALERT", "trial_index": 40}, "uniqueid": "MTK1927:3U5NZHP4LS9IFLVSORLFHOKU0JTHPF", "dateTime": 1516558071699}, {"current_trial": 41, "trialdata": {"rt": [2007, 5062, 9325, 11925, 21971, 26488, 43752], "recwords": ["saddle", "carrot", "chauffer", "football", "hero", "zebra", "xerox"], "key_times": [808, 1056, 1293, 1489, 1607, 1713, 2007, 3449, 3624, 3822, 4026, 4182, 4417, 5062, 7049, 7166, 7339, 7767, 8507, 8664, 8858, 8925, 9325, 10796, 10918, 11072, 11167, 11274, 11432, 11518, 11684, 11925, 21362, 21503, 21600, 21700, 21971, 24480, 24727, 25350, 25509, 25639, 25868, 25963, 26064, 26261, 26488, 42703, 42945, 43098, 43296, 43477, 43752], "trial_type": "free-recall", "conditions": [18, 1200, "v", 18000], "internal_node_id": "0.0-32.0-0.0", "key_presses": [83, 65, 68, 68, 76, 69, 13, 67, 65, 82, 82, 79, 84, 13, 67, 72, 65, 85, 70, 70, 69, 82, 13, 70, 79, 79, 84, 66, 65, 76, 76, 13, 72, 69, 82, 79, 13, 88, 69, 8, 8, 90, 69, 66, 82, 65, 13, 88, 69, 82, 79, 88, 13], "trial": 0, "time_elapsed": 411081, "type": "FREE_RECALL", "trial_index": 41}, "uniqueid": "MTK1927:3U5NZHP4LS9IFLVSORLFHOKU0JTHPF", "dateTime": 1516558131737}, {"current_trial": 42, "trialdata": {"rt": 1715, "trial_type": "text", "internal_node_id": "0.0-33.0", "time_elapsed": 414820, "key_press": 13, "type": "INSTRUCTIONS", "trial_index": 42}, "uniqueid": "MTK1927:3U5NZHP4LS9IFLVSORLFHOKU0JTHPF", "dateTime": 1516558135456}, {"current_trial": 43, "trialdata": {"rt": [3623, 5487, 7738, 10930, 13245, 15862], "trial_type": "math-distractor", "key_times": [2681, 2787, 3623, 4991, 5080, 5487, 7197, 7432, 7738, 10557, 10736, 10930, 12819, 13055, 13245, 15405, 15610, 15862], "responses": ["15", "15", "18", "22", "20", "23"], "num2": [5, 1, 4, 8, 9, 6, 3], "num3": [3, 7, 6, 9, 7, 8, 2], "conditions": [18, 1200, "v", 18000], "internal_node_id": "0.0-34.0", "key_presses": [97, 101, 13, 97, 101, 13, 97, 104, 13, 98, 98, 13, 98, 96, 13, 98, 99, 13], "trial": 1, "time_elapsed": 434896, "type": "DISTRACTOR", "trial_index": 43, "num1": [7, 7, 8, 5, 4, 9, 6]}, "uniqueid": "MTK1927:3U5NZHP4LS9IFLVSORLFHOKU0JTHPF", "dateTime": 1516558155537}, {"current_trial": 44, "trialdata": {"rt": -1, "trial_type": "single-stim", "stimulus": "<p id=\"stim\">10</p>", "internal_node_id": "0.0-35.0-0.0", "time_elapsed": 437911, "key_press": -1, "trial_index": 44}, "uniqueid": "MTK1927:3U5NZHP4LS9IFLVSORLFHOKU0JTHPF", "dateTime": 1516558158550}, {"current_trial": 45, "trialdata": {"rt": -1, "trial_type": "single-stim", "stimulus": "<p id=\"stim\">9</p>", "internal_node_id": "0.0-35.0-1.0", "time_elapsed": 438924, "key_press": -1, "trial_index": 45}, "uniqueid": "MTK1927:3U5NZHP4LS9IFLVSORLFHOKU0JTHPF", "dateTime": 1516558159561}, {"current_trial": 46, "trialdata": {"rt": -1, "trial_type": "single-stim", "stimulus": "<p id=\"stim\">8</p>", "internal_node_id": "0.0-35.0-2.0", "time_elapsed": 439933, "key_press": -1, "trial_index": 46}, "uniqueid": "MTK1927:3U5NZHP4LS9IFLVSORLFHOKU0JTHPF", "dateTime": 1516558160571}, {"current_trial": 47, "trialdata": {"rt": -1, "trial_type": "single-stim", "stimulus": "<p id=\"stim\">7</p>", "internal_node_id": "0.0-35.0-3.0", "time_elapsed": 440941, "key_press": -1, "trial_index": 47}, "uniqueid": "MTK1927:3U5NZHP4LS9IFLVSORLFHOKU0JTHPF", "dateTime": 1516558161579}, {"current_trial": 48, "trialdata": {"rt": -1, "trial_type": "single-stim", "stimulus": "<p id=\"stim\">6</p>", "internal_node_id": "0.0-35.0-4.0", "time_elapsed": 441948, "key_press": -1, "trial_index": 48}, "uniqueid": "MTK1927:3U5NZHP4LS9IFLVSORLFHOKU0JTHPF", "dateTime": 1516558162587}, {"current_trial": 49, "trialdata": {"rt": -1, "trial_type": "single-stim", "stimulus": "<p id=\"stim\">5</p>", "internal_node_id": "0.0-35.0-5.0", "time_elapsed": 442960, "key_press": -1, "trial_index": 49}, "uniqueid": "MTK1927:3U5NZHP4LS9IFLVSORLFHOKU0JTHPF", "dateTime": 1516558163597}, {"current_trial": 50, "trialdata": {"rt": -1, "trial_type": "single-stim", "stimulus": "<p id=\"stim\">4</p>", "internal_node_id": "0.0-35.0-6.0", "time_elapsed": 443966, "key_press": -1, "trial_index": 50}, "uniqueid": "MTK1927:3U5NZHP4LS9IFLVSORLFHOKU0JTHPF", "dateTime": 1516558164603}, {"current_trial": 51, "trialdata": {"rt": -1, "trial_type": "single-stim", "stimulus": "<p id=\"stim\">3</p>", "internal_node_id": "0.0-35.0-7.0", "time_elapsed": 444972, "key_press": -1, "trial_index": 51}, "uniqueid": "MTK1927:3U5NZHP4LS9IFLVSORLFHOKU0JTHPF", "dateTime": 1516558165609}, {"current_trial": 52, "trialdata": {"rt": -1, "trial_type": "single-stim", "stimulus": "<p id=\"stim\">2</p>", "internal_node_id": "0.0-35.0-8.0", "time_elapsed": 445978, "key_press": -1, "trial_index": 52}, "uniqueid": "MTK1927:3U5NZHP4LS9IFLVSORLFHOKU0JTHPF", "dateTime": 1516558166615}, {"current_trial": 53, "trialdata": {"rt": -1, "trial_type": "single-stim", "stimulus": "<p id=\"stim\">1</p>", "internal_node_id": "0.0-35.0-9.0", "time_elapsed": 446986, "key_press": -1, "trial_index": 53}, "uniqueid": "MTK1927:3U5NZHP4LS9IFLVSORLFHOKU0JTHPF", "dateTime": 1516558167628}, {"current_trial": 54, "trialdata": {"rt": -1, "trial_type": "single-stim", "stimulus": "<p id=\"stim\">+</p>", "internal_node_id": "0.0-36.0-0.0", "time_elapsed": 448504, "key_press": -1, "type": "FIXATION", "trial_index": 54}, "uniqueid": "MTK1927:3U5NZHP4LS9IFLVSORLFHOKU0JTHPF", "dateTime": 1516558169142}, {"current_trial": 55, "trialdata": {"rt": -1, "trial_type": "single-stim", "word": "trout", "stimulus": "<p id=\"stim\">TROUT</p>", "conditions": [18, 1200, "v", 18000], "internal_node_id": "0.0-37.0", "trial": 1, "time_elapsed": 449710, "serialpos": 0, "key_press": -1, "wordID": 1510, "type": "PRES_VIS", "trial_index": 55}, "uniqueid": "MTK1927:3U5NZHP4LS9IFLVSORLFHOKU0JTHPF", "dateTime": 1516558170347}, {"current_trial": 56, "trialdata": {"rt": -1, "trial_type": "single-stim", "word": "crater", "stimulus": "<p id=\"stim\">CRATER</p>", "conditions": [18, 1200, "v", 18000], "internal_node_id": "0.0-38.0", "trial": 1, "time_elapsed": 451881, "serialpos": 1, "key_press": -1, "wordID": 399, "type": "PRES_VIS", "trial_index": 56}, "uniqueid": "MTK1927:3U5NZHP4LS9IFLVSORLFHOKU0JTHPF", "dateTime": 1516558172519}, {"current_trial": 57, "trialdata": {"rt": -1, "trial_type": "single-stim", "word": "world", "stimulus": "<p id=\"stim\">WORLD</p>", "conditions": [18, 1200, "v", 18000], "internal_node_id": "0.0-39.0", "trial": 1, "time_elapsed": 454150, "serialpos": 2, "key_press": -1, "wordID": 1621, "type": "PRES_VIS", "trial_index": 57}, "uniqueid": "MTK1927:3U5NZHP4LS9IFLVSORLFHOKU0JTHPF", "dateTime": 1516558174787}, {"current_trial": 58, "trialdata": {"rt": -1, "trial_type": "single-stim", "word": "sculpture", "stimulus": "<p id=\"stim\">SCULPTURE</p>", "conditions": [18, 1200, "v", 18000], "internal_node_id": "0.0-40.0", "trial": 1, "time_elapsed": 456512, "serialpos": 3, "key_press": -1, "wordID": 1257, "type": "PRES_VIS", "trial_index": 58}, "uniqueid": "MTK1927:3U5NZHP4LS9IFLVSORLFHOKU0JTHPF", "dateTime": 1516558177150}, {"current_trial": 59, "trialdata": {"rt": -1, "trial_type": "single-stim", "word": "relish", "stimulus": "<p id=\"stim\">RELISH</p>", "conditions": [18, 1200, "v", 18000], "internal_node_id": "0.0-41.0", "trial": 1, "time_elapsed": 458752, "serialpos": 4, "key_press": -1, "wordID": 1182, "type": "PRES_VIS", "trial_index": 59}, "uniqueid": "MTK1927:3U5NZHP4LS9IFLVSORLFHOKU0JTHPF", "dateTime": 1516558179389}, {"current_trial": 60, "trialdata": {"rt": -1, "trial_type": "single-stim", "word": "stream", "stimulus": "<p id=\"stim\">STREAM</p>", "conditions": [18, 1200, "v", 18000], "internal_node_id": "0.0-42.0", "trial": 1, "time_elapsed": 460845, "serialpos": 5, "key_press": -1, "wordID": 1391, "type": "PRES_VIS", "trial_index": 60}, "uniqueid": "MTK1927:3U5NZHP4LS9IFLVSORLFHOKU0JTHPF", "dateTime": 1516558181482}, {"current_trial": 61, "trialdata": {"rt": -1, "trial_type": "single-stim", "word": "stove", "stimulus": "<p id=\"stim\">STOVE</p>", "conditions": [18, 1200, "v", 18000], "internal_node_id": "0.0-43.0", "trial": 1, "time_elapsed": 462948, "serialpos": 6, "key_press": -1, "wordID": 1387, "type": "PRES_VIS", "trial_index": 61}, "uniqueid": "MTK1927:3U5NZHP4LS9IFLVSORLFHOKU0JTHPF", "dateTime": 1516558183585}, {"current_trial": 62, "trialdata": {"rt": -1, "trial_type": "single-stim", "word": "eagle", "stimulus": "<p id=\"stim\">EAGLE</p>", "conditions": [18, 1200, "v", 18000], "internal_node_id": "0.0-44.0", "trial": 1, "time_elapsed": 465353, "serialpos": 7, "key_press": -1, "wordID": 511, "type": "PRES_VIS", "trial_index": 62}, "uniqueid": "MTK1927:3U5NZHP4LS9IFLVSORLFHOKU0JTHPF", "dateTime": 1516558185990}, {"current_trial": 63, "trialdata": {"rt": -1, "trial_type": "single-stim", "word": "muffin", "stimulus": "<p id=\"stim\">MUFFIN</p>", "conditions": [18, 1200, "v", 18000], "internal_node_id": "0.0-45.0", "trial": 1, "time_elapsed": 467391, "serialpos": 8, "key_press": -1, "wordID": 928, "type": "PRES_VIS", "trial_index": 63}, "uniqueid": "MTK1927:3U5NZHP4LS9IFLVSORLFHOKU0JTHPF", "dateTime": 1516558188028}, {"current_trial": 64, "trialdata": {"rt": -1, "trial_type": "single-stim", "word": "piston", "stimulus": "<p id=\"stim\">PISTON</p>", "conditions": [18, 1200, "v", 18000], "internal_node_id": "0.0-46.0", "trial": 1, "time_elapsed": 469602, "serialpos": 9, "key_press": -1, "wordID": 1075, "type": "PRES_VIS", "trial_index": 64}, "uniqueid": "MTK1927:3U5NZHP4LS9IFLVSORLFHOKU0JTHPF", "dateTime": 1516558190239}, {"current_trial": 65, "trialdata": {"rt": -1, "trial_type": "single-stim", "word": "wasp", "stimulus": "<p id=\"stim\">WASP</p>", "conditions": [18, 1200, "v", 18000], "internal_node_id": "0.0-47.0", "trial": 1, "time_elapsed": 471946, "serialpos": 10, "key_press": -1, "wordID": 1592, "type": "PRES_VIS", "trial_index": 65}, "uniqueid": "MTK1927:3U5NZHP4LS9IFLVSORLFHOKU0JTHPF", "dateTime": 1516558192583}, {"current_trial": 66, "trialdata": {"rt": -1, "trial_type": "single-stim", "word": "perfume", "stimulus": "<p id=\"stim\">PERFUME</p>", "conditions": [18, 1200, "v", 18000], "internal_node_id": "0.0-48.0", "trial": 1, "time_elapsed": 473986, "serialpos": 11, "key_press": -1, "wordID": 1048, "type": "PRES_VIS", "trial_index": 66}, "uniqueid": "MTK1927:3U5NZHP4LS9IFLVSORLFHOKU0JTHPF", "dateTime": 1516558194623}, {"current_trial": 67, "trialdata": {"rt": -1, "trial_type": "single-stim", "word": "drink", "stimulus": "<p id=\"stim\">DRINK</p>", "conditions": [18, 1200, "v", 18000], "internal_node_id": "0.0-49.0", "trial": 1, "time_elapsed": 476380, "serialpos": 12, "key_press": -1, "wordID": 497, "type": "PRES_VIS", "trial_index": 67}, "uniqueid": "MTK1927:3U5NZHP4LS9IFLVSORLFHOKU0JTHPF", "dateTime": 1516558197016}, {"current_trial": 68, "trialdata": {"rt": -1, "trial_type": "single-stim", "word": "lily", "stimulus": "<p id=\"stim\">LILY</p>", "conditions": [18, 1200, "v", 18000], "internal_node_id": "0.0-50.0", "trial": 1, "time_elapsed": 478443, "serialpos": 13, "key_press": -1, "wordID": 820, "type": "PRES_VIS", "trial_index": 68}, "uniqueid": "MTK1927:3U5NZHP4LS9IFLVSORLFHOKU0JTHPF", "dateTime": 1516558199079}, {"current_trial": 69, "trialdata": {"rt": -1, "trial_type": "single-stim", "word": "thief", "stimulus": "<p id=\"stim\">THIEF</p>", "conditions": [18, 1200, "v", 18000], "internal_node_id": "0.0-51.0", "trial": 1, "time_elapsed": 480718, "serialpos": 14, "key_press": -1, "wordID": 1455, "type": "PRES_VIS", "trial_index": 69}, "uniqueid": "MTK1927:3U5NZHP4LS9IFLVSORLFHOKU0JTHPF", "dateTime": 1516558201355}, {"current_trial": 70, "trialdata": {"rt": -1, "trial_type": "single-stim", "word": "marine", "stimulus": "<p id=\"stim\">MARINE</p>", "conditions": [18, 1200, "v", 18000], "internal_node_id": "0.0-52.0", "trial": 1, "time_elapsed": 483028, "serialpos": 15, "key_press": -1, "wordID": 868, "type": "PRES_VIS", "trial_index": 70}, "uniqueid": "MTK1927:3U5NZHP4LS9IFLVSORLFHOKU0JTHPF", "dateTime": 1516558203664}, {"current_trial": 71, "trialdata": {"rt": -1, "trial_type": "single-stim", "word": "wardrobe", "stimulus": "<p id=\"stim\">WARDROBE</p>", "conditions": [18, 1200, "v", 18000], "internal_node_id": "0.0-53.0", "trial": 1, "time_elapsed": 485361, "serialpos": 16, "key_press": -1, "wordID": 1586, "type": "PRES_VIS", "trial_index": 71}, "uniqueid": "MTK1927:3U5NZHP4LS9IFLVSORLFHOKU0JTHPF", "dateTime": 1516558205997}, {"current_trial": 72, "trialdata": {"rt": -1, "trial_type": "single-stim", "word": "sausage", "stimulus": "<p id=\"stim\">SAUSAGE</p>", "conditions": [18, 1200, "v", 18000], "internal_node_id": "0.0-54.0", "trial": 1, "time_elapsed": 487565, "serialpos": 17, "key_press": -1, "wordID": 1237, "type": "PRES_VIS", "trial_index": 72}, "uniqueid": "MTK1927:3U5NZHP4LS9IFLVSORLFHOKU0JTHPF", "dateTime": 1516558208201}, {"current_trial": 73, "trialdata": {"rt": -1, "trial_type": "single-stim", "stimulus": "", "internal_node_id": "0.0-55.0-0.0", "time_elapsed": 489738, "key_press": -1, "type": "PRE_RECALL_DELAY", "trial_index": 73}, "uniqueid": "MTK1927:3U5NZHP4LS9IFLVSORLFHOKU0JTHPF", "dateTime": 1516558210374}, {"current_trial": 74, "trialdata": {"rt": -1000, "trial_type": "single-audio", "stimulus": "/static/audio/400Hz.wav", "internal_node_id": "0.0-56.0", "time_elapsed": 490241, "key_press": -1, "type": "PRE_RECALL_ALERT", "trial_index": 74}, "uniqueid": "MTK1927:3U5NZHP4LS9IFLVSORLFHOKU0JTHPF", "dateTime": 1516558210877}, {"current_trial": 75, "trialdata": {"rt": [3005, 4393, 5794, 7269, 8963, 11616, 13718, 15155, 20067, 24709, 30823, 37953, 46721], "recwords": ["trout", "stove", "wasp", "drink", "lily", "muffin", "eagle", "stream", "marine", "perfume", "wardrobe", "piston", "drink"], "key_times": [2400, 2595, 2707, 2775, 2896, 3005, 3349, 3516, 3628, 3803, 4015, 4393, 5070, 5251, 5376, 5555, 5794, 6437, 6627, 6725, 6857, 6982, 7269, 7775, 8028, 8134, 8798, 8963, 10141, 10595, 10708, 10916, 11017, 11105, 11616, 12714, 12878, 13376, 13488, 13571, 13718, 14103, 14344, 14567, 14636, 14842, 14906, 15155, 17933, 18033, 18287, 19098, 19337, 19862, 20067, 23352, 23530, 23620, 23864, 24231, 24465, 24636, 24709, 28445, 28649, 28890, 29094, 29401, 29677, 30452, 30684, 30823, 34498, 35639, 36229, 36469, 36588, 36828, 37290, 37387, 37953, 42571, 42788, 42967, 43231, 43485, 46721], "trial_type": "free-recall", "conditions": [18, 1200, "v", 18000], "internal_node_id": "0.0-57.0-0.0", "key_presses": [84, 82, 79, 85, 84, 13, 83, 84, 79, 86, 69, 13, 87, 65, 83, 80, 13, 68, 82, 73, 78, 75, 13, 76, 73, 76, 89, 13, 77, 85, 70, 70, 73, 78, 13, 69, 65, 71, 76, 69, 13, 83, 84, 82, 69, 65, 77, 13, 77, 65, 82, 73, 78, 69, 13, 80, 69, 82, 70, 85, 77, 69, 13, 87, 65, 82, 68, 82, 79, 66, 69, 13, 219, 8, 80, 73, 83, 84, 79, 78, 13, 68, 82, 73, 78, 75, 13], "trial": 1, "time_elapsed": 550254, "type": "FREE_RECALL", "trial_index": 75}, "uniqueid": "MTK1927:3U5NZHP4LS9IFLVSORLFHOKU0JTHPF", "dateTime": 1516558270939}, {"current_trial": 76, "trialdata": {"rt": 3366, "trial_type": "text", "internal_node_id": "0.0-58.0", "time_elapsed": 555673, "key_press": 13, "type": "INSTRUCTIONS", "trial_index": 76}, "uniqueid": "MTK1927:3U5NZHP4LS9IFLVSORLFHOKU0JTHPF", "dateTime": 1516558276310}, {"current_trial": 77, "trialdata": {"rt": [4983, 6748, 9538, 11568], "trial_type": "math-distractor", "key_times": [4189, 4213, 4983, 6338, 6529, 6748, 8610, 8716, 9538, 11324, 11568], "responses": ["23", "19", "13", "9"], "num2": [6, 9, 4, 5, 3], "num3": [8, 4, 5, 2, 4], "conditions": [12, 1600, "v", 12000], "internal_node_id": "0.0-59.0", "key_presses": [98, 99, 13, 97, 105, 13, 97, 99, 13, 105, 13], "trial": 2, "time_elapsed": 568707, "type": "DISTRACTOR", "trial_index": 77, "num1": [9, 6, 4, 2, 8]}, "uniqueid": "MTK1927:3U5NZHP4LS9IFLVSORLFHOKU0JTHPF", "dateTime": 1516558289343}, {"current_trial": 78, "trialdata": {"rt": -1, "trial_type": "single-stim", "stimulus": "<p id=\"stim\">10</p>", "internal_node_id": "0.0-60.0-0.0", "time_elapsed": 571710, "key_press": -1, "trial_index": 78}, "uniqueid": "MTK1927:3U5NZHP4LS9IFLVSORLFHOKU0JTHPF", "dateTime": 1516558292346}, {"current_trial": 79, "trialdata": {"rt": -1, "trial_type": "single-stim", "stimulus": "<p id=\"stim\">9</p>", "internal_node_id": "0.0-60.0-1.0", "time_elapsed": 572711, "key_press": -1, "trial_index": 79}, "uniqueid": "MTK1927:3U5NZHP4LS9IFLVSORLFHOKU0JTHPF", "dateTime": 1516558293347}, {"current_trial": 80, "trialdata": {"rt": -1, "trial_type": "single-stim", "stimulus": "<p id=\"stim\">8</p>", "internal_node_id": "0.0-60.0-2.0", "time_elapsed": 573712, "key_press": -1, "trial_index": 80}, "uniqueid": "MTK1927:3U5NZHP4LS9IFLVSORLFHOKU0JTHPF", "dateTime": 1516558294348}, {"current_trial": 81, "trialdata": {"rt": -1, "trial_type": "single-stim", "stimulus": "<p id=\"stim\">7</p>", "internal_node_id": "0.0-60.0-3.0", "time_elapsed": 574713, "key_press": -1, "trial_index": 81}, "uniqueid": "MTK1927:3U5NZHP4LS9IFLVSORLFHOKU0JTHPF", "dateTime": 1516558295349}, {"current_trial": 82, "trialdata": {"rt": -1, "trial_type": "single-stim", "stimulus": "<p id=\"stim\">6</p>", "internal_node_id": "0.0-60.0-4.0", "time_elapsed": 575714, "key_press": -1, "trial_index": 82}, "uniqueid": "MTK1927:3U5NZHP4LS9IFLVSORLFHOKU0JTHPF", "dateTime": 1516558296350}, {"current_trial": 83, "trialdata": {"rt": -1, "trial_type": "single-stim", "stimulus": "<p id=\"stim\">5</p>", "internal_node_id": "0.0-60.0-5.0", "time_elapsed": 576715, "key_press": -1, "trial_index": 83}, "uniqueid": "MTK1927:3U5NZHP4LS9IFLVSORLFHOKU0JTHPF", "dateTime": 1516558297351}, {"current_trial": 84, "trialdata": {"rt": -1, "trial_type": "single-stim", "stimulus": "<p id=\"stim\">4</p>", "internal_node_id": "0.0-60.0-6.0", "time_elapsed": 577716, "key_press": -1, "trial_index": 84}, "uniqueid": "MTK1927:3U5NZHP4LS9IFLVSORLFHOKU0JTHPF", "dateTime": 1516558298352}, {"current_trial": 85, "trialdata": {"rt": -1, "trial_type": "single-stim", "stimulus": "<p id=\"stim\">3</p>", "internal_node_id": "0.0-60.0-7.0", "time_elapsed": 578717, "key_press": -1, "trial_index": 85}, "uniqueid": "MTK1927:3U5NZHP4LS9IFLVSORLFHOKU0JTHPF", "dateTime": 1516558299353}, {"current_trial": 86, "trialdata": {"rt": -1, "trial_type": "single-stim", "stimulus": "<p id=\"stim\">2</p>", "internal_node_id": "0.0-60.0-8.0", "time_elapsed": 579718, "key_press": -1, "trial_index": 86}, "uniqueid": "MTK1927:3U5NZHP4LS9IFLVSORLFHOKU0JTHPF", "dateTime": 1516558300354}, {"current_trial": 87, "trialdata": {"rt": -1, "trial_type": "single-stim", "stimulus": "<p id=\"stim\">1</p>", "internal_node_id": "0.0-60.0-9.0", "time_elapsed": 580720, "key_press": -1, "trial_index": 87}, "uniqueid": "MTK1927:3U5NZHP4LS9IFLVSORLFHOKU0JTHPF", "dateTime": 1516558301356}, {"current_trial": 88, "trialdata": {"rt": -1, "trial_type": "single-stim", "stimulus": "<p id=\"stim\">+</p>", "internal_node_id": "0.0-61.0-0.0", "time_elapsed": 582221, "key_press": -1, "type": "FIXATION", "trial_index": 88}, "uniqueid": "MTK1927:3U5NZHP4LS9IFLVSORLFHOKU0JTHPF", "dateTime": 1516558302858}, {"current_trial": 89, "trialdata": {"rt": -1, "trial_type": "single-stim", "word": "guard", "stimulus": "<p id=\"stim\">GUARD</p>", "conditions": [12, 1600, "v", 12000], "internal_node_id": "0.0-62.0", "trial": 2, "time_elapsed": 583823, "serialpos": 0, "key_press": -1, "wordID": 666, "type": "PRES_VIS", "trial_index": 89}, "uniqueid": "MTK1927:3U5NZHP4LS9IFLVSORLFHOKU0JTHPF", "dateTime": 1516558304459}, {"current_trial": 90, "trialdata": {"rt": -1, "trial_type": "single-stim", "word": "spool", "stimulus": "<p id=\"stim\">SPOOL</p>", "conditions": [12, 1600, "v", 12000], "internal_node_id": "0.0-63.0", "trial": 2, "time_elapsed": 586306, "serialpos": 1, "key_press": -1, "wordID": 1355, "type": "PRES_VIS", "trial_index": 90}, "uniqueid": "MTK1927:3U5NZHP4LS9IFLVSORLFHOKU0JTHPF", "dateTime": 1516558306942}, {"current_trial": 91, "trialdata": {"rt": -1, "trial_type": "single-stim", "word": "mammal", "stimulus": "<p id=\"stim\">MAMMAL</p>", "conditions": [12, 1600, "v", 12000], "internal_node_id": "0.0-64.0", "trial": 2, "time_elapsed": 589100, "serialpos": 2, "key_press": -1, "wordID": 860, "type": "PRES_VIS", "trial_index": 91}, "uniqueid": "MTK1927:3U5NZHP4LS9IFLVSORLFHOKU0JTHPF", "dateTime": 1516558309736}, {"current_trial": 92, "trialdata": {"rt": -1, "trial_type": "single-stim", "word": "plaza", "stimulus": "<p id=\"stim\">PLAZA</p>", "conditions": [12, 1600, "v", 12000], "internal_node_id": "0.0-65.0", "trial": 2, "time_elapsed": 591850, "serialpos": 3, "key_press": -1, "wordID": 1087, "type": "PRES_VIS", "trial_index": 92}, "uniqueid": "MTK1927:3U5NZHP4LS9IFLVSORLFHOKU0JTHPF", "dateTime": 1516558312487}, {"current_trial": 93, "trialdata": {"rt": -1, "trial_type": "single-stim", "word": "sidewalk", "stimulus": "<p id=\"stim\">SIDEWALK</p>", "conditions": [12, 1600, "v", 12000], "internal_node_id": "0.0-66.0", "trial": 2, "time_elapsed": 594548, "serialpos": 4, "key_press": -1, "wordID": 1302, "type": "PRES_VIS", "trial_index": 93}, "uniqueid": "MTK1927:3U5NZHP4LS9IFLVSORLFHOKU0JTHPF", "dateTime": 1516558315185}, {"current_trial": 94, "trialdata": {"rt": -1, "trial_type": "single-stim", "word": "package", "stimulus": "<p id=\"stim\">PACKAGE</p>", "conditions": [12, 1600, "v", 12000], "internal_node_id": "0.0-67.0", "trial": 2, "time_elapsed": 596956, "serialpos": 5, "key_press": -1, "wordID": 996, "type": "PRES_VIS", "trial_index": 94}, "uniqueid": "MTK1927:3U5NZHP4LS9IFLVSORLFHOKU0JTHPF", "dateTime": 1516558317593}, {"current_trial": 95, "trialdata": {"rt": -1, "trial_type": "single-stim", "word": "crown", "stimulus": "<p id=\"stim\">CROWN</p>", "conditions": [12, 1600, "v", 12000], "internal_node_id": "0.0-68.0", "trial": 2, "time_elapsed": 599494, "serialpos": 6, "key_press": -1, "wordID": 414, "type": "PRES_VIS", "trial_index": 95}, "uniqueid": "MTK1927:3U5NZHP4LS9IFLVSORLFHOKU0JTHPF", "dateTime": 1516558320132}, {"current_trial": 96, "trialdata": {"rt": -1, "trial_type": "single-stim", "word": "novel", "stimulus": "<p id=\"stim\">NOVEL</p>", "conditions": [12, 1600, "v", 12000], "internal_node_id": "0.0-69.0", "trial": 2, "time_elapsed": 602218, "serialpos": 7, "key_press": -1, "wordID": 959, "type": "PRES_VIS", "trial_index": 96}, "uniqueid": "MTK1927:3U5NZHP4LS9IFLVSORLFHOKU0JTHPF", "dateTime": 1516558322855}, {"current_trial": 97, "trialdata": {"rt": -1, "trial_type": "single-stim", "word": "balloon", "stimulus": "<p id=\"stim\">BALLOON</p>", "conditions": [12, 1600, "v", 12000], "internal_node_id": "0.0-70.0", "trial": 2, "time_elapsed": 604854, "serialpos": 8, "key_press": -1, "wordID": 74, "type": "PRES_VIS", "trial_index": 97}, "uniqueid": "MTK1927:3U5NZHP4LS9IFLVSORLFHOKU0JTHPF", "dateTime": 1516558325492}, {"current_trial": 98, "trialdata": {"rt": -1, "trial_type": "single-stim", "word": "primate", "stimulus": "<p id=\"stim\">PRIMATE</p>", "conditions": [12, 1600, "v", 12000], "internal_node_id": "0.0-71.0", "trial": 2, "time_elapsed": 607565, "serialpos": 9, "key_press": -1, "wordID": 1122, "type": "PRES_VIS", "trial_index": 98}, "uniqueid": "MTK1927:3U5NZHP4LS9IFLVSORLFHOKU0JTHPF", "dateTime": 1516558328203}, {"current_trial": 99, "trialdata": {"rt": -1, "trial_type": "single-stim", "word": "police", "stimulus": "<p id=\"stim\">POLICE</p>", "conditions": [12, 1600, "v", 12000], "internal_node_id": "0.0-72.0", "trial": 2, "time_elapsed": 610346, "serialpos": 10, "key_press": -1, "wordID": 1097, "type": "PRES_VIS", "trial_index": 99}, "uniqueid": "MTK1927:3U5NZHP4LS9IFLVSORLFHOKU0JTHPF", "dateTime": 1516558330984}, {"current_trial": 100, "trialdata": {"rt": -1, "trial_type": "single-stim", "word": "student", "stimulus": "<p id=\"stim\">STUDENT</p>", "conditions": [12, 1600, "v", 12000], "internal_node_id": "0.0-73.0", "trial": 2, "time_elapsed": 613028, "serialpos": 11, "key_press": -1, "wordID": 1394, "type": "PRES_VIS", "trial_index": 100}, "uniqueid": "MTK1927:3U5NZHP4LS9IFLVSORLFHOKU0JTHPF", "dateTime": 1516558333666}, {"current_trial": 101, "trialdata": {"rt": -1, "trial_type": "single-stim", "stimulus": "", "internal_node_id": "0.0-74.0-0.0", "time_elapsed": 615467, "key_press": -1, "type": "PRE_RECALL_DELAY", "trial_index": 101}, "uniqueid": "MTK1927:3U5NZHP4LS9IFLVSORLFHOKU0JTHPF", "dateTime": 1516558336105}, {"current_trial": 102, "trialdata": {"rt": -1000, "trial_type": "single-audio", "stimulus": "/static/audio/400Hz.wav", "internal_node_id": "0.0-75.0", "time_elapsed": 615973, "key_press": -1, "type": "PRE_RECALL_ALERT", "trial_index": 102}, "uniqueid": "MTK1927:3U5NZHP4LS9IFLVSORLFHOKU0JTHPF", "dateTime": 1516558336610}, {"current_trial": 103, "trialdata": {"rt": [4709, 8652, 12702, 15316, 18781, 23165, 28115, 33010, 37316, 41932, 45082], "recwords": ["student", "novel", "package", "balloon", "crown", "primate", "spool", "police", "guard", "mammal", "plaza"], "key_times": [2933, 3142, 3241, 3346, 3723, 3885, 4299, 4488, 4612, 4709, 6766, 6853, 6979, 7147, 7207, 8652, 10328, 10461, 10645, 10756, 11136, 12072, 12266, 12426, 12628, 12702, 14281, 14401, 14504, 14659, 14837, 15030, 15120, 15316, 17012, 17278, 17512, 17947, 18329, 18495, 18568, 18781, 21006, 21210, 21343, 21427, 21546, 21751, 22007, 23165, 26897, 26969, 27308, 27494, 27718, 28115, 31717, 32270, 32474, 32575, 32696, 32928, 33010, 35405, 35482, 35599, 35824, 36489, 37316, 40809, 40963, 41060, 41229, 41359, 41497, 41932, 44316, 44399, 44509, 44709, 45005, 45082, 51787, 51893, 53316, 53553, 55368], "trial_type": "free-recall", "conditions": [12, 1600, "v", 12000], "internal_node_id": "0.0-76.0-0.0", "key_presses": [83, 84, 85, 70, 8, 68, 69, 78, 84, 13, 78, 79, 86, 69, 76, 13, 80, 65, 67, 75, 71, 8, 65, 71, 69, 13, 66, 65, 76, 76, 79, 79, 78, 13, 67, 82, 87, 8, 79, 87, 78, 13, 80, 82, 73, 77, 65, 84, 69, 13, 83, 80, 79, 79, 76, 13, 80, 79, 76, 73, 67, 69, 13, 71, 85, 65, 82, 68, 13, 77, 65, 77, 77, 65, 76, 13, 80, 76, 65, 90, 65, 13, 78, 79, 86, 69, 76], "trial": 2, "time_elapsed": 675993, "type": "FREE_RECALL", "trial_index": 103}, "uniqueid": "MTK1927:3U5NZHP4LS9IFLVSORLFHOKU0JTHPF", "dateTime": 1516558396640}, {"current_trial": 104, "trialdata": {"rt": 1357, "trial_type": "text", "internal_node_id": "0.0-77.0", "time_elapsed": 679363, "key_press": 13, "type": "INSTRUCTIONS", "trial_index": 104}, "uniqueid": "MTK1927:3U5NZHP4LS9IFLVSORLFHOKU0JTHPF", "dateTime": 1516558399999}, {"current_trial": 105, "trialdata": {"rt": [3149, 5172, 7276, 9469, 11968, 15588, 17070, 18770, 22189], "trial_type": "math-distractor", "key_times": [2566, 2696, 3149, 4924, 5172, 6921, 7107, 7276, 8985, 9230, 9469, 11566, 11792, 11968, 15337, 15411, 15588, 16741, 16880, 17070, 18398, 18594, 18770, 21862, 21932, 22189, 23839, 23959], "responses": ["12", "9", "14", "17", "14", "21", "18", "20", "12"], "num2": [3, 1, 4, 5, 7, 6, 9, 9, 6, 4], "num3": [7, 5, 4, 9, 6, 7, 1, 1, 4, 4], "conditions": [12, 800, "v", 24000], "internal_node_id": "0.0-78.0", "key_presses": [97, 98, 13, 105, 13, 97, 100, 13, 97, 103, 13, 97, 100, 13, 98, 97, 13, 97, 104, 13, 98, 96, 13, 97, 98, 13, 97, 99], "trial": 3, "time_elapsed": 705374, "type": "DISTRACTOR", "trial_index": 105, "num1": [2, 3, 6, 3, 1, 8, 8, 9, 2, 5]}, "uniqueid": "MTK1927:3U5NZHP4LS9IFLVSORLFHOKU0JTHPF", "dateTime": 1516558426011}, {"current_trial": 106, "trialdata": {"rt": -1, "trial_type": "single-stim", "stimulus": "<p id=\"stim\">10</p>", "internal_node_id": "0.0-79.0-0.0", "time_elapsed": 708378, "key_press": -1, "trial_index": 106}, "uniqueid": "MTK1927:3U5NZHP4LS9IFLVSORLFHOKU0JTHPF", "dateTime": 1516558429015}, {"current_trial": 107, "trialdata": {"rt": -1, "trial_type": "single-stim", "stimulus": "<p id=\"stim\">9</p>", "internal_node_id": "0.0-79.0-1.0", "time_elapsed": 709382, "key_press": -1, "trial_index": 107}, "uniqueid": "MTK1927:3U5NZHP4LS9IFLVSORLFHOKU0JTHPF", "dateTime": 1516558430020}, {"current_trial": 108, "trialdata": {"rt": -1, "trial_type": "single-stim", "stimulus": "<p id=\"stim\">8</p>", "internal_node_id": "0.0-79.0-2.0", "time_elapsed": 710387, "key_press": -1, "trial_index": 108}, "uniqueid": "MTK1927:3U5NZHP4LS9IFLVSORLFHOKU0JTHPF", "dateTime": 1516558431025}, {"current_trial": 109, "trialdata": {"rt": -1, "trial_type": "single-stim", "stimulus": "<p id=\"stim\">7</p>", "internal_node_id": "0.0-79.0-3.0", "time_elapsed": 711392, "key_press": -1, "trial_index": 109}, "uniqueid": "MTK1927:3U5NZHP4LS9IFLVSORLFHOKU0JTHPF", "dateTime": 1516558432029}, {"current_trial": 110, "trialdata": {"rt": -1, "trial_type": "single-stim", "stimulus": "<p id=\"stim\">6</p>", "internal_node_id": "0.0-79.0-4.0", "time_elapsed": 712396, "key_press": -1, "trial_index": 110}, "uniqueid": "MTK1927:3U5NZHP4LS9IFLVSORLFHOKU0JTHPF", "dateTime": 1516558433033}, {"current_trial": 111, "trialdata": {"rt": -1, "trial_type": "single-stim", "stimulus": "<p id=\"stim\">5</p>", "internal_node_id": "0.0-79.0-5.0", "time_elapsed": 713400, "key_press": -1, "trial_index": 111}, "uniqueid": "MTK1927:3U5NZHP4LS9IFLVSORLFHOKU0JTHPF", "dateTime": 1516558434037}, {"current_trial": 112, "trialdata": {"rt": -1, "trial_type": "single-stim", "stimulus": "<p id=\"stim\">4</p>", "internal_node_id": "0.0-79.0-6.0", "time_elapsed": 714404, "key_press": -1, "trial_index": 112}, "uniqueid": "MTK1927:3U5NZHP4LS9IFLVSORLFHOKU0JTHPF", "dateTime": 1516558435041}, {"current_trial": 113, "trialdata": {"rt": -1, "trial_type": "single-stim", "stimulus": "<p id=\"stim\">3</p>", "internal_node_id": "0.0-79.0-7.0", "time_elapsed": 715408, "key_press": -1, "trial_index": 113}, "uniqueid": "MTK1927:3U5NZHP4LS9IFLVSORLFHOKU0JTHPF", "dateTime": 1516558436045}, {"current_trial": 114, "trialdata": {"rt": -1, "trial_type": "single-stim", "stimulus": "<p id=\"stim\">2</p>", "internal_node_id": "0.0-79.0-8.0", "time_elapsed": 716412, "key_press": -1, "trial_index": 114}, "uniqueid": "MTK1927:3U5NZHP4LS9IFLVSORLFHOKU0JTHPF", "dateTime": 1516558437049}, {"current_trial": 115, "trialdata": {"rt": -1, "trial_type": "single-stim", "stimulus": "<p id=\"stim\">1</p>", "internal_node_id": "0.0-79.0-9.0", "time_elapsed": 717416, "key_press": -1, "trial_index": 115}, "uniqueid": "MTK1927:3U5NZHP4LS9IFLVSORLFHOKU0JTHPF", "dateTime": 1516558438053}, {"current_trial": 116, "trialdata": {"rt": -1, "trial_type": "single-stim", "stimulus": "<p id=\"stim\">+</p>", "internal_node_id": "0.0-80.0-0.0", "time_elapsed": 718920, "key_press": -1, "type": "FIXATION", "trial_index": 116}, "uniqueid": "MTK1927:3U5NZHP4LS9IFLVSORLFHOKU0JTHPF", "dateTime": 1516558439557}, {"current_trial": 117, "trialdata": {"rt": -1, "trial_type": "single-stim", "word": "server", "stimulus": "<p id=\"stim\">SERVER</p>", "conditions": [12, 800, "v", 24000], "internal_node_id": "0.0-81.0", "trial": 3, "time_elapsed": 719724, "serialpos": 0, "key_press": -1, "wordID": 1271, "type": "PRES_VIS", "trial_index": 117}, "uniqueid": "MTK1927:3U5NZHP4LS9IFLVSORLFHOKU0JTHPF", "dateTime": 1516558440361}, {"current_trial": 118, "trialdata": {"rt": -1, "trial_type": "single-stim", "word": "waitress", "stimulus": "<p id=\"stim\">WAITRESS</p>", "conditions": [12, 800, "v", 24000], "internal_node_id": "0.0-82.0", "trial": 3, "time_elapsed": 721718, "serialpos": 1, "key_press": -1, "wordID": 1580, "type": "PRES_VIS", "trial_index": 118}, "uniqueid": "MTK1927:3U5NZHP4LS9IFLVSORLFHOKU0JTHPF", "dateTime": 1516558442355}, {"current_trial": 119, "trialdata": {"rt": -1, "trial_type": "single-stim", "word": "helmet", "stimulus": "<p id=\"stim\">HELMET</p>", "conditions": [12, 800, "v", 24000], "internal_node_id": "0.0-83.0", "trial": 3, "time_elapsed": 723333, "serialpos": 2, "key_press": -1, "wordID": 701, "type": "PRES_VIS", "trial_index": 119}, "uniqueid": "MTK1927:3U5NZHP4LS9IFLVSORLFHOKU0JTHPF", "dateTime": 1516558443970}, {"current_trial": 120, "trialdata": {"rt": -1, "trial_type": "single-stim", "word": "lettuce", "stimulus": "<p id=\"stim\">LETTUCE</p>", "conditions": [12, 800, "v", 24000], "internal_node_id": "0.0-84.0", "trial": 3, "time_elapsed": 725264, "serialpos": 3, "key_press": -1, "wordID": 813, "type": "PRES_VIS", "trial_index": 120}, "uniqueid": "MTK1927:3U5NZHP4LS9IFLVSORLFHOKU0JTHPF", "dateTime": 1516558445901}, {"current_trial": 121, "trialdata": {"rt": -1, "trial_type": "single-stim", "word": "brandy", "stimulus": "<p id=\"stim\">BRANDY</p>", "conditions": [12, 800, "v", 24000], "internal_node_id": "0.0-85.0", "trial": 3, "time_elapsed": 727194, "serialpos": 4, "key_press": -1, "wordID": 168, "type": "PRES_VIS", "trial_index": 121}, "uniqueid": "MTK1927:3U5NZHP4LS9IFLVSORLFHOKU0JTHPF", "dateTime": 1516558447831}, {"current_trial": 122, "trialdata": {"rt": -1, "trial_type": "single-stim", "word": "cafe", "stimulus": "<p id=\"stim\">CAFE</p>", "conditions": [12, 800, "v", 24000], "internal_node_id": "0.0-86.0", "trial": 3, "time_elapsed": 728818, "serialpos": 5, "key_press": -1, "wordID": 215, "type": "PRES_VIS", "trial_index": 122}, "uniqueid": "MTK1927:3U5NZHP4LS9IFLVSORLFHOKU0JTHPF", "dateTime": 1516558449455}, {"current_trial": 123, "trialdata": {"rt": -1, "trial_type": "single-stim", "word": "poison", "stimulus": "<p id=\"stim\">POISON</p>", "conditions": [12, 800, "v", 24000], "internal_node_id": "0.0-87.0", "trial": 3, "time_elapsed": 730670, "serialpos": 6, "key_press": -1, "wordID": 1095, "type": "PRES_VIS", "trial_index": 123}, "uniqueid": "MTK1927:3U5NZHP4LS9IFLVSORLFHOKU0JTHPF", "dateTime": 1516558451307}, {"current_trial": 124, "trialdata": {"rt": -1, "trial_type": "single-stim", "word": "soda", "stimulus": "<p id=\"stim\">SODA</p>", "conditions": [12, 800, "v", 24000], "internal_node_id": "0.0-88.0", "trial": 3, "time_elapsed": 732535, "serialpos": 7, "key_press": -1, "wordID": 1340, "type": "PRES_VIS", "trial_index": 124}, "uniqueid": "MTK1927:3U5NZHP4LS9IFLVSORLFHOKU0JTHPF", "dateTime": 1516558453172}, {"current_trial": 125, "trialdata": {"rt": -1, "trial_type": "single-stim", "word": "coffee", "stimulus": "<p id=\"stim\">COFFEE</p>", "conditions": [12, 800, "v", 24000], "internal_node_id": "0.0-89.0", "trial": 3, "time_elapsed": 734248, "serialpos": 8, "key_press": -1, "wordID": 340, "type": "PRES_VIS", "trial_index": 125}, "uniqueid": "MTK1927:3U5NZHP4LS9IFLVSORLFHOKU0JTHPF", "dateTime": 1516558454885}, {"current_trial": 126, "trialdata": {"rt": -1, "trial_type": "single-stim", "word": "lace", "stimulus": "<p id=\"stim\">LACE</p>", "conditions": [12, 800, "v", 24000], "internal_node_id": "0.0-90.0", "trial": 3, "time_elapsed": 736190, "serialpos": 9, "key_press": -1, "wordID": 791, "type": "PRES_VIS", "trial_index": 126}, "uniqueid": "MTK1927:3U5NZHP4LS9IFLVSORLFHOKU0JTHPF", "dateTime": 1516558456827}, {"current_trial": 127, "trialdata": {"rt": -1, "trial_type": "single-stim", "word": "onion", "stimulus": "<p id=\"stim\">ONION</p>", "conditions": [12, 800, "v", 24000], "internal_node_id": "0.0-91.0", "trial": 3, "time_elapsed": 737951, "serialpos": 10, "key_press": -1, "wordID": 976, "type": "PRES_VIS", "trial_index": 127}, "uniqueid": "MTK1927:3U5NZHP4LS9IFLVSORLFHOKU0JTHPF", "dateTime": 1516558458589}, {"current_trial": 128, "trialdata": {"rt": -1, "trial_type": "single-stim", "word": "lapel", "stimulus": "<p id=\"stim\">LAPEL</p>", "conditions": [12, 800, "v", 24000], "internal_node_id": "0.0-92.0", "trial": 3, "time_elapsed": 739740, "serialpos": 11, "key_press": -1, "wordID": 799, "type": "PRES_VIS", "trial_index": 128}, "uniqueid": "MTK1927:3U5NZHP4LS9IFLVSORLFHOKU0JTHPF", "dateTime": 1516558460378}, {"current_trial": 129, "trialdata": {"rt": -1, "trial_type": "single-stim", "stimulus": "", "internal_node_id": "0.0-93.0-0.0", "time_elapsed": 742178, "key_press": -1, "type": "PRE_RECALL_DELAY", "trial_index": 129}, "uniqueid": "MTK1927:3U5NZHP4LS9IFLVSORLFHOKU0JTHPF", "dateTime": 1516558462816}, {"current_trial": 130, "trialdata": {"rt": -1000, "trial_type": "single-audio", "stimulus": "/static/audio/400Hz.wav", "internal_node_id": "0.0-94.0", "time_elapsed": 742683, "key_press": -1, "type": "PRE_RECALL_ALERT", "trial_index": 130}, "uniqueid": "MTK1927:3U5NZHP4LS9IFLVSORLFHOKU0JTHPF", "dateTime": 1516558463321}, {"current_trial": 131, "trialdata": {"rt": [4485, 9281, 13269, 18296, 29697, 34935, 49200], "recwords": ["lapel", "caf3", "brandy", "lace", "coffee", "lettuce", "onion"], "key_times": [1778, 2870, 3308, 3614, 3683, 3861, 3921, 4485, 8610, 8781, 8952, 9160, 9281, 11883, 11996, 12616, 12694, 12845, 12993, 13269, 16048, 16159, 16380, 17968, 18296, 20621, 20974, 21198, 21380, 21613, 21972, 29697, 32640, 32782, 33024, 33214, 33698, 33825, 34151, 34935, 44936, 45358, 45726, 45781, 46260, 49200], "trial_type": "free-recall", "conditions": [12, 800, "v", 24000], "internal_node_id": "0.0-95.0-0.0", "key_presses": [59, 8, 76, 65, 80, 69, 76, 13, 67, 65, 70, 51, 13, 66, 82, 65, 78, 68, 89, 13, 76, 65, 67, 69, 13, 67, 79, 70, 70, 69, 69, 13, 76, 69, 84, 84, 85, 67, 69, 13, 79, 78, 73, 79, 78, 13], "trial": 3, "time_elapsed": 802709, "type": "FREE_RECALL", "trial_index": 131}, "uniqueid": "MTK1927:3U5NZHP4LS9IFLVSORLFHOKU0JTHPF", "dateTime": 1516558523403}, {"current_trial": 132, "trialdata": {"rt": 46660, "trial_type": "text", "internal_node_id": "0.0-96.0", "time_elapsed": 851434, "key_press": 13, "type": "INSTRUCTIONS", "trial_index": 132}, "uniqueid": "MTK1927:3U5NZHP4LS9IFLVSORLFHOKU0JTHPF", "dateTime": 1516558572071}, {"current_trial": 133, "trialdata": {"rt": [1827, 3549, 8171, 10032], "trial_type": "math-distractor", "key_times": [1476, 1554, 1827, 3313, 3549, 7798, 7904, 8171, 9671, 9800, 10032], "responses": ["13", "9", "15", "10"], "num2": [1, 7, 2, 3, 8], "num3": [6, 1, 9, 6, 5], "conditions": [24, 800, "v", 12000], "internal_node_id": "0.0-97.0", "key_presses": [97, 99, 13, 105, 13, 97, 101, 13, 97, 96, 13], "trial": 4, "time_elapsed": 865443, "type": "DISTRACTOR", "trial_index": 133, "num1": [6, 1, 5, 1, 9]}, "uniqueid": "MTK1927:3U5NZHP4LS9IFLVSORLFHOKU0JTHPF", "dateTime": 1516558586080}, {"current_trial": 134, "trialdata": {"rt": -1, "trial_type": "single-stim", "stimulus": "<p id=\"stim\">10</p>", "internal_node_id": "0.0-98.0-0.0", "time_elapsed": 868447, "key_press": -1, "trial_index": 134}, "uniqueid": "MTK1927:3U5NZHP4LS9IFLVSORLFHOKU0JTHPF", "dateTime": 1516558589084}, {"current_trial": 135, "trialdata": {"rt": -1, "trial_type": "single-stim", "stimulus": "<p id=\"stim\">9</p>", "internal_node_id": "0.0-98.0-1.0", "time_elapsed": 869451, "key_press": -1, "trial_index": 135}, "uniqueid": "MTK1927:3U5NZHP4LS9IFLVSORLFHOKU0JTHPF", "dateTime": 1516558590088}, {"current_trial": 136, "trialdata": {"rt": -1, "trial_type": "single-stim", "stimulus": "<p id=\"stim\">8</p>", "internal_node_id": "0.0-98.0-2.0", "time_elapsed": 870455, "key_press": -1, "trial_index": 136}, "uniqueid": "MTK1927:3U5NZHP4LS9IFLVSORLFHOKU0JTHPF", "dateTime": 1516558591092}, {"current_trial": 137, "trialdata": {"rt": -1, "trial_type": "single-stim", "stimulus": "<p id=\"stim\">7</p>", "internal_node_id": "0.0-98.0-3.0", "time_elapsed": 871459, "key_press": -1, "trial_index": 137}, "uniqueid": "MTK1927:3U5NZHP4LS9IFLVSORLFHOKU0JTHPF", "dateTime": 1516558592096}, {"current_trial": 138, "trialdata": {"rt": -1, "trial_type": "single-stim", "stimulus": "<p id=\"stim\">6</p>", "internal_node_id": "0.0-98.0-4.0", "time_elapsed": 872463, "key_press": -1, "trial_index": 138}, "uniqueid": "MTK1927:3U5NZHP4LS9IFLVSORLFHOKU0JTHPF", "dateTime": 1516558593100}, {"current_trial": 139, "trialdata": {"rt": -1, "trial_type": "single-stim", "stimulus": "<p id=\"stim\">5</p>", "internal_node_id": "0.0-98.0-5.0", "time_elapsed": 873469, "key_press": -1, "trial_index": 139}, "uniqueid": "MTK1927:3U5NZHP4LS9IFLVSORLFHOKU0JTHPF", "dateTime": 1516558594106}, {"current_trial": 140, "trialdata": {"rt": -1, "trial_type": "single-stim", "stimulus": "<p id=\"stim\">4</p>", "internal_node_id": "0.0-98.0-6.0", "time_elapsed": 874472, "key_press": -1, "trial_index": 140}, "uniqueid": "MTK1927:3U5NZHP4LS9IFLVSORLFHOKU0JTHPF", "dateTime": 1516558595109}, {"current_trial": 141, "trialdata": {"rt": -1, "trial_type": "single-stim", "stimulus": "<p id=\"stim\">3</p>", "internal_node_id": "0.0-98.0-7.0", "time_elapsed": 875476, "key_press": -1, "trial_index": 141}, "uniqueid": "MTK1927:3U5NZHP4LS9IFLVSORLFHOKU0JTHPF", "dateTime": 1516558596114}, {"current_trial": 142, "trialdata": {"rt": -1, "trial_type": "single-stim", "stimulus": "<p id=\"stim\">2</p>", "internal_node_id": "0.0-98.0-8.0", "time_elapsed": 876480, "key_press": -1, "trial_index": 142}, "uniqueid": "MTK1927:3U5NZHP4LS9IFLVSORLFHOKU0JTHPF", "dateTime": 1516558597117}, {"current_trial": 143, "trialdata": {"rt": -1, "trial_type": "single-stim", "stimulus": "<p id=\"stim\">1</p>", "internal_node_id": "0.0-98.0-9.0", "time_elapsed": 877484, "key_press": -1, "trial_index": 143}, "uniqueid": "MTK1927:3U5NZHP4LS9IFLVSORLFHOKU0JTHPF", "dateTime": 1516558598122}, {"current_trial": 144, "trialdata": {"rt": -1, "trial_type": "single-stim", "stimulus": "<p id=\"stim\">+</p>", "internal_node_id": "0.0-99.0-0.0", "time_elapsed": 878989, "key_press": -1, "type": "FIXATION", "trial_index": 144}, "uniqueid": "MTK1927:3U5NZHP4LS9IFLVSORLFHOKU0JTHPF", "dateTime": 1516558599627}, {"current_trial": 145, "trialdata": {"rt": -1, "trial_type": "single-stim", "word": "preacher", "stimulus": "<p id=\"stim\">PREACHER</p>", "conditions": [24, 800, "v", 12000], "internal_node_id": "0.0-100.0", "trial": 4, "time_elapsed": 879795, "serialpos": 0, "key_press": -1, "wordID": 1118, "type": "PRES_VIS", "trial_index": 145}, "uniqueid": "MTK1927:3U5NZHP4LS9IFLVSORLFHOKU0JTHPF", "dateTime": 1516558600433}, {"current_trial": 146, "trialdata": {"rt": -1, "trial_type": "single-stim", "word": "shoulder", "stimulus": "<p id=\"stim\">SHOULDER</p>", "conditions": [24, 800, "v", 12000], "internal_node_id": "0.0-101.0", "trial": 4, "time_elapsed": 881420, "serialpos": 1, "key_press": -1, "wordID": 1293, "type": "PRES_VIS", "trial_index": 146}, "uniqueid": "MTK1927:3U5NZHP4LS9IFLVSORLFHOKU0JTHPF", "dateTime": 1516558602058}, {"current_trial": 147, "trialdata": {"rt": -1, "trial_type": "single-stim", "word": "pocket", "stimulus": "<p id=\"stim\">POCKET</p>", "conditions": [24, 800, "v", 12000], "internal_node_id": "0.0-102.0", "trial": 4, "time_elapsed": 883120, "serialpos": 2, "key_press": -1, "wordID": 1092, "type": "PRES_VIS", "trial_index": 147}, "uniqueid": "MTK1927:3U5NZHP4LS9IFLVSORLFHOKU0JTHPF", "dateTime": 1516558603758}, {"current_trial": 148, "trialdata": {"rt": -1, "trial_type": "single-stim", "word": "human", "stimulus": "<p id=\"stim\">HUMAN</p>", "conditions": [24, 800, "v", 12000], "internal_node_id": "0.0-103.0", "trial": 4, "time_elapsed": 884750, "serialpos": 3, "key_press": -1, "wordID": 725, "type": "PRES_VIS", "trial_index": 148}, "uniqueid": "MTK1927:3U5NZHP4LS9IFLVSORLFHOKU0JTHPF", "dateTime": 1516558605388}, {"current_trial": 149, "trialdata": {"rt": -1, "trial_type": "single-stim", "word": "island", "stimulus": "<p id=\"stim\">ISLAND</p>", "conditions": [24, 800, "v", 12000], "internal_node_id": "0.0-104.0", "trial": 4, "time_elapsed": 886713, "serialpos": 4, "key_press": -1, "wordID": 744, "type": "PRES_VIS", "trial_index": 149}, "uniqueid": "MTK1927:3U5NZHP4LS9IFLVSORLFHOKU0JTHPF", "dateTime": 1516558607351}, {"current_trial": 150, "trialdata": {"rt": -1, "trial_type": "single-stim", "word": "cyclone", "stimulus": "<p id=\"stim\">CYCLONE</p>", "conditions": [24, 800, "v", 12000], "internal_node_id": "0.0-105.0", "trial": 4, "time_elapsed": 888423, "serialpos": 5, "key_press": -1, "wordID": 430, "type": "PRES_VIS", "trial_index": 150}, "uniqueid": "MTK1927:3U5NZHP4LS9IFLVSORLFHOKU0JTHPF", "dateTime": 1516558609061}, {"current_trial": 151, "trialdata": {"rt": -1, "trial_type": "single-stim", "word": "nurse", "stimulus": "<p id=\"stim\">NURSE</p>", "conditions": [24, 800, "v", 12000], "internal_node_id": "0.0-106.0", "trial": 4, "time_elapsed": 890409, "serialpos": 6, "key_press": -1, "wordID": 962, "type": "PRES_VIS", "trial_index": 151}, "uniqueid": "MTK1927:3U5NZHP4LS9IFLVSORLFHOKU0JTHPF", "dateTime": 1516558611046}, {"current_trial": 152, "trialdata": {"rt": -1, "trial_type": "single-stim", "word": "tortoise", "stimulus": "<p id=\"stim\">TORTOISE</p>", "conditions": [24, 800, "v", 12000], "internal_node_id": "0.0-107.0", "trial": 4, "time_elapsed": 892072, "serialpos": 7, "key_press": -1, "wordID": 1485, "type": "PRES_VIS", "trial_index": 152}, "uniqueid": "MTK1927:3U5NZHP4LS9IFLVSORLFHOKU0JTHPF", "dateTime": 1516558612709}, {"current_trial": 153, "trialdata": {"rt": -1, "trial_type": "single-stim", "word": "ozone", "stimulus": "<p id=\"stim\">OZONE</p>", "conditions": [24, 800, "v", 12000], "internal_node_id": "0.0-108.0", "trial": 4, "time_elapsed": 893865, "serialpos": 8, "key_press": -1, "wordID": 995, "type": "PRES_VIS", "trial_index": 153}, "uniqueid": "MTK1927:3U5NZHP4LS9IFLVSORLFHOKU0JTHPF", "dateTime": 1516558614502}, {"current_trial": 154, "trialdata": {"rt": -1, "trial_type": "single-stim", "word": "patient", "stimulus": "<p id=\"stim\">PATIENT</p>", "conditions": [24, 800, "v", 12000], "internal_node_id": "0.0-109.0", "trial": 4, "time_elapsed": 895606, "serialpos": 9, "key_press": -1, "wordID": 1023, "type": "PRES_VIS", "trial_index": 154}, "uniqueid": "MTK1927:3U5NZHP4LS9IFLVSORLFHOKU0JTHPF", "dateTime": 1516558616243}, {"current_trial": 155, "trialdata": {"rt": -1, "trial_type": "single-stim", "word": "pizza", "stimulus": "<p id=\"stim\">PIZZA</p>", "conditions": [24, 800, "v", 12000], "internal_node_id": "0.0-110.0", "trial": 4, "time_elapsed": 897451, "serialpos": 10, "key_press": -1, "wordID": 1078, "type": "PRES_VIS", "trial_index": 155}, "uniqueid": "MTK1927:3U5NZHP4LS9IFLVSORLFHOKU0JTHPF", "dateTime": 1516558618088}, {"current_trial": 156, "trialdata": {"rt": -1, "trial_type": "single-stim", "word": "sandwich", "stimulus": "<p id=\"stim\">SANDWICH</p>", "conditions": [24, 800, "v", 12000], "internal_node_id": "0.0-111.0", "trial": 4, "time_elapsed": 899256, "serialpos": 11, "key_press": -1, "wordID": 1231, "type": "PRES_VIS", "trial_index": 156}, "uniqueid": "MTK1927:3U5NZHP4LS9IFLVSORLFHOKU0JTHPF", "dateTime": 1516558619893}, {"current_trial": 157, "trialdata": {"rt": -1, "trial_type": "single-stim", "word": "scissors", "stimulus": "<p id=\"stim\">SCISSORS</p>", "conditions": [24, 800, "v", 12000], "internal_node_id": "0.0-112.0", "trial": 4, "time_elapsed": 901020, "serialpos": 12, "key_press": -1, "wordID": 1249, "type": "PRES_VIS", "trial_index": 157}, "uniqueid": "MTK1927:3U5NZHP4LS9IFLVSORLFHOKU0JTHPF", "dateTime": 1516558621657}, {"current_trial": 158, "trialdata": {"rt": -1, "trial_type": "single-stim", "word": "swimmer", "stimulus": "<p id=\"stim\">SWIMMER</p>", "conditions": [24, 800, "v", 12000], "internal_node_id": "0.0-113.0", "trial": 4, "time_elapsed": 903000, "serialpos": 13, "key_press": -1, "wordID": 1419, "type": "PRES_VIS", "trial_index": 158}, "uniqueid": "MTK1927:3U5NZHP4LS9IFLVSORLFHOKU0JTHPF", "dateTime": 1516558623637}, {"current_trial": 159, "trialdata": {"rt": -1, "trial_type": "single-stim", "word": "truck", "stimulus": "<p id=\"stim\">TRUCK</p>", "conditions": [24, 800, "v", 12000], "internal_node_id": "0.0-114.0", "trial": 4, "time_elapsed": 904797, "serialpos": 14, "key_press": -1, "wordID": 1511, "type": "PRES_VIS", "trial_index": 159}, "uniqueid": "MTK1927:3U5NZHP4LS9IFLVSORLFHOKU0JTHPF", "dateTime": 1516558625434}, {"current_trial": 160, "trialdata": {"rt": -1, "trial_type": "single-stim", "word": "burglar", "stimulus": "<p id=\"stim\">BURGLAR</p>", "conditions": [24, 800, "v", 12000], "internal_node_id": "0.0-115.0", "trial": 4, "time_elapsed": 906788, "serialpos": 15, "key_press": -1, "wordID": 199, "type": "PRES_VIS", "trial_index": 160}, "uniqueid": "MTK1927:3U5NZHP4LS9IFLVSORLFHOKU0JTHPF", "dateTime": 1516558627425}, {"current_trial": 161, "trialdata": {"rt": -1, "trial_type": "single-stim", "word": "tombstone", "stimulus": "<p id=\"stim\">TOMBSTONE</p>", "conditions": [24, 800, "v", 12000], "internal_node_id": "0.0-116.0", "trial": 4, "time_elapsed": 908639, "serialpos": 16, "key_press": -1, "wordID": 1477, "type": "PRES_VIS", "trial_index": 161}, "uniqueid": "MTK1927:3U5NZHP4LS9IFLVSORLFHOKU0JTHPF", "dateTime": 1516558629276}, {"current_trial": 162, "trialdata": {"rt": -1, "trial_type": "single-stim", "word": "tweezers", "stimulus": "<p id=\"stim\">TWEEZERS</p>", "conditions": [24, 800, "v", 12000], "internal_node_id": "0.0-117.0", "trial": 4, "time_elapsed": 910421, "serialpos": 17, "key_press": -1, "wordID": 1525, "type": "PRES_VIS", "trial_index": 162}, "uniqueid": "MTK1927:3U5NZHP4LS9IFLVSORLFHOKU0JTHPF", "dateTime": 1516558631058}, {"current_trial": 163, "trialdata": {"rt": -1, "trial_type": "single-stim", "word": "woman", "stimulus": "<p id=\"stim\">WOMAN</p>", "conditions": [24, 800, "v", 12000], "internal_node_id": "0.0-118.0", "trial": 4, "time_elapsed": 912261, "serialpos": 18, "key_press": -1, "wordID": 1619, "type": "PRES_VIS", "trial_index": 163}, "uniqueid": "MTK1927:3U5NZHP4LS9IFLVSORLFHOKU0JTHPF", "dateTime": 1516558632898}, {"current_trial": 164, "trialdata": {"rt": -1, "trial_type": "single-stim", "word": "daughter", "stimulus": "<p id=\"stim\">DAUGHTER</p>", "conditions": [24, 800, "v", 12000], "internal_node_id": "0.0-119.0", "trial": 4, "time_elapsed": 913967, "serialpos": 19, "key_press": -1, "wordID": 441, "type": "PRES_VIS", "trial_index": 164}, "uniqueid": "MTK1927:3U5NZHP4LS9IFLVSORLFHOKU0JTHPF", "dateTime": 1516558634604}, {"current_trial": 165, "trialdata": {"rt": -1, "trial_type": "single-stim", "word": "egypt", "stimulus": "<p id=\"stim\">EGYPT</p>", "conditions": [24, 800, "v", 12000], "internal_node_id": "0.0-120.0", "trial": 4, "time_elapsed": 915780, "serialpos": 20, "key_press": -1, "wordID": 518, "type": "PRES_VIS", "trial_index": 165}, "uniqueid": "MTK1927:3U5NZHP4LS9IFLVSORLFHOKU0JTHPF", "dateTime": 1516558636417}, {"current_trial": 166, "trialdata": {"rt": -1, "trial_type": "single-stim", "word": "jello", "stimulus": "<p id=\"stim\">JELLO</p>", "conditions": [24, 800, "v", 12000], "internal_node_id": "0.0-121.0", "trial": 4, "time_elapsed": 917586, "serialpos": 21, "key_press": -1, "wordID": 753, "type": "PRES_VIS", "trial_index": 166}, "uniqueid": "MTK1927:3U5NZHP4LS9IFLVSORLFHOKU0JTHPF", "dateTime": 1516558638224}, {"current_trial": 167, "trialdata": {"rt": -1, "trial_type": "single-stim", "word": "item", "stimulus": "<p id=\"stim\">ITEM</p>", "conditions": [24, 800, "v", 12000], "internal_node_id": "0.0-122.0", "trial": 4, "time_elapsed": 919228, "serialpos": 22, "key_press": -1, "wordID": 745, "type": "PRES_VIS", "trial_index": 167}, "uniqueid": "MTK1927:3U5NZHP4LS9IFLVSORLFHOKU0JTHPF", "dateTime": 1516558639865}, {"current_trial": 168, "trialdata": {"rt": -1, "trial_type": "single-stim", "word": "lover", "stimulus": "<p id=\"stim\">LOVER</p>", "conditions": [24, 800, "v", 12000], "internal_node_id": "0.0-123.0", "trial": 4, "time_elapsed": 921062, "serialpos": 23, "key_press": -1, "wordID": 845, "type": "PRES_VIS", "trial_index": 168}, "uniqueid": "MTK1927:3U5NZHP4LS9IFLVSORLFHOKU0JTHPF", "dateTime": 1516558641699}, {"current_trial": 169, "trialdata": {"rt": -1, "trial_type": "single-stim", "stimulus": "", "internal_node_id": "0.0-124.0-0.0", "time_elapsed": 923362, "key_press": -1, "type": "PRE_RECALL_DELAY", "trial_index": 169}, "uniqueid": "MTK1927:3U5NZHP4LS9IFLVSORLFHOKU0JTHPF", "dateTime": 1516558643999}, {"current_trial": 170, "trialdata": {"rt": -1000, "trial_type": "single-audio", "stimulus": "/static/audio/400Hz.wav", "internal_node_id": "0.0-125.0", "time_elapsed": 923867, "key_press": -1, "type": "PRE_RECALL_ALERT", "trial_index": 170}, "uniqueid": "MTK1927:3U5NZHP4LS9IFLVSORLFHOKU0JTHPF", "dateTime": 1516558644505}, {"current_trial": 171, "trialdata": {"rt": [4979, 6339, 7623, 11119, 13168, 20101, 22650, 24904, 27802, 36221, 41475, 44387, 57207], "recwords": ["lover", "daughter", "egypt", "preacher", "tombstone", "tortoise", "ozone", "cyclone", "truck", "pocket", "scissors", "swimmer", "woman"], "key_times": [3996, 4159, 4374, 4589, 4658, 4979, 5388, 5519, 5638, 5763, 5896, 5984, 6164, 6233, 6339, 6856, 7109, 7281, 7356, 7512, 7623, 10074, 10334, 10431, 10579, 10694, 10856, 10922, 11008, 11119, 11838, 11899, 11990, 12234, 12475, 12695, 12836, 12923, 12993, 13168, 18716, 18785, 18942, 19338, 19603, 19704, 19788, 19898, 20101, 21830, 22122, 22294, 22400, 22530, 22650, 23982, 24088, 24228, 24349, 24562, 24673, 24789, 24904, 26901, 27126, 27251, 27376, 27518, 27802, 33102, 33236, 33532, 33613, 33735, 33965, 34368, 34543, 34692, 34862, 35042, 35639, 35763, 35842, 35961, 36137, 36221, 40204, 40399, 40529, 40787, 40978, 41067, 41159, 41383, 41475, 43421, 43645, 43742, 43853, 44078, 44156, 44280, 44387, 56472, 56535, 56618, 56747, 56859, 57207], "trial_type": "free-recall", "conditions": [24, 800, "v", 12000], "internal_node_id": "0.0-126.0-0.0", "key_presses": [76, 79, 86, 69, 82, 13, 68, 65, 85, 71, 72, 84, 69, 82, 13, 69, 71, 89, 80, 84, 13, 80, 82, 69, 65, 67, 72, 69, 82, 13, 84, 79, 77, 66, 83, 84, 79, 78, 69, 13, 84, 79, 82, 84, 79, 73, 83, 69, 13, 79, 90, 79, 78, 69, 13, 67, 89, 67, 76, 79, 78, 69, 13, 84, 82, 85, 67, 75, 13, 80, 73, 67, 75, 69, 84, 8, 8, 8, 8, 8, 79, 67, 75, 69, 84, 13, 83, 67, 73, 83, 83, 79, 82, 83, 13, 83, 87, 73, 77, 77, 69, 82, 13, 87, 79, 77, 65, 78, 13], "trial": 4, "time_elapsed": 983891, "type": "FREE_RECALL", "trial_index": 171}, "uniqueid": "MTK1927:3U5NZHP4LS9IFLVSORLFHOKU0JTHPF", "dateTime": 1516558704573}, {"current_trial": 172, "trialdata": {"rt": 16518, "trial_type": "text", "internal_node_id": "0.0-127.0", "time_elapsed": 1002459, "key_press": 13, "type": "INSTRUCTIONS", "trial_index": 172}, "uniqueid": "MTK1927:3U5NZHP4LS9IFLVSORLFHOKU0JTHPF", "dateTime": 1516558723096}, {"current_trial": 173, "trialdata": {"rt": [2078, 4439, 9812, 12343, 13942, 16818, 20696, 23355], "trial_type": "math-distractor", "key_times": [1767, 1927, 2078, 4083, 4181, 4439, 9472, 9578, 9812, 11899, 12043, 12343, 13566, 13942, 16474, 16656, 16818, 20340, 20517, 20696, 23005, 23125, 23355], "responses": ["11", "15", "24", "10", "7", "14", "15", "16"], "num2": [2, 8, 7, 5, 3, 3, 8, 6, 1], "num3": [3, 2, 9, 1, 1, 5, 6, 3, 8], "conditions": [12, 1600, "v", 24000], "internal_node_id": "0.0-128.0", "key_presses": [97, 97, 13, 97, 101, 13, 98, 100, 13, 97, 96, 13, 103, 13, 97, 100, 13, 97, 101, 13, 97, 102, 13], "trial": 5, "time_elapsed": 1028482, "type": "DISTRACTOR", "trial_index": 173, "num1": [6, 5, 8, 4, 3, 6, 1, 7, 9]}, "uniqueid": "MTK1927:3U5NZHP4LS9IFLVSORLFHOKU0JTHPF", "dateTime": 1516558749118}, {"current_trial": 174, "trialdata": {"rt": -1, "trial_type": "single-stim", "stimulus": "<p id=\"stim\">10</p>", "internal_node_id": "0.0-129.0-0.0", "time_elapsed": 1031485, "key_press": -1, "trial_index": 174}, "uniqueid": "MTK1927:3U5NZHP4LS9IFLVSORLFHOKU0JTHPF", "dateTime": 1516558752121}, {"current_trial": 175, "trialdata": {"rt": -1, "trial_type": "single-stim", "stimulus": "<p id=\"stim\">9</p>", "internal_node_id": "0.0-129.0-1.0", "time_elapsed": 1032487, "key_press": -1, "trial_index": 175}, "uniqueid": "MTK1927:3U5NZHP4LS9IFLVSORLFHOKU0JTHPF", "dateTime": 1516558753123}, {"current_trial": 176, "trialdata": {"rt": -1, "trial_type": "single-stim", "stimulus": "<p id=\"stim\">8</p>", "internal_node_id": "0.0-129.0-2.0", "time_elapsed": 1033489, "key_press": -1, "trial_index": 176}, "uniqueid": "MTK1927:3U5NZHP4LS9IFLVSORLFHOKU0JTHPF", "dateTime": 1516558754125}, {"current_trial": 177, "trialdata": {"rt": -1, "trial_type": "single-stim", "stimulus": "<p id=\"stim\">7</p>", "internal_node_id": "0.0-129.0-3.0", "time_elapsed": 1034491, "key_press": -1, "trial_index": 177}, "uniqueid": "MTK1927:3U5NZHP4LS9IFLVSORLFHOKU0JTHPF", "dateTime": 1516558755128}, {"current_trial": 178, "trialdata": {"rt": -1, "trial_type": "single-stim", "stimulus": "<p id=\"stim\">6</p>", "internal_node_id": "0.0-129.0-4.0", "time_elapsed": 1035493, "key_press": -1, "trial_index": 178}, "uniqueid": "MTK1927:3U5NZHP4LS9IFLVSORLFHOKU0JTHPF", "dateTime": 1516558756129}, {"current_trial": 179, "trialdata": {"rt": -1, "trial_type": "single-stim", "stimulus": "<p id=\"stim\">5</p>", "internal_node_id": "0.0-129.0-5.0", "time_elapsed": 1036495, "key_press": -1, "trial_index": 179}, "uniqueid": "MTK1927:3U5NZHP4LS9IFLVSORLFHOKU0JTHPF", "dateTime": 1516558757131}, {"current_trial": 180, "trialdata": {"rt": -1, "trial_type": "single-stim", "stimulus": "<p id=\"stim\">4</p>", "internal_node_id": "0.0-129.0-6.0", "time_elapsed": 1037497, "key_press": -1, "trial_index": 180}, "uniqueid": "MTK1927:3U5NZHP4LS9IFLVSORLFHOKU0JTHPF", "dateTime": 1516558758133}, {"current_trial": 181, "trialdata": {"rt": -1, "trial_type": "single-stim", "stimulus": "<p id=\"stim\">3</p>", "internal_node_id": "0.0-129.0-7.0", "time_elapsed": 1038499, "key_press": -1, "trial_index": 181}, "uniqueid": "MTK1927:3U5NZHP4LS9IFLVSORLFHOKU0JTHPF", "dateTime": 1516558759135}, {"current_trial": 182, "trialdata": {"rt": -1, "trial_type": "single-stim", "stimulus": "<p id=\"stim\">2</p>", "internal_node_id": "0.0-129.0-8.0", "time_elapsed": 1039501, "key_press": -1, "trial_index": 182}, "uniqueid": "MTK1927:3U5NZHP4LS9IFLVSORLFHOKU0JTHPF", "dateTime": 1516558760137}, {"current_trial": 183, "trialdata": {"rt": -1, "trial_type": "single-stim", "stimulus": "<p id=\"stim\">1</p>", "internal_node_id": "0.0-129.0-9.0", "time_elapsed": 1040503, "key_press": -1, "trial_index": 183}, "uniqueid": "MTK1927:3U5NZHP4LS9IFLVSORLFHOKU0JTHPF", "dateTime": 1516558761139}, {"current_trial": 184, "trialdata": {"rt": -1, "trial_type": "single-stim", "stimulus": "<p id=\"stim\">+</p>", "internal_node_id": "0.0-130.0-0.0", "time_elapsed": 1042005, "key_press": -1, "type": "FIXATION", "trial_index": 184}, "uniqueid": "MTK1927:3U5NZHP4LS9IFLVSORLFHOKU0JTHPF", "dateTime": 1516558762641}, {"current_trial": 185, "trialdata": {"rt": -1, "trial_type": "single-stim", "word": "cod", "stimulus": "<p id=\"stim\">COD</p>", "conditions": [12, 1600, "v", 24000], "internal_node_id": "0.0-131.0", "trial": 5, "time_elapsed": 1043607, "serialpos": 0, "key_press": -1, "wordID": 339, "type": "PRES_VIS", "trial_index": 185}, "uniqueid": "MTK1927:3U5NZHP4LS9IFLVSORLFHOKU0JTHPF", "dateTime": 1516558764243}, {"current_trial": 186, "trialdata": {"rt": -1, "trial_type": "single-stim", "word": "crab", "stimulus": "<p id=\"stim\">CRAB</p>", "conditions": [12, 1600, "v", 24000], "internal_node_id": "0.0-132.0", "trial": 5, "time_elapsed": 1046339, "serialpos": 1, "key_press": -1, "wordID": 396, "type": "PRES_VIS", "trial_index": 186}, "uniqueid": "MTK1927:3U5NZHP4LS9IFLVSORLFHOKU0JTHPF", "dateTime": 1516558766975}, {"current_trial": 187, "trialdata": {"rt": -1, "trial_type": "single-stim", "word": "sketch", "stimulus": "<p id=\"stim\">SKETCH</p>", "conditions": [12, 1600, "v", 24000], "internal_node_id": "0.0-133.0", "trial": 5, "time_elapsed": 1049081, "serialpos": 2, "key_press": -1, "wordID": 1314, "type": "PRES_VIS", "trial_index": 187}, "uniqueid": "MTK1927:3U5NZHP4LS9IFLVSORLFHOKU0JTHPF", "dateTime": 1516558769718}, {"current_trial": 188, "trialdata": {"rt": -1, "trial_type": "single-stim", "word": "flask", "stimulus": "<p id=\"stim\">FLASK</p>", "conditions": [12, 1600, "v", 24000], "internal_node_id": "0.0-134.0", "trial": 5, "time_elapsed": 1051598, "serialpos": 3, "key_press": -1, "wordID": 575, "type": "PRES_VIS", "trial_index": 188}, "uniqueid": "MTK1927:3U5NZHP4LS9IFLVSORLFHOKU0JTHPF", "dateTime": 1516558772235}, {"current_trial": 189, "trialdata": {"rt": -1, "trial_type": "single-stim", "word": "napkin", "stimulus": "<p id=\"stim\">NAPKIN</p>", "conditions": [12, 1600, "v", 24000], "internal_node_id": "0.0-135.0", "trial": 5, "time_elapsed": 1054297, "serialpos": 4, "key_press": -1, "wordID": 936, "type": "PRES_VIS", "trial_index": 189}, "uniqueid": "MTK1927:3U5NZHP4LS9IFLVSORLFHOKU0JTHPF", "dateTime": 1516558774934}, {"current_trial": 190, "trialdata": {"rt": -1, "trial_type": "single-stim", "word": "stomach", "stimulus": "<p id=\"stim\">STOMACH</p>", "conditions": [12, 1600, "v", 24000], "internal_node_id": "0.0-136.0", "trial": 5, "time_elapsed": 1057040, "serialpos": 5, "key_press": -1, "wordID": 1383, "type": "PRES_VIS", "trial_index": 190}, "uniqueid": "MTK1927:3U5NZHP4LS9IFLVSORLFHOKU0JTHPF", "dateTime": 1516558777678}, {"current_trial": 191, "trialdata": {"rt": -1, "trial_type": "single-stim", "word": "receipt", "stimulus": "<p id=\"stim\">RECEIPT</p>", "conditions": [12, 1600, "v", 24000], "internal_node_id": "0.0-137.0", "trial": 5, "time_elapsed": 1059803, "serialpos": 6, "key_press": -1, "wordID": 1172, "type": "PRES_VIS", "trial_index": 191}, "uniqueid": "MTK1927:3U5NZHP4LS9IFLVSORLFHOKU0JTHPF", "dateTime": 1516558780441}, {"current_trial": 192, "trialdata": {"rt": -1, "trial_type": "single-stim", "word": "clam", "stimulus": "<p id=\"stim\">CLAM</p>", "conditions": [12, 1600, "v", 24000], "internal_node_id": "0.0-138.0", "trial": 5, "time_elapsed": 1062493, "serialpos": 7, "key_press": -1, "wordID": 314, "type": "PRES_VIS", "trial_index": 192}, "uniqueid": "MTK1927:3U5NZHP4LS9IFLVSORLFHOKU0JTHPF", "dateTime": 1516558783131}, {"current_trial": 193, "trialdata": {"rt": -1, "trial_type": "single-stim", "word": "dancer", "stimulus": "<p id=\"stim\">DANCER</p>", "conditions": [12, 1600, "v", 24000], "internal_node_id": "0.0-139.0", "trial": 5, "time_elapsed": 1065149, "serialpos": 8, "key_press": -1, "wordID": 436, "type": "PRES_VIS", "trial_index": 193}, "uniqueid": "MTK1927:3U5NZHP4LS9IFLVSORLFHOKU0JTHPF", "dateTime": 1516558785787}, {"current_trial": 194, "trialdata": {"rt": -1, "trial_type": "single-stim", "word": "lake", "stimulus": "<p id=\"stim\">LAKE</p>", "conditions": [12, 1600, "v", 24000], "internal_node_id": "0.0-140.0", "trial": 5, "time_elapsed": 1067708, "serialpos": 9, "key_press": -1, "wordID": 795, "type": "PRES_VIS", "trial_index": 194}, "uniqueid": "MTK1927:3U5NZHP4LS9IFLVSORLFHOKU0JTHPF", "dateTime": 1516558788346}, {"current_trial": 195, "trialdata": {"rt": -1, "trial_type": "single-stim", "word": "mars", "stimulus": "<p id=\"stim\">MARS</p>", "conditions": [12, 1600, "v", 24000], "internal_node_id": "0.0-141.0", "trial": 5, "time_elapsed": 1070180, "serialpos": 10, "key_press": -1, "wordID": 872, "type": "PRES_VIS", "trial_index": 195}, "uniqueid": "MTK1927:3U5NZHP4LS9IFLVSORLFHOKU0JTHPF", "dateTime": 1516558790818}, {"current_trial": 196, "trialdata": {"rt": -1, "trial_type": "single-stim", "word": "scallop", "stimulus": "<p id=\"stim\">SCALLOP</p>", "conditions": [12, 1600, "v", 24000], "internal_node_id": "0.0-142.0", "trial": 5, "time_elapsed": 1072602, "serialpos": 11, "key_press": -1, "wordID": 1241, "type": "PRES_VIS", "trial_index": 196}, "uniqueid": "MTK1927:3U5NZHP4LS9IFLVSORLFHOKU0JTHPF", "dateTime": 1516558793240}, {"current_trial": 197, "trialdata": {"rt": -1, "trial_type": "single-stim", "stimulus": "", "internal_node_id": "0.0-143.0-0.0", "time_elapsed": 1074743, "key_press": -1, "type": "PRE_RECALL_DELAY", "trial_index": 197}, "uniqueid": "MTK1927:3U5NZHP4LS9IFLVSORLFHOKU0JTHPF", "dateTime": 1516558795381}, {"current_trial": 198, "trialdata": {"rt": -1000, "trial_type": "single-audio", "stimulus": "/static/audio/400Hz.wav", "internal_node_id": "0.0-144.0", "time_elapsed": 1075248, "key_press": -1, "type": "PRE_RECALL_ALERT", "trial_index": 198}, "uniqueid": "MTK1927:3U5NZHP4LS9IFLVSORLFHOKU0JTHPF", "dateTime": 1516558795886}, {"current_trial": 199, "trialdata": {"rt": [6071, 9616, 13333, 18260, 23704, 30521, 36081, 43212], "recwords": ["scallop", "mars", "stomach", "napkin", "flask", "dancer", "crab", "clam"], "key_times": [3028, 3231, 3418, 3519, 3677, 4192, 4290, 4526, 5884, 6071, 9037, 9134, 9280, 9511, 9616, 11646, 11907, 12485, 12577, 12702, 12886, 13068, 13333, 15223, 15399, 15510, 15677, 16300, 16595, 16796, 16907, 18260, 22561, 22593, 23255, 23360, 23506, 23704, 28952, 29173, 29226, 29311, 29804, 30206, 30521, 34955, 35098, 35294, 35724, 36081, 42678, 42738, 42892, 42975, 43212, 43707, 43827, 44034, 44235, 44661, 44826, 45312], "trial_type": "free-recall", "conditions": [12, 1600, "v", 24000], "internal_node_id": "0.0-145.0-0.0", "key_presses": [83, 67, 65, 76, 76, 79, 80, 100, 8, 13, 77, 65, 82, 83, 13, 83, 84, 79, 77, 65, 67, 72, 13, 78, 65, 80, 76, 8, 75, 73, 78, 13, 70, 76, 65, 83, 75, 13, 68, 65, 78, 67, 69, 82, 13, 67, 82, 65, 66, 13, 67, 76, 65, 77, 13, 82, 69, 67, 69, 73, 80, 84], "trial": 5, "time_elapsed": 1135269, "type": "FREE_RECALL", "trial_index": 199}, "uniqueid": "MTK1927:3U5NZHP4LS9IFLVSORLFHOKU0JTHPF", "dateTime": 1516558855916}, {"current_trial": 200, "trialdata": {"rt": 54997, "trial_type": "text", "internal_node_id": "0.0-146.0", "time_elapsed": 1192279, "key_press": 13, "type": "INSTRUCTIONS", "trial_index": 200}, "uniqueid": "MTK1927:3U5NZHP4LS9IFLVSORLFHOKU0JTHPF", "dateTime": 1516558912917}, {"current_trial": 201, "trialdata": {"rt": [1926, 6869, 8834, 10835, 13128, 14784, 16594, 18340], "trial_type": "math-distractor", "key_times": [1814, 1926, 6300, 6388, 6869, 8485, 8634, 8834, 10539, 10627, 10835, 12807, 12977, 13128, 14455, 14556, 14784, 16326, 16455, 16594, 17991, 18137, 18340], "responses": ["7", "24", "11", "10", "15", "13", "11", "18"], "num2": [2, 9, 1, 4, 3, 4, 6, 7, 9], "num3": [1, 8, 5, 3, 8, 3, 3, 6, 6], "conditions": [12, 800, "v", 24000], "internal_node_id": "0.0-147.0", "key_presses": [103, 13, 98, 100, 13, 97, 97, 13, 97, 96, 13, 97, 101, 13, 97, 99, 13, 97, 97, 13, 97, 104, 13], "trial": 6, "time_elapsed": 1218306, "type": "DISTRACTOR", "trial_index": 201, "num1": [4, 7, 5, 3, 4, 6, 2, 5, 9]}, "uniqueid": "MTK1927:3U5NZHP4LS9IFLVSORLFHOKU0JTHPF", "dateTime": 1516558938942}, {"current_trial": 202, "trialdata": {"rt": -1, "trial_type": "single-stim", "stimulus": "<p id=\"stim\">10</p>", "internal_node_id": "0.0-148.0-0.0", "time_elapsed": 1221309, "key_press": -1, "trial_index": 202}, "uniqueid": "MTK1927:3U5NZHP4LS9IFLVSORLFHOKU0JTHPF", "dateTime": 1516558941945}, {"current_trial": 203, "trialdata": {"rt": -1, "trial_type": "single-stim", "stimulus": "<p id=\"stim\">9</p>", "internal_node_id": "0.0-148.0-1.0", "time_elapsed": 1222311, "key_press": -1, "trial_index": 203}, "uniqueid": "MTK1927:3U5NZHP4LS9IFLVSORLFHOKU0JTHPF", "dateTime": 1516558942947}, {"current_trial": 204, "trialdata": {"rt": -1, "trial_type": "single-stim", "stimulus": "<p id=\"stim\">8</p>", "internal_node_id": "0.0-148.0-2.0", "time_elapsed": 1223313, "key_press": -1, "trial_index": 204}, "uniqueid": "MTK1927:3U5NZHP4LS9IFLVSORLFHOKU0JTHPF", "dateTime": 1516558943949}, {"current_trial": 205, "trialdata": {"rt": -1, "trial_type": "single-stim", "stimulus": "<p id=\"stim\">7</p>", "internal_node_id": "0.0-148.0-3.0", "time_elapsed": 1224315, "key_press": -1, "trial_index": 205}, "uniqueid": "MTK1927:3U5NZHP4LS9IFLVSORLFHOKU0JTHPF", "dateTime": 1516558944951}, {"current_trial": 206, "trialdata": {"rt": -1, "trial_type": "single-stim", "stimulus": "<p id=\"stim\">6</p>", "internal_node_id": "0.0-148.0-4.0", "time_elapsed": 1225317, "key_press": -1, "trial_index": 206}, "uniqueid": "MTK1927:3U5NZHP4LS9IFLVSORLFHOKU0JTHPF", "dateTime": 1516558945953}, {"current_trial": 207, "trialdata": {"rt": -1, "trial_type": "single-stim", "stimulus": "<p id=\"stim\">5</p>", "internal_node_id": "0.0-148.0-5.0", "time_elapsed": 1226319, "key_press": -1, "trial_index": 207}, "uniqueid": "MTK1927:3U5NZHP4LS9IFLVSORLFHOKU0JTHPF", "dateTime": 1516558946955}, {"current_trial": 208, "trialdata": {"rt": -1, "trial_type": "single-stim", "stimulus": "<p id=\"stim\">4</p>", "internal_node_id": "0.0-148.0-6.0", "time_elapsed": 1227321, "key_press": -1, "trial_index": 208}, "uniqueid": "MTK1927:3U5NZHP4LS9IFLVSORLFHOKU0JTHPF", "dateTime": 1516558947957}, {"current_trial": 209, "trialdata": {"rt": -1, "trial_type": "single-stim", "stimulus": "<p id=\"stim\">3</p>", "internal_node_id": "0.0-148.0-7.0", "time_elapsed": 1228323, "key_press": -1, "trial_index": 209}, "uniqueid": "MTK1927:3U5NZHP4LS9IFLVSORLFHOKU0JTHPF", "dateTime": 1516558948960}, {"current_trial": 210, "trialdata": {"rt": -1, "trial_type": "single-stim", "stimulus": "<p id=\"stim\">2</p>", "internal_node_id": "0.0-148.0-8.0", "time_elapsed": 1229329, "key_press": -1, "trial_index": 210}, "uniqueid": "MTK1927:3U5NZHP4LS9IFLVSORLFHOKU0JTHPF", "dateTime": 1516558949966}, {"current_trial": 211, "trialdata": {"rt": -1, "trial_type": "single-stim", "stimulus": "<p id=\"stim\">1</p>", "internal_node_id": "0.0-148.0-9.0", "time_elapsed": 1230336, "key_press": -1, "trial_index": 211}, "uniqueid": "MTK1927:3U5NZHP4LS9IFLVSORLFHOKU0JTHPF", "dateTime": 1516558950974}, {"current_trial": 212, "trialdata": {"rt": -1, "trial_type": "single-stim", "stimulus": "<p id=\"stim\">+</p>", "internal_node_id": "0.0-149.0-0.0", "time_elapsed": 1231841, "key_press": -1, "type": "FIXATION", "trial_index": 212}, "uniqueid": "MTK1927:3U5NZHP4LS9IFLVSORLFHOKU0JTHPF", "dateTime": 1516558952479}, {"current_trial": 213, "trialdata": {"rt": -1, "trial_type": "single-stim", "word": "temple", "stimulus": "<p id=\"stim\">TEMPLE</p>", "conditions": [12, 800, "v", 24000], "internal_node_id": "0.0-150.0", "trial": 6, "time_elapsed": 1232650, "serialpos": 0, "key_press": -1, "wordID": 1447, "type": "PRES_VIS", "trial_index": 213}, "uniqueid": "MTK1927:3U5NZHP4LS9IFLVSORLFHOKU0JTHPF", "dateTime": 1516558953287}, {"current_trial": 214, "trialdata": {"rt": -1, "trial_type": "single-stim", "word": "valley", "stimulus": "<p id=\"stim\">VALLEY</p>", "conditions": [12, 800, "v", 24000], "internal_node_id": "0.0-151.0", "trial": 6, "time_elapsed": 1234554, "serialpos": 1, "key_press": -1, "wordID": 1544, "type": "PRES_VIS", "trial_index": 214}, "uniqueid": "MTK1927:3U5NZHP4LS9IFLVSORLFHOKU0JTHPF", "dateTime": 1516558955191}, {"current_trial": 215, "trialdata": {"rt": -1, "trial_type": "single-stim", "word": "blade", "stimulus": "<p id=\"stim\">BLADE</p>", "conditions": [12, 800, "v", 24000], "internal_node_id": "0.0-152.0", "trial": 6, "time_elapsed": 1236318, "serialpos": 2, "key_press": -1, "wordID": 133, "type": "PRES_VIS", "trial_index": 215}, "uniqueid": "MTK1927:3U5NZHP4LS9IFLVSORLFHOKU0JTHPF", "dateTime": 1516558956955}, {"current_trial": 216, "trialdata": {"rt": -1, "trial_type": "single-stim", "word": "diner", "stimulus": "<p id=\"stim\">DINER</p>", "conditions": [12, 800, "v", 24000], "internal_node_id": "0.0-153.0", "trial": 6, "time_elapsed": 1238180, "serialpos": 3, "key_press": -1, "wordID": 466, "type": "PRES_VIS", "trial_index": 216}, "uniqueid": "MTK1927:3U5NZHP4LS9IFLVSORLFHOKU0JTHPF", "dateTime": 1516558958818}, {"current_trial": 217, "trialdata": {"rt": -1, "trial_type": "single-stim", "word": "kidney", "stimulus": "<p id=\"stim\">KIDNEY</p>", "conditions": [12, 800, "v", 24000], "internal_node_id": "0.0-154.0", "trial": 6, "time_elapsed": 1239838, "serialpos": 4, "key_press": -1, "wordID": 775, "type": "PRES_VIS", "trial_index": 217}, "uniqueid": "MTK1927:3U5NZHP4LS9IFLVSORLFHOKU0JTHPF", "dateTime": 1516558960476}, {"current_trial": 218, "trialdata": {"rt": -1, "trial_type": "single-stim", "word": "liver", "stimulus": "<p id=\"stim\">LIVER</p>", "conditions": [12, 800, "v", 24000], "internal_node_id": "0.0-155.0", "trial": 6, "time_elapsed": 1241540, "serialpos": 5, "key_press": -1, "wordID": 832, "type": "PRES_VIS", "trial_index": 218}, "uniqueid": "MTK1927:3U5NZHP4LS9IFLVSORLFHOKU0JTHPF", "dateTime": 1516558962177}, {"current_trial": 219, "trialdata": {"rt": -1, "trial_type": "single-stim", "word": "knife", "stimulus": "<p id=\"stim\">KNIFE</p>", "conditions": [12, 800, "v", 24000], "internal_node_id": "0.0-156.0", "trial": 6, "time_elapsed": 1243280, "serialpos": 6, "key_press": -1, "wordID": 784, "type": "PRES_VIS", "trial_index": 219}, "uniqueid": "MTK1927:3U5NZHP4LS9IFLVSORLFHOKU0JTHPF", "dateTime": 1516558963917}, {"current_trial": 220, "trialdata": {"rt": -1, "trial_type": "single-stim", "word": "concert", "stimulus": "<p id=\"stim\">CONCERT</p>", "conditions": [12, 800, "v", 24000], "internal_node_id": "0.0-157.0", "trial": 6, "time_elapsed": 1244918, "serialpos": 7, "key_press": -1, "wordID": 359, "type": "PRES_VIS", "trial_index": 220}, "uniqueid": "MTK1927:3U5NZHP4LS9IFLVSORLFHOKU0JTHPF", "dateTime": 1516558965556}, {"current_trial": 221, "trialdata": {"rt": -1, "trial_type": "single-stim", "word": "elbow", "stimulus": "<p id=\"stim\">ELBOW</p>", "conditions": [12, 800, "v", 24000], "internal_node_id": "0.0-158.0", "trial": 6, "time_elapsed": 1246822, "serialpos": 8, "key_press": -1, "wordID": 519, "type": "PRES_VIS", "trial_index": 221}, "uniqueid": "MTK1927:3U5NZHP4LS9IFLVSORLFHOKU0JTHPF", "dateTime": 1516558967464}, {"current_trial": 222, "trialdata": {"rt": -1, "trial_type": "single-stim", "word": "jungle", "stimulus": "<p id=\"stim\">JUNGLE</p>", "conditions": [12, 800, "v", 24000], "internal_node_id": "0.0-159.0", "trial": 6, "time_elapsed": 1248542, "serialpos": 9, "key_press": -1, "wordID": 763, "type": "PRES_VIS", "trial_index": 222}, "uniqueid": "MTK1927:3U5NZHP4LS9IFLVSORLFHOKU0JTHPF", "dateTime": 1516558969180}, {"current_trial": 223, "trialdata": {"rt": -1, "trial_type": "single-stim", "word": "dentist", "stimulus": "<p id=\"stim\">DENTIST</p>", "conditions": [12, 800, "v", 24000], "internal_node_id": "0.0-160.0", "trial": 6, "time_elapsed": 1250319, "serialpos": 10, "key_press": -1, "wordID": 446, "type": "PRES_VIS", "trial_index": 223}, "uniqueid": "MTK1927:3U5NZHP4LS9IFLVSORLFHOKU0JTHPF", "dateTime": 1516558970957}, {"current_trial": 224, "trialdata": {"rt": -1, "trial_type": "single-stim", "word": "finger", "stimulus": "<p id=\"stim\">FINGER</p>", "conditions": [12, 800, "v", 24000], "internal_node_id": "0.0-161.0", "trial": 6, "time_elapsed": 1252250, "serialpos": 11, "key_press": -1, "wordID": 566, "type": "PRES_VIS", "trial_index": 224}, "uniqueid": "MTK1927:3U5NZHP4LS9IFLVSORLFHOKU0JTHPF", "dateTime": 1516558972888}, {"current_trial": 225, "trialdata": {"rt": -1, "trial_type": "single-stim", "stimulus": "", "internal_node_id": "0.0-162.0-0.0", "time_elapsed": 1254455, "key_press": -1, "type": "PRE_RECALL_DELAY", "trial_index": 225}, "uniqueid": "MTK1927:3U5NZHP4LS9IFLVSORLFHOKU0JTHPF", "dateTime": 1516558975093}, {"current_trial": 226, "trialdata": {"rt": -1000, "trial_type": "single-audio", "stimulus": "/static/audio/400Hz.wav", "internal_node_id": "0.0-163.0", "time_elapsed": 1254960, "key_press": -1, "type": "PRE_RECALL_ALERT", "trial_index": 226}, "uniqueid": "MTK1927:3U5NZHP4LS9IFLVSORLFHOKU0JTHPF", "dateTime": 1516558975598}, {"current_trial": 227, "trialdata": {"rt": [8060, 9721, 12172, 15676, 30644, 35239, 39466, 46578, 50768, 55234, 59560], "recwords": ["finger", "dentist", "liver", "elbow", "jungle", "knife", "valley", "diner", "te", "temple", "dentist"], "key_times": [2317, 2410, 2485, 2549, 2715, 7925, 8060, 8876, 9059, 9141, 9254, 9369, 9458, 9642, 9721, 11523, 11629, 11747, 11964, 12051, 12172, 14899, 14978, 15172, 15340, 15499, 15676, 29889, 30071, 30145, 30284, 30380, 30496, 30644, 34666, 34745, 34879, 34998, 35155, 35239, 38676, 38867, 38918, 39071, 39164, 39248, 39466, 44621, 45244, 45314, 46244, 46341, 46578, 50477, 50680, 50768, 50902, 51111, 52659, 53319, 53627, 53835, 53918, 54015, 54149, 54335, 55234, 58702, 58906, 58989, 59104, 59215, 59313, 59468, 59560], "trial_type": "free-recall", "conditions": [12, 800, "v", 24000], "internal_node_id": "0.0-164.0-0.0", "key_presses": [70, 73, 78, 71, 69, 82, 13, 68, 69, 78, 84, 73, 83, 84, 13, 76, 73, 86, 69, 82, 13, 69, 76, 66, 79, 87, 13, 74, 85, 78, 71, 76, 69, 13, 75, 78, 73, 70, 69, 13, 86, 65, 76, 76, 69, 89, 13, 68, 73, 78, 69, 82, 13, 84, 69, 188, 80, 76, 8, 8, 84, 69, 77, 80, 76, 69, 13, 68, 69, 78, 84, 73, 83, 84, 13], "trial": 6, "time_elapsed": 1314981, "type": "FREE_RECALL", "trial_index": 227}, "uniqueid": "MTK1927:3U5NZHP4LS9IFLVSORLFHOKU0JTHPF", "dateTime": 1516559035631}, {"current_trial": 228, "trialdata": {"rt": 144567, "trial_type": "text", "internal_node_id": "0.0-165.0", "time_elapsed": 1461564, "key_press": 13, "type": "INSTRUCTIONS", "trial_index": 228}, "uniqueid": "MTK1927:3U5NZHP4LS9IFLVSORLFHOKU0JTHPF", "dateTime": 1516559182202}, {"current_trial": 229, "trialdata": {"rt": [1760, 4141, 6830, 9667, 11927, 13731, 16467, 18092, 19698, 21837, 23757], "trial_type": "math-distractor", "key_times": [1465, 1543, 1760, 3716, 3922, 4141, 6477, 6667, 6830, 9362, 9450, 9667, 11557, 11746, 11927, 13459, 13731, 16192, 16279, 16467, 17697, 17890, 18092, 19354, 19507, 19698, 21468, 21641, 21837, 23398, 23564, 23757], "responses": ["12", "17", "14", "13", "14", "9", "20", "18", "18", "18", "18"], "num2": [7, 8, 2, 4, 7, 2, 8, 1, 6, 9, 8, 9], "num3": [2, 5, 9, 8, 2, 5, 7, 9, 8, 6, 9, 7], "conditions": [24, 800, "v", 24000], "internal_node_id": "0.0-166.0", "key_presses": [97, 98, 13, 97, 103, 13, 97, 100, 13, 97, 99, 13, 97, 100, 13, 105, 13, 98, 96, 13, 97, 104, 13, 97, 104, 13, 97, 104, 13, 97, 104, 13], "trial": 7, "time_elapsed": 1487589, "type": "DISTRACTOR", "trial_index": 229, "num1": [3, 4, 3, 1, 6, 2, 5, 8, 4, 3, 1, 7]}, "uniqueid": "MTK1927:3U5NZHP4LS9IFLVSORLFHOKU0JTHPF", "dateTime": 1516559208226}, {"current_trial": 230, "trialdata": {"rt": -1, "trial_type": "single-stim", "stimulus": "<p id=\"stim\">10</p>", "internal_node_id": "0.0-167.0-0.0", "time_elapsed": 1490591, "key_press": -1, "trial_index": 230}, "uniqueid": "MTK1927:3U5NZHP4LS9IFLVSORLFHOKU0JTHPF", "dateTime": 1516559211228}, {"current_trial": 231, "trialdata": {"rt": -1, "trial_type": "single-stim", "stimulus": "<p id=\"stim\">9</p>", "internal_node_id": "0.0-167.0-1.0", "time_elapsed": 1491593, "key_press": -1, "trial_index": 231}, "uniqueid": "MTK1927:3U5NZHP4LS9IFLVSORLFHOKU0JTHPF", "dateTime": 1516559212230}, {"current_trial": 232, "trialdata": {"rt": -1, "trial_type": "single-stim", "stimulus": "<p id=\"stim\">8</p>", "internal_node_id": "0.0-167.0-2.0", "time_elapsed": 1492595, "key_press": -1, "trial_index": 232}, "uniqueid": "MTK1927:3U5NZHP4LS9IFLVSORLFHOKU0JTHPF", "dateTime": 1516559213232}, {"current_trial": 233, "trialdata": {"rt": -1, "trial_type": "single-stim", "stimulus": "<p id=\"stim\">7</p>", "internal_node_id": "0.0-167.0-3.0", "time_elapsed": 1493597, "key_press": -1, "trial_index": 233}, "uniqueid": "MTK1927:3U5NZHP4LS9IFLVSORLFHOKU0JTHPF", "dateTime": 1516559214234}, {"current_trial": 234, "trialdata": {"rt": -1, "trial_type": "single-stim", "stimulus": "<p id=\"stim\">6</p>", "internal_node_id": "0.0-167.0-4.0", "time_elapsed": 1494599, "key_press": -1, "trial_index": 234}, "uniqueid": "MTK1927:3U5NZHP4LS9IFLVSORLFHOKU0JTHPF", "dateTime": 1516559215236}, {"current_trial": 235, "trialdata": {"rt": -1, "trial_type": "single-stim", "stimulus": "<p id=\"stim\">5</p>", "internal_node_id": "0.0-167.0-5.0", "time_elapsed": 1495601, "key_press": -1, "trial_index": 235}, "uniqueid": "MTK1927:3U5NZHP4LS9IFLVSORLFHOKU0JTHPF", "dateTime": 1516559216239}, {"current_trial": 236, "trialdata": {"rt": -1, "trial_type": "single-stim", "stimulus": "<p id=\"stim\">4</p>", "internal_node_id": "0.0-167.0-6.0", "time_elapsed": 1496603, "key_press": -1, "trial_index": 236}, "uniqueid": "MTK1927:3U5NZHP4LS9IFLVSORLFHOKU0JTHPF", "dateTime": 1516559217240}, {"current_trial": 237, "trialdata": {"rt": -1, "trial_type": "single-stim", "stimulus": "<p id=\"stim\">3</p>", "internal_node_id": "0.0-167.0-7.0", "time_elapsed": 1497605, "key_press": -1, "trial_index": 237}, "uniqueid": "MTK1927:3U5NZHP4LS9IFLVSORLFHOKU0JTHPF", "dateTime": 1516559218242}, {"current_trial": 238, "trialdata": {"rt": -1, "trial_type": "single-stim", "stimulus": "<p id=\"stim\">2</p>", "internal_node_id": "0.0-167.0-8.0", "time_elapsed": 1498609, "key_press": -1, "trial_index": 238}, "uniqueid": "MTK1927:3U5NZHP4LS9IFLVSORLFHOKU0JTHPF", "dateTime": 1516559219246}, {"current_trial": 239, "trialdata": {"rt": -1, "trial_type": "single-stim", "stimulus": "<p id=\"stim\">1</p>", "internal_node_id": "0.0-167.0-9.0", "time_elapsed": 1499614, "key_press": -1, "trial_index": 239}, "uniqueid": "MTK1927:3U5NZHP4LS9IFLVSORLFHOKU0JTHPF", "dateTime": 1516559220251}, {"current_trial": 240, "trialdata": {"rt": -1, "trial_type": "single-stim", "stimulus": "<p id=\"stim\">+</p>", "internal_node_id": "0.0-168.0-0.0", "time_elapsed": 1501117, "key_press": -1, "type": "FIXATION", "trial_index": 240}, "uniqueid": "MTK1927:3U5NZHP4LS9IFLVSORLFHOKU0JTHPF", "dateTime": 1516559221755}, {"current_trial": 241, "trialdata": {"rt": -1, "trial_type": "single-stim", "word": "motel", "stimulus": "<p id=\"stim\">MOTEL</p>", "conditions": [24, 800, "v", 24000], "internal_node_id": "0.0-169.0", "trial": 7, "time_elapsed": 1501925, "serialpos": 0, "key_press": -1, "wordID": 918, "type": "PRES_VIS", "trial_index": 241}, "uniqueid": "MTK1927:3U5NZHP4LS9IFLVSORLFHOKU0JTHPF", "dateTime": 1516559222561}, {"current_trial": 242, "trialdata": {"rt": -1, "trial_type": "single-stim", "word": "vagrant", "stimulus": "<p id=\"stim\">VAGRANT</p>", "conditions": [24, 800, "v", 24000], "internal_node_id": "0.0-170.0", "trial": 7, "time_elapsed": 1503878, "serialpos": 1, "key_press": -1, "wordID": 1543, "type": "PRES_VIS", "trial_index": 242}, "uniqueid": "MTK1927:3U5NZHP4LS9IFLVSORLFHOKU0JTHPF", "dateTime": 1516559224516}, {"current_trial": 243, "trialdata": {"rt": -1, "trial_type": "single-stim", "word": "compass", "stimulus": "<p id=\"stim\">COMPASS</p>", "conditions": [24, 800, "v", 24000], "internal_node_id": "0.0-171.0", "trial": 7, "time_elapsed": 1505574, "serialpos": 2, "key_press": -1, "wordID": 357, "type": "PRES_VIS", "trial_index": 243}, "uniqueid": "MTK1927:3U5NZHP4LS9IFLVSORLFHOKU0JTHPF", "dateTime": 1516559226212}, {"current_trial": 244, "trialdata": {"rt": -1, "trial_type": "single-stim", "word": "honey", "stimulus": "<p id=\"stim\">HONEY</p>", "conditions": [24, 800, "v", 24000], "internal_node_id": "0.0-172.0", "trial": 7, "time_elapsed": 1507337, "serialpos": 3, "key_press": -1, "wordID": 712, "type": "PRES_VIS", "trial_index": 244}, "uniqueid": "MTK1927:3U5NZHP4LS9IFLVSORLFHOKU0JTHPF", "dateTime": 1516559227974}, {"current_trial": 245, "trialdata": {"rt": -1, "trial_type": "single-stim", "word": "hiker", "stimulus": "<p id=\"stim\">HIKER</p>", "conditions": [24, 800, "v", 24000], "internal_node_id": "0.0-173.0", "trial": 7, "time_elapsed": 1509004, "serialpos": 4, "key_press": -1, "wordID": 707, "type": "PRES_VIS", "trial_index": 245}, "uniqueid": "MTK1927:3U5NZHP4LS9IFLVSORLFHOKU0JTHPF", "dateTime": 1516559229642}, {"current_trial": 246, "trialdata": {"rt": -1, "trial_type": "single-stim", "word": "cattle", "stimulus": "<p id=\"stim\">CATTLE</p>", "conditions": [24, 800, "v", 24000], "internal_node_id": "0.0-174.0", "trial": 7, "time_elapsed": 1510991, "serialpos": 5, "key_press": -1, "wordID": 260, "type": "PRES_VIS", "trial_index": 246}, "uniqueid": "MTK1927:3U5NZHP4LS9IFLVSORLFHOKU0JTHPF", "dateTime": 1516559231629}, {"current_trial": 247, "trialdata": {"rt": -1, "trial_type": "single-stim", "word": "creature", "stimulus": "<p id=\"stim\">CREATURE</p>", "conditions": [24, 800, "v", 24000], "internal_node_id": "0.0-175.0", "trial": 7, "time_elapsed": 1512771, "serialpos": 6, "key_press": -1, "wordID": 402, "type": "PRES_VIS", "trial_index": 247}, "uniqueid": "MTK1927:3U5NZHP4LS9IFLVSORLFHOKU0JTHPF", "dateTime": 1516559233409}, {"current_trial": 248, "trialdata": {"rt": -1, "trial_type": "single-stim", "word": "bacon", "stimulus": "<p id=\"stim\">BACON</p>", "conditions": [24, 800, "v", 24000], "internal_node_id": "0.0-176.0", "trial": 7, "time_elapsed": 1514636, "serialpos": 7, "key_press": -1, "wordID": 66, "type": "PRES_VIS", "trial_index": 248}, "uniqueid": "MTK1927:3U5NZHP4LS9IFLVSORLFHOKU0JTHPF", "dateTime": 1516559235273}, {"current_trial": 249, "trialdata": {"rt": -1, "trial_type": "single-stim", "word": "fox", "stimulus": "<p id=\"stim\">FOX</p>", "conditions": [24, 800, "v", 24000], "internal_node_id": "0.0-177.0", "trial": 7, "time_elapsed": 1516520, "serialpos": 8, "key_press": -1, "wordID": 597, "type": "PRES_VIS", "trial_index": 249}, "uniqueid": "MTK1927:3U5NZHP4LS9IFLVSORLFHOKU0JTHPF", "dateTime": 1516559237158}, {"current_trial": 250, "trialdata": {"rt": -1, "trial_type": "single-stim", "word": "garlic", "stimulus": "<p id=\"stim\">GARLIC</p>", "conditions": [24, 800, "v", 24000], "internal_node_id": "0.0-178.0", "trial": 7, "time_elapsed": 1518338, "serialpos": 9, "key_press": -1, "wordID": 623, "type": "PRES_VIS", "trial_index": 250}, "uniqueid": "MTK1927:3U5NZHP4LS9IFLVSORLFHOKU0JTHPF", "dateTime": 1516559238976}, {"current_trial": 251, "trialdata": {"rt": -1, "trial_type": "single-stim", "word": "cabbage", "stimulus": "<p id=\"stim\">CABBAGE</p>", "conditions": [24, 800, "v", 24000], "internal_node_id": "0.0-179.0", "trial": 7, "time_elapsed": 1520251, "serialpos": 10, "key_press": -1, "wordID": 209, "type": "PRES_VIS", "trial_index": 251}, "uniqueid": "MTK1927:3U5NZHP4LS9IFLVSORLFHOKU0JTHPF", "dateTime": 1516559240889}, {"current_trial": 252, "trialdata": {"rt": -1, "