{"assignmentId": "3VBEN272ML61SHG9W27RRTD480TGSV", "workerId": "MTK1868", "questiondata": {"avail_screen_height": 728, "color_depth": 24, "screen_width": 1366, "pixel_depth": 24, "avail_screen_width": 1366, "screen_height": 768}, "bonus": 0, "hitId": "3HY86PZXPYP1RZNUNMXH659ZNFL1EW", "counterbalance": 419, "useragent": "Mozilla/5.0 (Windows NT 10.0; Win64; x64) AppleWebKit/537.36 (KHTML, like Gecko) Chrome/63.0.3239.132 Safari/537.36", "eventdata": [{"eventtype": "initialized", "interval": 0, "value": null, "timestamp": 1516482631412}, {"eventtype": "window_resize", "interval": 0, "value": [1366, 721], "timestamp": 1516482631412}, {"eventtype": "focus", "interval": 13502, "value": "off", "timestamp": 1516482644914}, {"eventtype": "focus", "interval": 10020, "value": "on", "timestamp": 1516482654934}, {"eventtype": "focus", "interval": 11061, "value": "off", "timestamp": 1516482665995}, {"eventtype": "focus", "interval": 3101, "value": "on", "timestamp": 1516482669096}, {"eventtype": "window_resize", "interval": 28403, "value": [1366, 677], "timestamp": 1516482697499}, {"eventtype": "focus", "interval": 33584, "value": "off", "timestamp": 1516482731083}, {"eventtype": "focus", "interval": 3530, "value": "on", "timestamp": 1516482734613}, {"eventtype": "focus", "interval": 9596, "value": "off", "timestamp": 1516482744209}, {"eventtype": "focus", "interval": 2, "value": "on", "timestamp": 1516482744211}, {"eventtype": "focus", "interval": 5767, "value": "off", "timestamp": 1516482749978}, {"eventtype": "focus", "interval": 1, "value": "on", "timestamp": 1516482749979}, {"eventtype": "window_resize", "interval": 181669, "value": [1366, 721], "timestamp": 1516482931648}, {"eventtype": "window_resize", "interval": 26811, "value": [1366, 677], "timestamp": 1516482958459}, {"eventtype": "focus", "interval": 72538, "value": "off", "timestamp": 1516483030997}, {"eventtype": "focus", "interval": 50501, "value": "on", "timestamp": 1516483081498}], "data": [{"current_trial": 0, "trialdata": {"rt": 2368, "trial_type": "text", "internal_node_id": "0.0-0.0", "time_elapsed": 2374, "key_press": 32, "type": "INSTRUCTIONS", "trial_index": 0}, "uniqueid": "MTK1868:3VBEN272ML61SHG9W27RRTD480TGSV", "dateTime": 1516482639646}, {"current_trial": 1, "trialdata": {"rt": 20460, "trial_type": "text", "internal_node_id": "0.0-1.0", "time_elapsed": 22840, "key_press": 32, "type": "INSTRUCTIONS", "trial_index": 1}, "uniqueid": "MTK1868:3VBEN272ML61SHG9W27RRTD480TGSV", "dateTime": 1516482660110}, {"current_trial": 2, "trialdata": {"rt": [51922], "trial_type": "audio-test", "responses": ["ocean"], "internal_node_id": "0.0-2.0", "time_elapsed": 74779, "type": "AUDIO_TEST", "trial_index": 2}, "uniqueid": "MTK1868:3VBEN272ML61SHG9W27RRTD480TGSV", "dateTime": 1516482712050}, {"current_trial": 3, "trialdata": {"rt": [12056], "trial_type": "audio-test", "responses": ["crystal"], "internal_node_id": "0.0-3.0", "time_elapsed": 86844, "type": "AUDIO_TEST", "trial_index": 3}, "uniqueid": "MTK1868:3VBEN272ML61SHG9W27RRTD480TGSV", "dateTime": 1516482724114}, {"current_trial": 4, "trialdata": {"rt": [17455, 24228, 145694], "trial_type": "audio-test", "responses": ["fight", "bite", "spice"], "internal_node_id": "0.0-4.0", "time_elapsed": 232547, "type": "AUDIO_TEST", "trial_index": 4}, "uniqueid": "MTK1868:3VBEN272ML61SHG9W27RRTD480TGSV", "dateTime": 1516482869818}, {"current_trial": 5, "trialdata": {"rt": 31309, "trial_type": "survey-text", "responses": "{\"Q0\":\"12 pm\",\"Q1\":\"8 am\",\"Q2\":\"7\"}", "internal_node_id": "0.0-5.0", "time_elapsed": 264612, "type": "SLEEP_SURVEY", "trial_index": 5}, "uniqueid": "MTK1868:3VBEN272ML61SHG9W27RRTD480TGSV", "dateTime": 1516482901882}, {"current_trial": 6, "trialdata": {"rt": 68088, "trial_type": "text", "internal_node_id": "0.0-6.0", "time_elapsed": 333703, "key_press": 32, "type": "INSTRUCTIONS", "trial_index": 6}, "uniqueid": "MTK1868:3VBEN272ML61SHG9W27RRTD480TGSV", "dateTime": 1516482970973}, {"current_trial": 7, "trialdata": {"rt": 20076, "trial_type": "text", "internal_node_id": "0.0-7.0", "time_elapsed": 354284, "key_press": 32, "type": "INSTRUCTIONS", "trial_index": 7}, "uniqueid": "MTK1868:3VBEN272ML61SHG9W27RRTD480TGSV", "dateTime": 1516482991555}, {"current_trial": 8, "trialdata": {"rt": 14233, "trial_type": "text", "internal_node_id": "0.0-8.0", "time_elapsed": 369020, "key_press": 32, "type": "INSTRUCTIONS", "trial_index": 8}, "uniqueid": "MTK1868:3VBEN272ML61SHG9W27RRTD480TGSV", "dateTime": 1516483006290}, {"current_trial": 9, "trialdata": {"rt": [5010, 8126, 11445, 14899], "trial_type": "math-distractor", "key_times": [3694, 5010, 7277, 7548, 8126, 10607, 10923, 11445, 12965, 14899, 16809], "responses": ["8", "14", "20", "7"], "num2": [1, 6, 8, 5, 3], "num3": [1, 6, 6, 1, 2], "conditions": [18, 1200, "a", 18000], "internal_node_id": "0.0-9.0", "key_presses": [104, 13, 97, 100, 13, 98, 96, 13, 103, 13, 103], "trial": 0, "time_elapsed": 388029, "type": "DISTRACTOR", "trial_index": 9, "num1": [6, 2, 6, 1, 2]}, "uniqueid": "MTK1868:3VBEN272ML61SHG9W27RRTD480TGSV", "dateTime": 1516483025299}, {"current_trial": 10, "trialdata": {"rt": -1, "trial_type": "single-stim", "stimulus": "<p id=\"stim\">10</p>", "internal_node_id": "0.0-10.0-0.0", "time_elapsed": 391034, "key_press": -1, "trial_index": 10}, "uniqueid": "MTK1868:3VBEN272ML61SHG9W27RRTD480TGSV", "dateTime": 1516483028305}, {"current_trial": 11, "trialdata": {"rt": -1, "trial_type": "single-stim", "stimulus": "<p id=\"stim\">9</p>", "internal_node_id": "0.0-10.0-1.0", "time_elapsed": 392037, "key_press": -1, "trial_index": 11}, "uniqueid": "MTK1868:3VBEN272ML61SHG9W27RRTD480TGSV", "dateTime": 1516483029307}, {"current_trial": 12, "trialdata": {"rt": -1, "trial_type": "single-stim", "stimulus": "<p id=\"stim\">8</p>", "internal_node_id": "0.0-10.0-2.0", "time_elapsed": 393044, "key_press": -1, "trial_index": 12}, "uniqueid": "MTK1868:3VBEN272ML61SHG9W27RRTD480TGSV", "dateTime": 1516483030314}, {"current_trial": 13, "trialdata": {"rt": -1, "trial_type": "single-stim", "stimulus": "<p id=\"stim\">7</p>", "internal_node_id": "0.0-10.0-3.0", "time_elapsed": 394045, "key_press": -1, "trial_index": 13}, "uniqueid": "MTK1868:3VBEN272ML61SHG9W27RRTD480TGSV", "dateTime": 1516483031315}, {"current_trial": 14, "trialdata": {"rt": -1, "trial_type": "single-stim", "stimulus": "<p id=\"stim\">6</p>", "internal_node_id": "0.0-10.0-4.0", "time_elapsed": 395051, "key_press": -1, "trial_index": 14}, "uniqueid": "MTK1868:3VBEN272ML61SHG9W27RRTD480TGSV", "dateTime": 1516483032322}, {"current_trial": 15, "trialdata": {"rt": -1, "trial_type": "single-stim", "stimulus": "<p id=\"stim\">5</p>", "internal_node_id": "0.0-10.0-5.0", "time_elapsed": 396054, "key_press": -1, "trial_index": 15}, "uniqueid": "MTK1868:3VBEN272ML61SHG9W27RRTD480TGSV", "dateTime": 1516483033324}, {"current_trial": 16, "trialdata": {"rt": -1, "trial_type": "single-stim", "stimulus": "<p id=\"stim\">4</p>", "internal_node_id": "0.0-10.0-6.0", "time_elapsed": 397057, "key_press": -1, "trial_index": 16}, "uniqueid": "MTK1868:3VBEN272ML61SHG9W27RRTD480TGSV", "dateTime": 1516483034329}, {"current_trial": 17, "trialdata": {"rt": -1, "trial_type": "single-stim", "stimulus": "<p id=\"stim\">3</p>", "internal_node_id": "0.0-10.0-7.0", "time_elapsed": 398061, "key_press": -1, "trial_index": 17}, "uniqueid": "MTK1868:3VBEN272ML61SHG9W27RRTD480TGSV", "dateTime": 1516483035331}, {"current_trial": 18, "trialdata": {"rt": -1, "trial_type": "single-stim", "stimulus": "<p id=\"stim\">2</p>", "internal_node_id": "0.0-10.0-8.0", "time_elapsed": 399064, "key_press": -1, "trial_index": 18}, "uniqueid": "MTK1868:3VBEN272ML61SHG9W27RRTD480TGSV", "dateTime": 1516483036334}, {"current_trial": 19, "trialdata": {"rt": -1, "trial_type": "single-stim", "stimulus": "<p id=\"stim\">1</p>", "internal_node_id": "0.0-10.0-9.0", "time_elapsed": 400066, "key_press": -1, "trial_index": 19}, "uniqueid": "MTK1868:3VBEN272ML61SHG9W27RRTD480TGSV", "dateTime": 1516483037336}, {"current_trial": 20, "trialdata": {"rt": -1, "trial_type": "single-stim", "stimulus": "<p id=\"stim\">+</p>", "internal_node_id": "0.0-11.0-0.0", "time_elapsed": 401568, "key_press": -1, "type": "FIXATION", "trial_index": 20}, "uniqueid": "MTK1868:3VBEN272ML61SHG9W27RRTD480TGSV", "dateTime": 1516483038838}, {"current_trial": 21, "trialdata": {"rt": -1000, "trial_type": "single-audio", "word": "scissors", "stimulus": "/static/audio/wordpool/SCISSORS.wav", "conditions": [18, 1200, "a", 18000], "internal_node_id": "0.0-12.0", "trial": 0, "time_elapsed": 403731, "serialpos": 0, "key_press": -1, "wordID": 1249, "type": "PRES_AUD", "trial_index": 21}, "uniqueid": "MTK1868:3VBEN272ML61SHG9W27RRTD480TGSV", "dateTime": 1516483041002}, {"current_trial": 22, "trialdata": {"rt": -1000, "trial_type": "single-audio", "word": "critic", "stimulus": "/static/audio/wordpool/CRITIC.wav", "conditions": [18, 1200, "a", 18000], "internal_node_id": "0.0-13.0", "trial": 0, "time_elapsed": 405923, "serialpos": 1, "key_press": -1, "wordID": 409, "type": "PRES_AUD", "trial_index": 22}, "uniqueid": "MTK1868:3VBEN272ML61SHG9W27RRTD480TGSV", "dateTime": 1516483043193}, {"current_trial": 23, "trialdata": {"rt": -1000, "trial_type": "single-audio", "word": "necklace", "stimulus": "/static/audio/wordpool/NECKLACE.wav", "conditions": [18, 1200, "a", 18000], "internal_node_id": "0.0-14.0", "trial": 0, "time_elapsed": 408176, "serialpos": 2, "key_press": -1, "wordID": 939, "type": "PRES_AUD", "trial_index": 23}, "uniqueid": "MTK1868:3VBEN272ML61SHG9W27RRTD480TGSV", "dateTime": 1516483045446}, {"current_trial": 24, "trialdata": {"rt": -1000, "trial_type": "single-audio", "word": "balloon", "stimulus": "/static/audio/wordpool/BALLOON.wav", "conditions": [18, 1200, "a", 18000], "internal_node_id": "0.0-15.0", "trial": 0, "time_elapsed": 410248, "serialpos": 3, "key_press": -1, "wordID": 74, "type": "PRES_AUD", "trial_index": 24}, "uniqueid": "MTK1868:3VBEN272ML61SHG9W27RRTD480TGSV", "dateTime": 1516483047518}, {"current_trial": 25, "trialdata": {"rt": -1000, "trial_type": "single-audio", "word": "nomad", "stimulus": "/static/audio/wordpool/NOMAD.wav", "conditions": [18, 1200, "a", 18000], "internal_node_id": "0.0-16.0", "trial": 0, "time_elapsed": 412370, "serialpos": 4, "key_press": -1, "wordID": 954, "type": "PRES_AUD", "trial_index": 25}, "uniqueid": "MTK1868:3VBEN272ML61SHG9W27RRTD480TGSV", "dateTime": 1516483049640}, {"current_trial": 26, "trialdata": {"rt": -1000, "trial_type": "single-audio", "word": "hero", "stimulus": "/static/audio/wordpool/HERO.wav", "conditions": [18, 1200, "a", 18000], "internal_node_id": "0.0-17.0", "trial": 0, "time_elapsed": 414550, "serialpos": 5, "key_press": -1, "wordID": 705, "type": "PRES_AUD", "trial_index": 26}, "uniqueid": "MTK1868:3VBEN272ML61SHG9W27RRTD480TGSV", "dateTime": 1516483051821}, {"current_trial": 27, "trialdata": {"rt": -1000, "trial_type": "single-audio", "word": "stallion", "stimulus": "/static/audio/wordpool/STALLION.wav", "conditions": [18, 1200, "a", 18000], "internal_node_id": "0.0-18.0", "trial": 0, "time_elapsed": 416756, "serialpos": 6, "key_press": -1, "wordID": 1368, "type": "PRES_AUD", "trial_index": 27}, "uniqueid": "MTK1868:3VBEN272ML61SHG9W27RRTD480TGSV", "dateTime": 1516483054027}, {"current_trial": 28, "trialdata": {"rt": -1000, "trial_type": "single-audio", "word": "record", "stimulus": "/static/audio/wordpool/RECORD.wav", "conditions": [18, 1200, "a", 18000], "internal_node_id": "0.0-19.0", "trial": 0, "time_elapsed": 419101, "serialpos": 7, "key_press": -1, "wordID": 1175, "type": "PRES_AUD", "trial_index": 28}, "uniqueid": "MTK1868:3VBEN272ML61SHG9W27RRTD480TGSV", "dateTime": 1516483056372}, {"current_trial": 29, "trialdata": {"rt": -1000, "trial_type": "single-audio", "word": "breast", "stimulus": "/static/audio/wordpool/BREAST.wav", "conditions": [18, 1200, "a", 18000], "internal_node_id": "0.0-20.0", "trial": 0, "time_elapsed": 421367, "serialpos": 8, "key_press": -1, "wordID": 170, "type": "PRES_AUD", "trial_index": 29}, "uniqueid": "MTK1868:3VBEN272ML61SHG9W27RRTD480TGSV", "dateTime": 1516483058638}, {"current_trial": 30, "trialdata": {"rt": -1000, "trial_type": "single-audio", "word": "lapel", "stimulus": "/static/audio/wordpool/LAPEL.wav", "conditions": [18, 1200, "a", 18000], "internal_node_id": "0.0-21.0", "trial": 0, "time_elapsed": 423431, "serialpos": 9, "key_press": -1, "wordID": 799, "type": "PRES_AUD", "trial_index": 30}, "uniqueid": "MTK1868:3VBEN272ML61SHG9W27RRTD480TGSV", "dateTime": 1516483060701}, {"current_trial": 31, "trialdata": {"rt": -1000, "trial_type": "single-audio", "word": "plaza", "stimulus": "/static/audio/wordpool/PLAZA.wav", "conditions": [18, 1200, "a", 18000], "internal_node_id": "0.0-22.0", "trial": 0, "time_elapsed": 425771, "serialpos": 10, "key_press": -1, "wordID": 1087, "type": "PRES_AUD", "trial_index": 31}, "uniqueid": "MTK1868:3VBEN272ML61SHG9W27RRTD480TGSV", "dateTime": 1516483063042}, {"current_trial": 32, "trialdata": {"rt": -1000, "trial_type": "single-audio", "word": "dresser", "stimulus": "/static/audio/wordpool/DRESSER.wav", "conditions": [18, 1200, "a", 18000], "internal_node_id": "0.0-23.0", "trial": 0, "time_elapsed": 427986, "serialpos": 11, "key_press": -1, "wordID": 495, "type": "PRES_AUD", "trial_index": 32}, "uniqueid": "MTK1868:3VBEN272ML61SHG9W27RRTD480TGSV", "dateTime": 1516483065256}, {"current_trial": 33, "trialdata": {"rt": -1000, "trial_type": "single-audio", "word": "pecan", "stimulus": "/static/audio/wordpool/PECAN.wav", "conditions": [18, 1200, "a", 18000], "internal_node_id": "0.0-24.0", "trial": 0, "time_elapsed": 430358, "serialpos": 12, "key_press": -1, "wordID": 1035, "type": "PRES_AUD", "trial_index": 33}, "uniqueid": "MTK1868:3VBEN272ML61SHG9W27RRTD480TGSV", "dateTime": 1516483067629}, {"current_trial": 34, "trialdata": {"rt": -1000, "trial_type": "single-audio", "word": "sparrow", "stimulus": "/static/audio/wordpool/SPARROW.wav", "conditions": [18, 1200, "a", 18000], "internal_node_id": "0.0-25.0", "trial": 0, "time_elapsed": 432653, "serialpos": 13, "key_press": -1, "wordID": 1346, "type": "PRES_AUD", "trial_index": 34}, "uniqueid": "MTK1868:3VBEN272ML61SHG9W27RRTD480TGSV", "dateTime": 1516483069924}, {"current_trial": 35, "trialdata": {"rt": -1000, "trial_type": "single-audio", "word": "permit", "stimulus": "/static/audio/wordpool/PERMIT.wav", "conditions": [18, 1200, "a", 18000], "internal_node_id": "0.0-26.0", "trial": 0, "time_elapsed": 434669, "serialpos": 14, "key_press": -1, "wordID": 1050, "type": "PRES_AUD", "trial_index": 35}, "uniqueid": "MTK1868:3VBEN272ML61SHG9W27RRTD480TGSV", "dateTime": 1516483071939}, {"current_trial": 36, "trialdata": {"rt": -1000, "trial_type": "single-audio", "word": "blouse", "stimulus": "/static/audio/wordpool/BLOUSE.wav", "conditions": [18, 1200, "a", 18000], "internal_node_id": "0.0-27.0", "trial": 0, "time_elapsed": 436839, "serialpos": 15, "key_press": -1, "wordID": 138, "type": "PRES_AUD", "trial_index": 36}, "uniqueid": "MTK1868:3VBEN272ML61SHG9W27RRTD480TGSV", "dateTime": 1516483074110}, {"current_trial": 37, "trialdata": {"rt": -1000, "trial_type": "single-audio", "word": "lunch", "stimulus": "/static/audio/wordpool/LUNCH.wav", "conditions": [18, 1200, "a", 18000], "internal_node_id": "0.0-28.0", "trial": 0, "time_elapsed": 439005, "serialpos": 16, "key_press": -1, "wordID": 848, "type": "PRES_AUD", "trial_index": 37}, "uniqueid": "MTK1868:3VBEN272ML61SHG9W27RRTD480TGSV", "dateTime": 1516483076275}, {"current_trial": 38, "trialdata": {"rt": -1000, "trial_type": "single-audio", "word": "lover", "stimulus": "/static/audio/wordpool/LOVER.wav", "conditions": [18, 1200, "a", 18000], "internal_node_id": "0.0-29.0", "trial": 0, "time_elapsed": 441297, "serialpos": 17, "key_press": -1, "wordID": 845, "type": "PRES_AUD", "trial_index": 38}, "uniqueid": "MTK1868:3VBEN272ML61SHG9W27RRTD480TGSV", "dateTime": 1516483078567}, {"current_trial": 39, "trialdata": {"rt": -1, "trial_type": "single-stim", "stimulus": "", "internal_node_id": "0.0-30.0-0.0", "time_elapsed": 442621, "key_press": -1, "type": "PRE_RECALL_DELAY", "trial_index": 39}, "uniqueid": "MTK1868:3VBEN272ML61SHG9W27RRTD480TGSV", "dateTime": 1516483079891}, {"current_trial": 40, "trialdata": {"rt": -1000, "trial_type": "single-audio", "stimulus": "/static/audio/400Hz.wav", "internal_node_id": "0.0-31.0", "time_elapsed": 443123, "key_press": -1, "type": "PRE_RECALL_ALERT", "trial_index": 40}, "uniqueid": "MTK1868:3VBEN272ML61SHG9W27RRTD480TGSV", "dateTime": 1516483080394}], "currenttrial": 41, "condition": 1, "mode": "live"}