{"assignmentId": "37C0GNLMHGATTZ8LNZ3GK3EFCSF6D5", "workerId": "MTK1684", "questiondata": {"avail_screen_height": 1040, "color_depth": 24, "screen_width": 1920, "pixel_depth": 24, "avail_screen_width": 1920, "screen_height": 1080}, "bonus": 0, "hitId": "3WA2XVDZEMOWYLORTS9Y110GULPE6K", "counterbalance": 145, "useragent": "Mozilla/5.0 (Windows NT 10.0; Win64; x64) AppleWebKit/537.36 (KHTML, like Gecko) Chrome/63.0.3239.132 Safari/537.36", "eventdata": [{"eventtype": "initialized", "interval": 0, "value": null, "timestamp": 1516128157666}, {"eventtype": "window_resize", "interval": 0, "value": [1920, 989], "timestamp": 1516128157666}, {"eventtype": "focus", "interval": 5247, "value": "off", "timestamp": 1516128162913}, {"eventtype": "focus", "interval": 1, "value": "on", "timestamp": 1516128162914}, {"eventtype": "focus", "interval": 10710, "value": "off", "timestamp": 1516128173624}, {"eventtype": "focus", "interval": 1025, "value": "on", "timestamp": 1516128174649}, {"eventtype": "window_resize", "interval": 74376, "value": [1920, 1080], "timestamp": 1516128249025}, {"eventtype": "focus", "interval": 435290, "value": "off", "timestamp": 1516128684315}, {"eventtype": "focus", "interval": 14938, "value": "on", "timestamp": 1516128699253}, {"eventtype": "focus", "interval": 8680, "value": "off", "timestamp": 1516128707933}, {"eventtype": "window_resize", "interval": 245, "value": [1920, 1079], "timestamp": 1516128708178}, {"eventtype": "focus", "interval": 4746, "value": "on", "timestamp": 1516128712924}, {"eventtype": "window_resize", "interval": 219, "value": [1920, 1080], "timestamp": 1516128713143}, {"eventtype": "focus", "interval": 30252, "value": "off", "timestamp": 1516128743395}, {"eventtype": "focus", "interval": 7654, "value": "on", "timestamp": 1516128751049}, {"eventtype": "focus", "interval": 70561, "value": "off", "timestamp": 1516128821610}], "data": [{"current_trial": 0, "trialdata": {"rt": 234, "trial_type": "text", "internal_node_id": "0.0-0.0", "time_elapsed": 236, "key_press": 32, "type": "INSTRUCTIONS", "trial_index": 0}, "uniqueid": "MTK1684:37C0GNLMHGATTZ8LNZ3GK3EFCSF6D5", "dateTime": 1516128160973}, {"current_trial": 1, "trialdata": {"rt": 362, "trial_type": "text", "internal_node_id": "0.0-1.0", "time_elapsed": 601, "key_press": 32, "type": "INSTRUCTIONS", "trial_index": 1}, "uniqueid": "MTK1684:37C0GNLMHGATTZ8LNZ3GK3EFCSF6D5", "dateTime": 1516128161337}, {"current_trial": 2, "trialdata": {"rt": [367, 3646], "trial_type": "audio-test", "responses": ["", "ocean"], "internal_node_id": "0.0-2.0", "time_elapsed": 4257, "type": "AUDIO_TEST", "trial_index": 2}, "uniqueid": "MTK1684:37C0GNLMHGATTZ8LNZ3GK3EFCSF6D5", "dateTime": 1516128164993}, {"current_trial": 3, "trialdata": {"rt": [5315], "trial_type": "audio-test", "responses": ["crystal"], "internal_node_id": "0.0-3.0", "time_elapsed": 9577, "type": "AUDIO_TEST", "trial_index": 3}, "uniqueid": "MTK1684:37C0GNLMHGATTZ8LNZ3GK3EFCSF6D5", "dateTime": 1516128170313}, {"current_trial": 4, "trialdata": {"rt": [1867], "trial_type": "audio-test", "responses": ["spice"], "internal_node_id": "0.0-4.0", "time_elapsed": 11449, "type": "AUDIO_TEST", "trial_index": 4}, "uniqueid": "MTK1684:37C0GNLMHGATTZ8LNZ3GK3EFCSF6D5", "dateTime": 1516128172185}, {"current_trial": 5, "trialdata": {"rt": 6623, "trial_type": "survey-text", "responses": "{\"Q0\":\"11:30PM\",\"Q1\":\"6:30AM\",\"Q2\":\"5\"}", "internal_node_id": "0.0-5.0", "time_elapsed": 18825, "type": "SLEEP_SURVEY", "trial_index": 5}, "uniqueid": "MTK1684:37C0GNLMHGATTZ8LNZ3GK3EFCSF6D5", "dateTime": 1516128179561}, {"current_trial": 6, "trialdata": {"rt": 822, "trial_type": "text", "internal_node_id": "0.0-6.0", "time_elapsed": 20648, "key_press": 13, "type": "INSTRUCTIONS", "trial_index": 6}, "uniqueid": "MTK1684:37C0GNLMHGATTZ8LNZ3GK3EFCSF6D5", "dateTime": 1516128181384}, {"current_trial": 7, "trialdata": {"rt": 996, "trial_type": "text", "internal_node_id": "0.0-7.0", "time_elapsed": 22144, "key_press": 13, "type": "INSTRUCTIONS", "trial_index": 7}, "uniqueid": "MTK1684:37C0GNLMHGATTZ8LNZ3GK3EFCSF6D5", "dateTime": 1516128182880}, {"current_trial": 8, "trialdata": {"rt": 644, "trial_type": "text", "internal_node_id": "0.0-8.0", "time_elapsed": 23288, "key_press": 13, "type": "INSTRUCTIONS", "trial_index": 8}, "uniqueid": "MTK1684:37C0GNLMHGATTZ8LNZ3GK3EFCSF6D5", "dateTime": 1516128184025}, {"current_trial": 9, "trialdata": {"rt": [1484, 5924, 8380, 9901, 11300, 12540, 16308, 17804], "trial_type": "math-distractor", "key_times": [1101, 1484, 4621, 4692, 5924, 7389, 7564, 8380, 9548, 9652, 9901, 10924, 10996, 11300, 12356, 12396, 12540, 16068, 16116, 16308, 17316, 17348, 17804], "responses": ["7", "21", "16", "16", "14", "12", "13", "13"], "num2": [3, 8, 6, 7, 3, 2, 1, 7, 7], "num3": [3, 5, 5, 3, 7, 9, 5, 3, 1], "conditions": [18, 1200, "a", 18000], "internal_node_id": "0.0-9.0", "key_presses": [55, 13, 50, 49, 13, 49, 54, 13, 49, 54, 13, 49, 52, 13, 49, 50, 13, 49, 51, 13, 49, 51, 13], "trial": 0, "time_elapsed": 42293, "type": "DISTRACTOR", "trial_index": 9, "num1": [1, 8, 5, 6, 4, 1, 7, 3, 1]}, "uniqueid": "MTK1684:37C0GNLMHGATTZ8LNZ3GK3EFCSF6D5", "dateTime": 1516128203029}, {"current_trial": 10, "trialdata": {"rt": -1, "trial_type": "single-stim", "stimulus": "<p id=\"stim\">10</p>", "internal_node_id": "0.0-10.0-0.0", "time_elapsed": 45294, "key_press": -1, "trial_index": 10}, "uniqueid": "MTK1684:37C0GNLMHGATTZ8LNZ3GK3EFCSF6D5", "dateTime": 1516128206031}, {"current_trial": 11, "trialdata": {"rt": -1, "trial_type": "single-stim", "stimulus": "<p id=\"stim\">9</p>", "internal_node_id": "0.0-10.0-1.0", "time_elapsed": 46296, "key_press": -1, "trial_index": 11}, "uniqueid": "MTK1684:37C0GNLMHGATTZ8LNZ3GK3EFCSF6D5", "dateTime": 1516128207032}, {"current_trial": 12, "trialdata": {"rt": -1, "trial_type": "single-stim", "stimulus": "<p id=\"stim\">8</p>", "internal_node_id": "0.0-10.0-2.0", "time_elapsed": 47296, "key_press": -1, "trial_index": 12}, "uniqueid": "MTK1684:37C0GNLMHGATTZ8LNZ3GK3EFCSF6D5", "dateTime": 1516128208032}, {"current_trial": 13, "trialdata": {"rt": -1, "trial_type": "single-stim", "stimulus": "<p id=\"stim\">7</p>", "internal_node_id": "0.0-10.0-3.0", "time_elapsed": 48298, "key_press": -1, "trial_index": 13}, "uniqueid": "MTK1684:37C0GNLMHGATTZ8LNZ3GK3EFCSF6D5", "dateTime": 1516128209034}, {"current_trial": 14, "trialdata": {"rt": -1, "trial_type": "single-stim", "stimulus": "<p id=\"stim\">6</p>", "internal_node_id": "0.0-10.0-4.0", "time_elapsed": 49298, "key_press": -1, "trial_index": 14}, "uniqueid": "MTK1684:37C0GNLMHGATTZ8LNZ3GK3EFCSF6D5", "dateTime": 1516128210034}, {"current_trial": 15, "trialdata": {"rt": -1, "trial_type": "single-stim", "stimulus": "<p id=\"stim\">5</p>", "internal_node_id": "0.0-10.0-5.0", "time_elapsed": 50300, "key_press": -1, "trial_index": 15}, "uniqueid": "MTK1684:37C0GNLMHGATTZ8LNZ3GK3EFCSF6D5", "dateTime": 1516128211036}, {"current_trial": 16, "trialdata": {"rt": -1, "trial_type": "single-stim", "stimulus": "<p id=\"stim\">4</p>", "internal_node_id": "0.0-10.0-6.0", "time_elapsed": 51301, "key_press": -1, "trial_index": 16}, "uniqueid": "MTK1684:37C0GNLMHGATTZ8LNZ3GK3EFCSF6D5", "dateTime": 1516128212037}, {"current_trial": 17, "trialdata": {"rt": -1, "trial_type": "single-stim", "stimulus": "<p id=\"stim\">3</p>", "internal_node_id": "0.0-10.0-7.0", "time_elapsed": 52302, "key_press": -1, "trial_index": 17}, "uniqueid": "MTK1684:37C0GNLMHGATTZ8LNZ3GK3EFCSF6D5", "dateTime": 1516128213038}, {"current_trial": 18, "trialdata": {"rt": -1, "trial_type": "single-stim", "stimulus": "<p id=\"stim\">2</p>", "internal_node_id": "0.0-10.0-8.0", "time_elapsed": 53303, "key_press": -1, "trial_index": 18}, "uniqueid": "MTK1684:37C0GNLMHGATTZ8LNZ3GK3EFCSF6D5", "dateTime": 1516128214039}, {"current_trial": 19, "trialdata": {"rt": -1, "trial_type": "single-stim", "stimulus": "<p id=\"stim\">1</p>", "internal_node_id": "0.0-10.0-9.0", "time_elapsed": 54304, "key_press": -1, "trial_index": 19}, "uniqueid": "MTK1684:37C0GNLMHGATTZ8LNZ3GK3EFCSF6D5", "dateTime": 1516128215040}, {"current_trial": 20, "trialdata": {"rt": -1, "trial_type": "single-stim", "stimulus": "<p id=\"stim\">+</p>", "internal_node_id": "0.0-11.0-0.0", "time_elapsed": 55805, "key_press": -1, "type": "FIXATION", "trial_index": 20}, "uniqueid": "MTK1684:37C0GNLMHGATTZ8LNZ3GK3EFCSF6D5", "dateTime": 1516128216541}, {"current_trial": 21, "trialdata": {"rt": -1000, "trial_type": "single-audio", "word": "package", "stimulus": "/static/audio/wordpool/PACKAGE.wav", "conditions": [18, 1200, "a", 18000], "internal_node_id": "0.0-12.0", "trial": 0, "time_elapsed": 57858, "serialpos": 0, "key_press": -1, "wordID": 996, "type": "PRES_AUD", "trial_index": 21}, "uniqueid": "MTK1684:37C0GNLMHGATTZ8LNZ3GK3EFCSF6D5", "dateTime": 1516128218594}, {"current_trial": 22, "trialdata": {"rt": -1000, "trial_type": "single-audio", "word": "outdoors", "stimulus": "/static/audio/wordpool/OUTDOORS.wav", "conditions": [18, 1200, "a", 18000], "internal_node_id": "0.0-13.0", "trial": 0, "time_elapsed": 60153, "serialpos": 1, "key_press": -1, "wordID": 986, "type": "PRES_AUD", "trial_index": 22}, "uniqueid": "MTK1684:37C0GNLMHGATTZ8LNZ3GK3EFCSF6D5", "dateTime": 1516128220890}, {"current_trial": 23, "trialdata": {"rt": -1000, "trial_type": "single-audio", "word": "harp", "stimulus": "/static/audio/wordpool/HARP.wav", "conditions": [18, 1200, "a", 18000], "internal_node_id": "0.0-14.0", "trial": 0, "time_elapsed": 62179, "serialpos": 2, "key_press": -1, "wordID": 688, "type": "PRES_AUD", "trial_index": 23}, "uniqueid": "MTK1684:37C0GNLMHGATTZ8LNZ3GK3EFCSF6D5", "dateTime": 1516128222915}, {"current_trial": 24, "trialdata": {"rt": -1000, "trial_type": "single-audio", "word": "belly", "stimulus": "/static/audio/wordpool/BELLY.wav", "conditions": [18, 1200, "a", 18000], "internal_node_id": "0.0-15.0", "trial": 0, "time_elapsed": 64461, "serialpos": 3, "key_press": -1, "wordID": 118, "type": "PRES_AUD", "trial_index": 24}, "uniqueid": "MTK1684:37C0GNLMHGATTZ8LNZ3GK3EFCSF6D5", "dateTime": 1516128225197}, {"current_trial": 25, "trialdata": {"rt": -1000, "trial_type": "single-audio", "word": "cocktail", "stimulus": "/static/audio/wordpool/COCKTAIL.wav", "conditions": [18, 1200, "a", 18000], "internal_node_id": "0.0-16.0", "trial": 0, "time_elapsed": 66600, "serialpos": 4, "key_press": -1, "wordID": 337, "type": "PRES_AUD", "trial_index": 25}, "uniqueid": "MTK1684:37C0GNLMHGATTZ8LNZ3GK3EFCSF6D5", "dateTime": 1516128227336}, {"current_trial": 26, "trialdata": {"rt": -1000, "trial_type": "single-audio", "word": "hood", "stimulus": "/static/audio/wordpool/HOOD.wav", "conditions": [18, 1200, "a", 18000], "internal_node_id": "0.0-17.0", "trial": 0, "time_elapsed": 68964, "serialpos": 5, "key_press": -1, "wordID": 713, "type": "PRES_AUD", "trial_index": 26}, "uniqueid": "MTK1684:37C0GNLMHGATTZ8LNZ3GK3EFCSF6D5", "dateTime": 1516128229700}, {"current_trial": 27, "trialdata": {"rt": -1000, "trial_type": "single-audio", "word": "bison", "stimulus": "/static/audio/wordpool/BISON.wav", "conditions": [18, 1200, "a", 18000], "internal_node_id": "0.0-18.0", "trial": 0, "time_elapsed": 71132, "serialpos": 6, "key_press": -1, "wordID": 130, "type": "PRES_AUD", "trial_index": 27}, "uniqueid": "MTK1684:37C0GNLMHGATTZ8LNZ3GK3EFCSF6D5", "dateTime": 1516128231868}, {"current_trial": 28, "trialdata": {"rt": -1000, "trial_type": "single-audio", "word": "pigment", "stimulus": "/static/audio/wordpool/PIGMENT.wav", "conditions": [18, 1200, "a", 18000], "internal_node_id": "0.0-19.0", "trial": 0, "time_elapsed": 73484, "serialpos": 7, "key_press": -1, "wordID": 1065, "type": "PRES_AUD", "trial_index": 28}, "uniqueid": "MTK1684:37C0GNLMHGATTZ8LNZ3GK3EFCSF6D5", "dateTime": 1516128234220}, {"current_trial": 29, "trialdata": {"rt": -1000, "trial_type": "single-audio", "word": "church", "stimulus": "/static/audio/wordpool/CHURCH.wav", "conditions": [18, 1200, "a", 18000], "internal_node_id": "0.0-20.0", "trial": 0, "time_elapsed": 75740, "serialpos": 8, "key_press": -1, "wordID": 306, "type": "PRES_AUD", "trial_index": 29}, "uniqueid": "MTK1684:37C0GNLMHGATTZ8LNZ3GK3EFCSF6D5", "dateTime": 1516128236476}, {"current_trial": 30, "trialdata": {"rt": -1000, "trial_type": "single-audio", "word": "fragrance", "stimulus": "/static/audio/wordpool/FRAGRANCE.wav", "conditions": [18, 1200, "a", 18000], "internal_node_id": "0.0-21.0", "trial": 0, "time_elapsed": 77966, "serialpos": 9, "key_press": -1, "wordID": 598, "type": "PRES_AUD", "trial_index": 30}, "uniqueid": "MTK1684:37C0GNLMHGATTZ8LNZ3GK3EFCSF6D5", "dateTime": 1516128238703}, {"current_trial": 31, "trialdata": {"rt": -1000, "trial_type": "single-audio", "word": "ketchup", "stimulus": "/static/audio/wordpool/KETCHUP.wav", "conditions": [18, 1200, "a", 18000], "internal_node_id": "0.0-22.0", "trial": 0, "time_elapsed": 80066, "serialpos": 10, "key_press": -1, "wordID": 770, "type": "PRES_AUD", "trial_index": 31}, "uniqueid": "MTK1684:37C0GNLMHGATTZ8LNZ3GK3EFCSF6D5", "dateTime": 1516128240802}, {"current_trial": 32, "trialdata": {"rt": -1000, "trial_type": "single-audio", "word": "chest", "stimulus": "/static/audio/wordpool/CHEST.wav", "conditions": [18, 1200, "a", 18000], "internal_node_id": "0.0-23.0", "trial": 0, "time_elapsed": 82259, "serialpos": 11, "key_press": -1, "wordID": 294, "type": "PRES_AUD", "trial_index": 32}, "uniqueid": "MTK1684:37C0GNLMHGATTZ8LNZ3GK3EFCSF6D5", "dateTime": 1516128242995}, {"current_trial": 33, "trialdata": {"rt": -1000, "trial_type": "single-audio", "word": "hero", "stimulus": "/static/audio/wordpool/HERO.wav", "conditions": [18, 1200, "a", 18000], "internal_node_id": "0.0-24.0", "trial": 0, "time_elapsed": 84335, "serialpos": 12, "key_press": -1, "wordID": 705, "type": "PRES_AUD", "trial_index": 33}, "uniqueid": "MTK1684:37C0GNLMHGATTZ8LNZ3GK3EFCSF6D5", "dateTime": 1516128245071}, {"current_trial": 34, "trialdata": {"rt": -1000, "trial_type": "single-audio", "word": "critic", "stimulus": "/static/audio/wordpool/CRITIC.wav", "conditions": [18, 1200, "a", 18000], "internal_node_id": "0.0-25.0", "trial": 0, "time_elapsed": 86372, "serialpos": 13, "key_press": -1, "wordID": 409, "type": "PRES_AUD", "trial_index": 34}, "uniqueid": "MTK1684:37C0GNLMHGATTZ8LNZ3GK3EFCSF6D5", "dateTime": 1516128247108}, {"current_trial": 35, "trialdata": {"rt": 1601.3333333333435, "trial_type": "single-audio", "word": "napkin", "stimulus": "/static/audio/wordpool/NAPKIN.wav", "conditions": [18, 1200, "a", 18000], "internal_node_id": "0.0-26.0", "trial": 0, "time_elapsed": 88379, "serialpos": 14, "key_press": 122, "wordID": 936, "type": "PRES_AUD", "trial_index": 35}, "uniqueid": "MTK1684:37C0GNLMHGATTZ8LNZ3GK3EFCSF6D5", "dateTime": 1516128249115}, {"current_trial": 36, "trialdata": {"rt": -1000, "trial_type": "single-audio", "word": "bucket", "stimulus": "/static/audio/wordpool/BUCKET.wav", "conditions": [18, 1200, "a", 18000], "internal_node_id": "0.0-27.0", "trial": 0, "time_elapsed": 90544, "serialpos": 15, "key_press": -1, "wordID": 183, "type": "PRES_AUD", "trial_index": 36}, "uniqueid": "MTK1684:37C0GNLMHGATTZ8LNZ3GK3EFCSF6D5", "dateTime": 1516128251280}, {"current_trial": 37, "trialdata": {"rt": -1000, "trial_type": "single-audio", "word": "college", "stimulus": "/static/audio/wordpool/COLLEGE.wav", "conditions": [18, 1200, "a", 18000], "internal_node_id": "0.0-28.0", "trial": 0, "time_elapsed": 92676, "serialpos": 16, "key_press": -1, "wordID": 345, "type": "PRES_AUD", "trial_index": 37}, "uniqueid": "MTK1684:37C0GNLMHGATTZ8LNZ3GK3EFCSF6D5", "dateTime": 1516128253412}, {"current_trial": 38, "trialdata": {"rt": -1000, "trial_type": "single-audio", "word": "ulcer", "stimulus": "/static/audio/wordpool/ULCER.wav", "conditions": [18, 1200, "a", 18000], "internal_node_id": "0.0-29.0", "trial": 0, "time_elapsed": 94854, "serialpos": 17, "key_press": -1, "wordID": 1532, "type": "PRES_AUD", "trial_index": 38}, "uniqueid": "MTK1684:37C0GNLMHGATTZ8LNZ3GK3EFCSF6D5", "dateTime": 1516128255590}, {"current_trial": 39, "trialdata": {"rt": -1, "trial_type": "single-stim", "stimulus": "", "internal_node_id": "0.0-30.0-0.0", "time_elapsed": 96126, "key_press": -1, "type": "PRE_RECALL_DELAY", "trial_index": 39}, "uniqueid": "MTK1684:37C0GNLMHGATTZ8LNZ3GK3EFCSF6D5", "dateTime": 1516128256862}, {"current_trial": 40, "trialdata": {"rt": -1000, "trial_type": "single-audio", "stimulus": "/static/audio/400Hz.wav", "internal_node_id": "0.0-31.0", "time_elapsed": 96627, "key_press": -1, "type": "PRE_RECALL_ALERT", "trial_index": 40}, "uniqueid": "MTK1684:37C0GNLMHGATTZ8LNZ3GK3EFCSF6D5", "dateTime": 1516128257363}, {"current_trial": 41, "trialdata": {"rt": [1460, 3932, 8156, 10572, 11516, 13308, 17812, 25524, 27084, 28828], "recwords": ["package", "outdoors", "harp", "bucket", "college", "ulcer", "chest", "napkin", "ketchup", "fragrance"], "key_times": [596, 756, 868, 964, 1052, 1132, 1204, 1252, 1460, 2396, 2471, 2556, 2700, 2788, 2932, 2989, 3061, 3932, 4188, 4260, 4308, 4396, 8156, 9964, 10020, 10100, 10237, 10293, 10372, 10572, 10724, 10853, 11036, 11180, 11252, 11324, 11420, 11516, 11740, 11916, 11988, 12119, 12196, 13308, 17444, 17532, 17588, 17652, 17684, 17812, 18068, 21244, 24364, 24476, 24580, 24740, 24924, 24989, 25524, 25964, 26045, 26094, 26252, 26628, 26828, 26912, 27084, 27548, 27684, 27908, 28140, 28207, 28260, 28436, 28524, 28580, 28828, 29244], "trial_type": "free-recall", "conditions": [18, 1200, "a", 18000], "internal_node_id": "0.0-32.0-0.0", "key_presses": [20, 80, 65, 67, 75, 65, 71, 69, 13, 79, 85, 84, 68, 79, 79, 82, 83, 13, 72, 65, 82, 80, 13, 66, 85, 67, 75, 69, 84, 13, 67, 79, 76, 76, 69, 71, 69, 13, 85, 76, 67, 69, 82, 13, 67, 72, 69, 83, 84, 13, 20, 20, 78, 65, 80, 75, 73, 78, 13, 75, 69, 84, 67, 72, 85, 80, 13, 70, 82, 65, 71, 82, 65, 78, 67, 69, 13, 20], "trial": 0, "time_elapsed": 156630, "type": "FREE_RECALL", "trial_index": 41}, "uniqueid": "MTK1684:37C0GNLMHGATTZ8LNZ3GK3EFCSF6D5", "dateTime": 1516128317367}, {"current_trial": 42, "trialdata": {"rt": 897, "trial_type": "text", "internal_node_id": "0.0-33.0", "time_elapsed": 159529, "key_press": 32, "type": "INSTRUCTIONS", "trial_index": 42}, "uniqueid": "MTK1684:37C0GNLMHGATTZ8LNZ3GK3EFCSF6D5", "dateTime": 1516128320265}, {"current_trial": 43, "trialdata": {"rt": [4022, 7478, 9782, 11590, 13390, 15254], "trial_type": "math-distractor", "key_times": [2830, 2902, 4022, 6630, 6650, 7478, 9015, 9398, 9782, 11222, 11300, 11590, 13190, 13230, 13390, 14902, 14950, 15254, 17878], "responses": ["20", "13", "16", "19", "13", "12"], "num2": [9, 7, 3, 4, 6, 2, 3], "num3": [6, 1, 4, 8, 2, 9, 9], "conditions": [18, 1200, "a", 18000], "internal_node_id": "0.0-34.0", "key_presses": [50, 48, 13, 49, 51, 13, 49, 54, 13, 49, 57, 13, 49, 51, 13, 49, 50, 13, 49], "trial": 1, "time_elapsed": 179530, "type": "DISTRACTOR", "trial_index": 43, "num1": [5, 5, 9, 7, 5, 1, 5]}, "uniqueid": "MTK1684:37C0GNLMHGATTZ8LNZ3GK3EFCSF6D5", "dateTime": 1516128340267}, {"current_trial": 44, "trialdata": {"rt": -1, "trial_type": "single-stim", "stimulus": "<p id=\"stim\">10</p>", "internal_node_id": "0.0-35.0-0.0", "time_elapsed": 182532, "key_press": -1, "trial_index": 44}, "uniqueid": "MTK1684:37C0GNLMHGATTZ8LNZ3GK3EFCSF6D5", "dateTime": 1516128343268}, {"current_trial": 45, "trialdata": {"rt": -1, "trial_type": "single-stim", "stimulus": "<p id=\"stim\">9</p>", "internal_node_id": "0.0-35.0-1.0", "time_elapsed": 183533, "key_press": -1, "trial_index": 45}, "uniqueid": "MTK1684:37C0GNLMHGATTZ8LNZ3GK3EFCSF6D5", "dateTime": 1516128344269}, {"current_trial": 46, "trialdata": {"rt": -1, "trial_type": "single-stim", "stimulus": "<p id=\"stim\">8</p>", "internal_node_id": "0.0-35.0-2.0", "time_elapsed": 184534, "key_press": -1, "trial_index": 46}, "uniqueid": "MTK1684:37C0GNLMHGATTZ8LNZ3GK3EFCSF6D5", "dateTime": 1516128345270}, {"current_trial": 47, "trialdata": {"rt": -1, "trial_type": "single-stim", "stimulus": "<p id=\"stim\">7</p>", "internal_node_id": "0.0-35.0-3.0", "time_elapsed": 185534, "key_press": -1, "trial_index": 47}, "uniqueid": "MTK1684:37C0GNLMHGATTZ8LNZ3GK3EFCSF6D5", "dateTime": 1516128346270}, {"current_trial": 48, "trialdata": {"rt": -1, "trial_type": "single-stim", "stimulus": "<p id=\"stim\">6</p>", "internal_node_id": "0.0-35.0-4.0", "time_elapsed": 186534, "key_press": -1, "trial_index": 48}, "uniqueid": "MTK1684:37C0GNLMHGATTZ8LNZ3GK3EFCSF6D5", "dateTime": 1516128347270}, {"current_trial": 49, "trialdata": {"rt": -1, "trial_type": "single-stim", "stimulus": "<p id=\"stim\">5</p>", "internal_node_id": "0.0-35.0-5.0", "time_elapsed": 187535, "key_press": -1, "trial_index": 49}, "uniqueid": "MTK1684:37C0GNLMHGATTZ8LNZ3GK3EFCSF6D5", "dateTime": 1516128348271}, {"current_trial": 50, "trialdata": {"rt": -1, "trial_type": "single-stim", "stimulus": "<p id=\"stim\">4</p>", "internal_node_id": "0.0-35.0-6.0", "time_elapsed": 188535, "key_press": -1, "trial_index": 50}, "uniqueid": "MTK1684:37C0GNLMHGATTZ8LNZ3GK3EFCSF6D5", "dateTime": 1516128349271}, {"current_trial": 51, "trialdata": {"rt": -1, "trial_type": "single-stim", "stimulus": "<p id=\"stim\">3</p>", "internal_node_id": "0.0-35.0-7.0", "time_elapsed": 189535, "key_press": -1, "trial_index": 51}, "uniqueid": "MTK1684:37C0GNLMHGATTZ8LNZ3GK3EFCSF6D5", "dateTime": 1516128350271}, {"current_trial": 52, "trialdata": {"rt": -1, "trial_type": "single-stim", "stimulus": "<p id=\"stim\">2</p>", "internal_node_id": "0.0-35.0-8.0", "time_elapsed": 190536, "key_press": -1, "trial_index": 52}, "uniqueid": "MTK1684:37C0GNLMHGATTZ8LNZ3GK3EFCSF6D5", "dateTime": 1516128351272}, {"current_trial": 53, "trialdata": {"rt": -1, "trial_type": "single-stim", "stimulus": "<p id=\"stim\">1</p>", "internal_node_id": "0.0-35.0-9.0", "time_elapsed": 191537, "key_press": -1, "trial_index": 53}, "uniqueid": "MTK1684:37C0GNLMHGATTZ8LNZ3GK3EFCSF6D5", "dateTime": 1516128352273}, {"current_trial": 54, "trialdata": {"rt": -1, "trial_type": "single-stim", "stimulus": "<p id=\"stim\">+</p>", "internal_node_id": "0.0-36.0-0.0", "time_elapsed": 193039, "key_press": -1, "type": "FIXATION", "trial_index": 54}, "uniqueid": "MTK1684:37C0GNLMHGATTZ8LNZ3GK3EFCSF6D5", "dateTime": 1516128353775}, {"current_trial": 55, "trialdata": {"rt": -1000, "trial_type": "single-audio", "word": "nurse", "stimulus": "/static/audio/wordpool/NURSE.wav", "conditions": [18, 1200, "a", 18000], "internal_node_id": "0.0-37.0", "trial": 1, "time_elapsed": 195399, "serialpos": 0, "key_press": -1, "wordID": 962, "type": "PRES_AUD", "trial_index": 55}, "uniqueid": "MTK1684:37C0GNLMHGATTZ8LNZ3GK3EFCSF6D5", "dateTime": 1516128356135}, {"current_trial": 56, "trialdata": {"rt": -1000, "trial_type": "single-audio", "word": "lagoon", "stimulus": "/static/audio/wordpool/LAGOON.wav", "conditions": [18, 1200, "a", 18000], "internal_node_id": "0.0-38.0", "trial": 1, "time_elapsed": 197694, "serialpos": 1, "key_press": -1, "wordID": 794, "type": "PRES_AUD", "trial_index": 56}, "uniqueid": "MTK1684:37C0GNLMHGATTZ8LNZ3GK3EFCSF6D5", "dateTime": 1516128358430}, {"current_trial": 57, "trialdata": {"rt": -1000, "trial_type": "single-audio", "word": "award", "stimulus": "/static/audio/wordpool/AWARD.wav", "conditions": [18, 1200, "a", 18000], "internal_node_id": "0.0-39.0", "trial": 1, "time_elapsed": 199959, "serialpos": 2, "key_press": -1, "wordID": 62, "type": "PRES_AUD", "trial_index": 57}, "uniqueid": "MTK1684:37C0GNLMHGATTZ8LNZ3GK3EFCSF6D5", "dateTime": 1516128360695}, {"current_trial": 58, "trialdata": {"rt": -1000, "trial_type": "single-audio", "word": "outfit", "stimulus": "/static/audio/wordpool/OUTFIT.wav", "conditions": [18, 1200, "a", 18000], "internal_node_id": "0.0-40.0", "trial": 1, "time_elapsed": 202193, "serialpos": 3, "key_press": -1, "wordID": 987, "type": "PRES_AUD", "trial_index": 58}, "uniqueid": "MTK1684:37C0GNLMHGATTZ8LNZ3GK3EFCSF6D5", "dateTime": 1516128362929}, {"current_trial": 59, "trialdata": {"rt": -1000, "trial_type": "single-audio", "word": "army", "stimulus": "/static/audio/wordpool/ARMY.wav", "conditions": [18, 1200, "a", 18000], "internal_node_id": "0.0-41.0", "trial": 1, "time_elapsed": 204513, "serialpos": 4, "key_press": -1, "wordID": 38, "type": "PRES_AUD", "trial_index": 59}, "uniqueid": "MTK1684:37C0GNLMHGATTZ8LNZ3GK3EFCSF6D5", "dateTime": 1516128365249}, {"current_trial": 60, "trialdata": {"rt": -1000, "trial_type": "single-audio", "word": "body", "stimulus": "/static/audio/wordpool/BODY.wav", "conditions": [18, 1200, "a", 18000], "internal_node_id": "0.0-42.0", "trial": 1, "time_elapsed": 206686, "serialpos": 5, "key_press": -1, "wordID": 144, "type": "PRES_AUD", "trial_index": 60}, "uniqueid": "MTK1684:37C0GNLMHGATTZ8LNZ3GK3EFCSF6D5", "dateTime": 1516128367422}, {"current_trial": 61, "trialdata": {"rt": -1000, "trial_type": "single-audio", "word": "nightgown", "stimulus": "/static/audio/wordpool/NIGHTGOWN.wav", "conditions": [18, 1200, "a", 18000], "internal_node_id": "0.0-43.0", "trial": 1, "time_elapsed": 208962, "serialpos": 6, "key_press": -1, "wordID": 952, "type": "PRES_AUD", "trial_index": 61}, "uniqueid": "MTK1684:37C0GNLMHGATTZ8LNZ3GK3EFCSF6D5", "dateTime": 1516128369698}, {"current_trial": 62, "trialdata": {"rt": -1000, "trial_type": "single-audio", "word": "teacher", "stimulus": "/static/audio/wordpool/TEACHER.wav", "conditions": [18, 1200, "a", 18000], "internal_node_id": "0.0-44.0", "trial": 1, "time_elapsed": 211244, "serialpos": 7, "key_press": -1, "wordID": 1439, "type": "PRES_AUD", "trial_index": 62}, "uniqueid": "MTK1684:37C0GNLMHGATTZ8LNZ3GK3EFCSF6D5", "dateTime": 1516128371980}, {"current_trial": 63, "trialdata": {"rt": -1000, "trial_type": "single-audio", "word": "judge", "stimulus": "/static/audio/wordpool/JUDGE.wav", "conditions": [18, 1200, "a", 18000], "internal_node_id": "0.0-45.0", "trial": 1, "time_elapsed": 213445, "serialpos": 8, "key_press": -1, "wordID": 760, "type": "PRES_AUD", "trial_index": 63}, "uniqueid": "MTK1684:37C0GNLMHGATTZ8LNZ3GK3EFCSF6D5", "dateTime": 1516128374181}, {"current_trial": 64, "trialdata": {"rt": -1000, "trial_type": "single-audio", "word": "sunset", "stimulus": "/static/audio/wordpool/SUNSET.wav", "conditions": [18, 1200, "a", 18000], "internal_node_id": "0.0-46.0", "trial": 1, "time_elapsed": 215728, "serialpos": 9, "key_press": -1, "wordID": 1407, "type": "PRES_AUD", "trial_index": 64}, "uniqueid": "MTK1684:37C0GNLMHGATTZ8LNZ3GK3EFCSF6D5", "dateTime": 1516128376464}, {"current_trial": 65, "trialdata": {"rt": -1000, "trial_type": "single-audio", "word": "dime", "stimulus": "/static/audio/wordpool/DIME.wav", "conditions": [18, 1200, "a", 18000], "internal_node_id": "0.0-47.0", "trial": 1, "time_elapsed": 218088, "serialpos": 10, "key_press": -1, "wordID": 465, "type": "PRES_AUD", "trial_index": 65}, "uniqueid": "MTK1684:37C0GNLMHGATTZ8LNZ3GK3EFCSF6D5", "dateTime": 1516128378825}, {"current_trial": 66, "trialdata": {"rt": -1000, "trial_type": "single-audio", "word": "slide", "stimulus": "/static/audio/wordpool/SLIDE.wav", "conditions": [18, 1200, "a", 18000], "internal_node_id": "0.0-48.0", "trial": 1, "time_elapsed": 220104, "serialpos": 11, "key_press": -1, "wordID": 1325, "type": "PRES_AUD", "trial_index": 66}, "uniqueid": "MTK1684:37C0GNLMHGATTZ8LNZ3GK3EFCSF6D5", "dateTime": 1516128380840}, {"current_trial": 67, "trialdata": {"rt": -1000, "trial_type": "single-audio", "word": "dress", "stimulus": "/static/audio/wordpool/DRESS.wav", "conditions": [18, 1200, "a", 18000], "internal_node_id": "0.0-49.0", "trial": 1, "time_elapsed": 222489, "serialpos": 12, "key_press": -1, "wordID": 494, "type": "PRES_AUD", "trial_index": 67}, "uniqueid": "MTK1684:37C0GNLMHGATTZ8LNZ3GK3EFCSF6D5", "dateTime": 1516128383225}, {"current_trial": 68, "trialdata": {"rt": -1000, "trial_type": "single-audio", "word": "fireman", "stimulus": "/static/audio/wordpool/FIREMAN.wav", "conditions": [18, 1200, "a", 18000], "internal_node_id": "0.0-50.0", "trial": 1, "time_elapsed": 224740, "serialpos": 13, "key_press": -1, "wordID": 568, "type": "PRES_AUD", "trial_index": 68}, "uniqueid": "MTK1684:37C0GNLMHGATTZ8LNZ3GK3EFCSF6D5", "dateTime": 1516128385477}, {"current_trial": 69, "trialdata": {"rt": -1000, "trial_type": "single-audio", "word": "forest", "stimulus": "/static/audio/wordpool/FOREST.wav", "conditions": [18, 1200, "a", 18000], "internal_node_id": "0.0-51.0", "trial": 1, "time_elapsed": 227068, "serialpos": 14, "key_press": -1, "wordID": 592, "type": "PRES_AUD", "trial_index": 69}, "uniqueid": "MTK1684:37C0GNLMHGATTZ8LNZ3GK3EFCSF6D5", "dateTime": 1516128387804}, {"current_trial": 70, "trialdata": {"rt": -1000, "trial_type": "single-audio", "word": "crutch", "stimulus": "/static/audio/wordpool/CRUTCH.wav", "conditions": [18, 1200, "a", 18000], "internal_node_id": "0.0-52.0", "trial": 1, "time_elapsed": 229393, "serialpos": 15, "key_press": -1, "wordID": 416, "type": "PRES_AUD", "trial_index": 70}, "uniqueid": "MTK1684:37C0GNLMHGATTZ8LNZ3GK3EFCSF6D5", "dateTime": 1516128390129}, {"current_trial": 71, "trialdata": {"rt": -1000, "trial_type": "single-audio", "word": "igloo", "stimulus": "/static/audio/wordpool/IGLOO.wav", "conditions": [18, 1200, "a", 18000], "internal_node_id": "0.0-53.0", "trial": 1, "time_elapsed": 231674, "serialpos": 16, "key_press": -1, "wordID": 733, "type": "PRES_AUD", "trial_index": 71}, "uniqueid": "MTK1684:37C0GNLMHGATTZ8LNZ3GK3EFCSF6D5", "dateTime": 1516128392410}, {"current_trial": 72, "trialdata": {"rt": -1000, "trial_type": "single-audio", "word": "cigar", "stimulus": "/static/audio/wordpool/CIGAR.wav", "conditions": [18, 1200, "a", 18000], "internal_node_id": "0.0-54.0", "trial": 1, "time_elapsed": 234045, "serialpos": 17, "key_press": -1, "wordID": 307, "type": "PRES_AUD", "trial_index": 72}, "uniqueid": "MTK1684:37C0GNLMHGATTZ8LNZ3GK3EFCSF6D5", "dateTime": 1516128394781}, {"current_trial": 73, "trialdata": {"rt": -1, "trial_type": "single-stim", "stimulus": "", "internal_node_id": "0.0-55.0-0.0", "time_elapsed": 235381, "key_press": -1, "type": "PRE_RECALL_DELAY", "trial_index": 73}, "uniqueid": "MTK1684:37C0GNLMHGATTZ8LNZ3GK3EFCSF6D5", "dateTime": 1516128396117}, {"current_trial": 74, "trialdata": {"rt": -1000, "trial_type": "single-audio", "stimulus": "/static/audio/400Hz.wav", "internal_node_id": "0.0-56.0", "time_elapsed": 235882, "key_press": -1, "type": "PRE_RECALL_ALERT", "trial_index": 74}, "uniqueid": "MTK1684:37C0GNLMHGATTZ8LNZ3GK3EFCSF6D5", "dateTime": 1516128396618}, {"current_trial": 75, "trialdata": {"rt": [2221, 3181, 4245, 5804, 7269, 7821, 8781, 10061], "recwords": ["sunset", "judge", "nightgown", "slide", "fireman", "forest", "igloo", "cigar"], "key_times": [437, 517, 613, 709, 837, 1301, 1341, 1549, 1669, 1845, 1909, 1965, 2021, 2111, 2221, 2621, 2757, 2829, 2941, 3008, 3181, 3389, 3453, 3525, 3629, 3693, 3837, 3933, 3997, 4101, 4245, 4565, 4666, 4725, 4765, 4901, 5804, 6237, 6365, 6421, 6493, 6573, 6677, 6789, 7269, 7389, 7485, 7557, 7621, 7653, 7733, 7821, 8037, 8165, 8333, 8469, 8629, 8781, 9061, 9150, 9253, 9341, 9397, 9461, 9813, 10061], "trial_type": "free-recall", "conditions": [18, 1200, "a", 18000], "internal_node_id": "0.0-57.0-0.0", "key_presses": [83, 85, 78, 83, 69, 17, 65, 20, 83, 85, 78, 83, 69, 84, 13, 74, 85, 68, 71, 69, 13, 78, 73, 71, 72, 84, 71, 79, 87, 78, 13, 83, 76, 73, 68, 69, 13, 70, 73, 82, 69, 77, 65, 78, 13, 70, 79, 82, 69, 83, 84, 13, 73, 71, 76, 79, 79, 13, 67, 73, 71, 65, 82, 69, 8, 13], "trial": 1, "time_elapsed": 295885, "type": "FREE_RECALL", "trial_index": 75}, "uniqueid": "MTK1684:37C0GNLMHGATTZ8LNZ3GK3EFCSF6D5", "dateTime": 1516128456626}, {"current_trial": 76, "trialdata": {"rt": 1694, "trial_type": "text", "internal_node_id": "0.0-58.0", "time_elapsed": 299584, "key_press": 13, "type": "INSTRUCTIONS", "trial_index": 76}, "uniqueid": "MTK1684:37C0GNLMHGATTZ8LNZ3GK3EFCSF6D5", "dateTime": 1516128460320}, {"current_trial": 77, "trialdata": {"rt": [2055, 4373, 6222, 7686, 9126, 14390, 16670, 18453, 19566, 21582, 22909], "trial_type": "math-distractor", "key_times": [1814, 1886, 2055, 4014, 4158, 4373, 5558, 5606, 5966, 6054, 6222, 7438, 7502, 7686, 8830, 8982, 9126, 13970, 14014, 14390, 16302, 16422, 16670, 17926, 17974, 18453, 19310, 19398, 19566, 21382, 21422, 21582, 22766, 22798, 22909], "responses": ["19", "16", "14", "10", "11", "23", "18", "13", "15", "23", "13"], "num2": [5, 3, 4, 3, 7, 6, 9, 6, 5, 9, 3, 5], "num3": [7, 4, 3, 4, 3, 9, 7, 5, 5, 5, 7, 4], "conditions": [12, 800, "a", 24000], "internal_node_id": "0.0-59.0", "key_presses": [49, 57, 13, 49, 54, 13, 49, 51, 8, 52, 13, 49, 48, 13, 49, 49, 13, 50, 51, 13, 49, 56, 13, 49, 51, 13, 49, 53, 13, 50, 51, 13, 49, 51, 13], "trial": 2, "time_elapsed": 324587, "type": "DISTRACTOR", "trial_index": 77, "num1": [7, 9, 7, 3, 1, 8, 2, 2, 5, 9, 3, 7]}, "uniqueid": "MTK1684:37C0GNLMHGATTZ8LNZ3GK3EFCSF6D5", "dateTime": 1516128485323}, {"current_trial": 78, "trialdata": {"rt": -1, "trial_type": "single-stim", "stimulus": "<p id=\"stim\">10</p>", "internal_node_id": "0.0-60.0-0.0", "time_elapsed": 327589, "key_press": -1, "trial_index": 78}, "uniqueid": "MTK1684:37C0GNLMHGATTZ8LNZ3GK3EFCSF6D5", "dateTime": 1516128488325}, {"current_trial": 79, "trialdata": {"rt": -1, "trial_type": "single-stim", "stimulus": "<p id=\"stim\">9</p>", "internal_node_id": "0.0-60.0-1.0", "time_elapsed": 328594, "key_press": -1, "trial_index": 79}, "uniqueid": "MTK1684:37C0GNLMHGATTZ8LNZ3GK3EFCSF6D5", "dateTime": 1516128489330}, {"current_trial": 80, "trialdata": {"rt": -1, "trial_type": "single-stim", "stimulus": "<p id=\"stim\">8</p>", "internal_node_id": "0.0-60.0-2.0", "time_elapsed": 329596, "key_press": -1, "trial_index": 80}, "uniqueid": "MTK1684:37C0GNLMHGATTZ8LNZ3GK3EFCSF6D5", "dateTime": 1516128490332}, {"current_trial": 81, "trialdata": {"rt": -1, "trial_type": "single-stim", "stimulus": "<p id=\"stim\">7</p>", "internal_node_id": "0.0-60.0-3.0", "time_elapsed": 330596, "key_press": -1, "trial_index": 81}, "uniqueid": "MTK1684:37C0GNLMHGATTZ8LNZ3GK3EFCSF6D5", "dateTime": 1516128491333}, {"current_trial": 82, "trialdata": {"rt": -1, "trial_type": "single-stim", "stimulus": "<p id=\"stim\">6</p>", "internal_node_id": "0.0-60.0-4.0", "time_elapsed": 331598, "key_press": -1, "trial_index": 82}, "uniqueid": "MTK1684:37C0GNLMHGATTZ8LNZ3GK3EFCSF6D5", "dateTime": 1516128492334}, {"current_trial": 83, "trialdata": {"rt": -1, "trial_type": "single-stim", "stimulus": "<p id=\"stim\">5</p>", "internal_node_id": "0.0-60.0-5.0", "time_elapsed": 332600, "key_press": -1, "trial_index": 83}, "uniqueid": "MTK1684:37C0GNLMHGATTZ8LNZ3GK3EFCSF6D5", "dateTime": 1516128493336}, {"current_trial": 84, "trialdata": {"rt": -1, "trial_type": "single-stim", "stimulus": "<p id=\"stim\">4</p>", "internal_node_id": "0.0-60.0-6.0", "time_elapsed": 333601, "key_press": -1, "trial_index": 84}, "uniqueid": "MTK1684:37C0GNLMHGATTZ8LNZ3GK3EFCSF6D5", "dateTime": 1516128494337}, {"current_trial": 85, "trialdata": {"rt": -1, "trial_type": "single-stim", "stimulus": "<p id=\"stim\">3</p>", "internal_node_id": "0.0-60.0-7.0", "time_elapsed": 334602, "key_press": -1, "trial_index": 85}, "uniqueid": "MTK1684:37C0GNLMHGATTZ8LNZ3GK3EFCSF6D5", "dateTime": 1516128495338}, {"current_trial": 86, "trialdata": {"rt": -1, "trial_type": "single-stim", "stimulus": "<p id=\"stim\">2</p>", "internal_node_id": "0.0-60.0-8.0", "time_elapsed": 335604, "key_press": -1, "trial_index": 86}, "uniqueid": "MTK1684:37C0GNLMHGATTZ8LNZ3GK3EFCSF6D5", "dateTime": 1516128496340}, {"current_trial": 87, "trialdata": {"rt": -1, "trial_type": "single-stim", "stimulus": "<p id=\"stim\">1</p>", "internal_node_id": "0.0-60.0-9.0", "time_elapsed": 336604, "key_press": -1, "trial_index": 87}, "uniqueid": "MTK1684:37C0GNLMHGATTZ8LNZ3GK3EFCSF6D5", "dateTime": 1516128497341}, {"current_trial": 88, "trialdata": {"rt": -1, "trial_type": "single-stim", "stimulus": "<p id=\"stim\">+</p>", "internal_node_id": "0.0-61.0-0.0", "time_elapsed": 338106, "key_press": -1, "type": "FIXATION", "trial_index": 88}, "uniqueid": "MTK1684:37C0GNLMHGATTZ8LNZ3GK3EFCSF6D5", "dateTime": 1516128498842}, {"current_trial": 89, "trialdata": {"rt": -1000, "trial_type": "single-audio", "word": "padding", "stimulus": "/static/audio/wordpool/PADDING.wav", "conditions": [12, 800, "a", 24000], "internal_node_id": "0.0-62.0", "trial": 2, "time_elapsed": 340060, "serialpos": 0, "key_press": -1, "wordID": 998, "type": "PRES_AUD", "trial_index": 89}, "uniqueid": "MTK1684:37C0GNLMHGATTZ8LNZ3GK3EFCSF6D5", "dateTime": 1516128500796}, {"current_trial": 90, "trialdata": {"rt": -1000, "trial_type": "single-audio", "word": "diner", "stimulus": "/static/audio/wordpool/DINER.wav", "conditions": [12, 800, "a", 24000], "internal_node_id": "0.0-63.0", "trial": 2, "time_elapsed": 341849, "serialpos": 1, "key_press": -1, "wordID": 466, "type": "PRES_AUD", "trial_index": 90}, "uniqueid": "MTK1684:37C0GNLMHGATTZ8LNZ3GK3EFCSF6D5", "dateTime": 1516128502585}, {"current_trial": 91, "trialdata": {"rt": -1000, "trial_type": "single-audio", "word": "waitress", "stimulus": "/static/audio/wordpool/WAITRESS.wav", "conditions": [12, 800, "a", 24000], "internal_node_id": "0.0-64.0", "trial": 2, "time_elapsed": 343548, "serialpos": 2, "key_press": -1, "wordID": 1580, "type": "PRES_AUD", "trial_index": 91}, "uniqueid": "MTK1684:37C0GNLMHGATTZ8LNZ3GK3EFCSF6D5", "dateTime": 1516128504284}, {"current_trial": 92, "trialdata": {"rt": -1000, "trial_type": "single-audio", "word": "bug", "stimulus": "/static/audio/wordpool/BUG.wav", "conditions": [12, 800, "a", 24000], "internal_node_id": "0.0-65.0", "trial": 2, "time_elapsed": 345542, "serialpos": 3, "key_press": -1, "wordID": 186, "type": "PRES_AUD", "trial_index": 92}, "uniqueid": "MTK1684:37C0GNLMHGATTZ8LNZ3GK3EFCSF6D5", "dateTime": 1516128506278}, {"current_trial": 93, "trialdata": {"rt": -1000, "trial_type": "single-audio", "word": "seafood", "stimulus": "/static/audio/wordpool/SEAFOOD.wav", "conditions": [12, 800, "a", 24000], "internal_node_id": "0.0-66.0", "trial": 2, "time_elapsed": 347198, "serialpos": 4, "key_press": -1, "wordID": 1259, "type": "PRES_AUD", "trial_index": 93}, "uniqueid": "MTK1684:37C0GNLMHGATTZ8LNZ3GK3EFCSF6D5", "dateTime": 1516128507935}, {"current_trial": 94, "trialdata": {"rt": -1000, "trial_type": "single-audio", "word": "label", "stimulus": "/static/audio/wordpool/LABEL.wav", "conditions": [12, 800, "a", 24000], "internal_node_id": "0.0-67.0", "trial": 2, "time_elapsed": 349115, "serialpos": 5, "key_press": -1, "wordID": 789, "type": "PRES_AUD", "trial_index": 94}, "uniqueid": "MTK1684:37C0GNLMHGATTZ8LNZ3GK3EFCSF6D5", "dateTime": 1516128509851}, {"current_trial": 95, "trialdata": {"rt": -1000, "trial_type": "single-audio", "word": "juggler", "stimulus": "/static/audio/wordpool/JUGGLER.wav", "conditions": [12, 800, "a", 24000], "internal_node_id": "0.0-68.0", "trial": 2, "time_elapsed": 350774, "serialpos": 6, "key_press": -1, "wordID": 762, "type": "PRES_AUD", "trial_index": 95}, "uniqueid": "MTK1684:37C0GNLMHGATTZ8LNZ3GK3EFCSF6D5", "dateTime": 1516128511510}, {"current_trial": 96, "trialdata": {"rt": -1000, "trial_type": "single-audio", "word": "chapel", "stimulus": "/static/audio/wordpool/CHAPEL.wav", "conditions": [12, 800, "a", 24000], "internal_node_id": "0.0-69.0", "trial": 2, "time_elapsed": 352386, "serialpos": 7, "key_press": -1, "wordID": 279, "type": "PRES_AUD", "trial_index": 96}, "uniqueid": "MTK1684:37C0GNLMHGATTZ8LNZ3GK3EFCSF6D5", "dateTime": 1516128513122}, {"current_trial": 97, "trialdata": {"rt": -1000, "trial_type": "single-audio", "word": "crab", "stimulus": "/static/audio/wordpool/CRAB.wav", "conditions": [12, 800, "a", 24000], "internal_node_id": "0.0-70.0", "trial": 2, "time_elapsed": 354242, "serialpos": 8, "key_press": -1, "wordID": 396, "type": "PRES_AUD", "trial_index": 97}, "uniqueid": "MTK1684:37C0GNLMHGATTZ8LNZ3GK3EFCSF6D5", "dateTime": 1516128514978}, {"current_trial": 98, "trialdata": {"rt": -1000, "trial_type": "single-audio", "word": "lunch", "stimulus": "/static/audio/wordpool/LUNCH.wav", "conditions": [12, 800, "a", 24000], "internal_node_id": "0.0-71.0", "trial": 2, "time_elapsed": 356100, "serialpos": 9, "key_press": -1, "wordID": 848, "type": "PRES_AUD", "trial_index": 98}, "uniqueid": "MTK1684:37C0GNLMHGATTZ8LNZ3GK3EFCSF6D5", "dateTime": 1516128516836}, {"current_trial": 99, "trialdata": {"rt": -1000, "trial_type": "single-audio", "word": "grill", "stimulus": "/static/audio/wordpool/GRILL.wav", "conditions": [12, 800, "a", 24000], "internal_node_id": "0.0-72.0", "trial": 2, "time_elapsed": 357837, "serialpos": 10, "key_press": -1, "wordID": 660, "type": "PRES_AUD", "trial_index": 99}, "uniqueid": "MTK1684:37C0GNLMHGATTZ8LNZ3GK3EFCSF6D5", "dateTime": 1516128518573}, {"current_trial": 100, "trialdata": {"rt": -1000, "trial_type": "single-audio", "word": "ankle", "stimulus": "/static/audio/wordpool/ANKLE.wav", "conditions": [12, 800, "a", 24000], "internal_node_id": "0.0-73.0", "trial": 2, "time_elapsed": 359574, "serialpos": 11, "key_press": -1, "wordID": 23, "type": "PRES_AUD", "trial_index": 100}, "uniqueid": "MTK1684:37C0GNLMHGATTZ8LNZ3GK3EFCSF6D5", "dateTime": 1516128520310}, {"current_trial": 101, "trialdata": {"rt": -1, "trial_type": "single-stim", "stimulus": "", "internal_node_id": "0.0-74.0-0.0", "time_elapsed": 360960, "key_press": -1, "type": "PRE_RECALL_DELAY", "trial_index": 101}, "uniqueid": "MTK1684:37C0GNLMHGATTZ8LNZ3GK3EFCSF6D5", "dateTime": 1516128521696}, {"current_trial": 102, "trialdata": {"rt": -1000, "trial_type": "single-audio", "stimulus": "/static/audio/400Hz.wav", "internal_node_id": "0.0-75.0", "time_elapsed": 361460, "key_press": -1, "type": "PRE_RECALL_ALERT", "trial_index": 102}, "uniqueid": "MTK1684:37C0GNLMHGATTZ8LNZ3GK3EFCSF6D5", "dateTime": 1516128522197}, {"current_trial": 103, "trialdata": {"rt": [3027, 3746, 5402, 6201, 7194, 7938, 9185, 9890, 10498, 25314], "recwords": ["padding", "diner", "waitress", "bug", "seafood", "crab", "lunch", "grill", "ankle", "seafood"], "key_times": [946, 1490, 1570, 1916, 2025, 2194, 2402, 2474, 2514, 2657, 2730, 2810, 2866, 3027, 3305, 3386, 3474, 3498, 3562, 3746, 4050, 4122, 4258, 4345, 4490, 4514, 4578, 4730, 5402, 5778, 5930, 6018, 6201, 6466, 6530, 6602, 6706, 6818, 6985, 7042, 7194, 7386, 7545, 7602, 7738, 7938, 8144, 8258, 8330, 8450, 8538, 9185, 9370, 9410, 9506, 9567, 9722, 9890, 10106, 10186, 10249, 10306, 10418, 10498, 11058, 23922, 23979, 24322, 24426, 24594, 24658, 24706, 24786, 24849, 24945, 25113, 25170, 25258, 25314], "trial_type": "free-recall", "conditions": [12, 800, "a", 24000], "internal_node_id": "0.0-76.0-0.0", "key_presses": [20, 80, 65, 20, 8, 8, 80, 65, 68, 68, 73, 78, 71, 13, 68, 73, 78, 69, 82, 13, 87, 65, 73, 84, 82, 69, 83, 83, 13, 66, 85, 71, 13, 83, 69, 65, 70, 79, 79, 68, 13, 67, 82, 65, 66, 13, 76, 85, 78, 67, 72, 13, 71, 82, 73, 76, 76, 13, 65, 78, 75, 76, 69, 13, 20, 83, 69, 20, 8, 8, 83, 69, 65, 70, 79, 79, 68, 20, 13], "trial": 2, "time_elapsed": 421463, "type": "FREE_RECALL", "trial_index": 103}, "uniqueid": "MTK1684:37C0GNLMHGATTZ8LNZ3GK3EFCSF6D5", "dateTime": 1516128582200}, {"current_trial": 104, "trialdata": {"rt": 1384, "trial_type": "text", "internal_node_id": "0.0-77.0", "time_elapsed": 424848, "key_press": 32, "type": "INSTRUCTIONS", "trial_index": 104}, "uniqueid": "MTK1684:37C0GNLMHGATTZ8LNZ3GK3EFCSF6D5", "dateTime": 1516128585584}, {"current_trial": 105, "trialdata": {"rt": [1895, 3239, 4471, 8204, 10134, 11895, 13742, 16199, 18599, 20646, 23054], "trial_type": "math-distractor", "key_times": [1678, 1895, 2800, 2990, 3239, 4167, 4247, 4471, 7639, 7709, 8204, 9855, 9926, 10134, 11711, 11759, 11895, 13527, 13575, 13742, 15879, 15927, 16199, 18447, 18478, 18599, 20111, 20310, 20646, 22831, 22886, 23054], "responses": ["8", "16", "18", "23", "20", "21", "15", "14", "12", "16", "14"], "num2": [1, 5, 8, 9, 6, 8, 3, 2, 2, 8, 6, 6], "num3": [5, 5, 9, 6, 8, 8, 4, 3, 1, 6, 7, 6], "conditions": [12, 800, "a", 24000], "internal_node_id": "0.0-78.0", "key_presses": [56, 13, 49, 54, 13, 49, 56, 13, 50, 51, 13, 50, 48, 13, 50, 49, 13, 49, 53, 13, 49, 52, 13, 49, 50, 13, 49, 54, 13, 49, 52, 13], "trial": 3, "time_elapsed": 450850, "type": "DISTRACTOR", "trial_index": 105, "num1": [2, 6, 1, 8, 6, 5, 8, 9, 9, 2, 1, 9]}, "uniqueid": "MTK1684:37C0GNLMHGATTZ8LNZ3GK3EFCSF6D5", "dateTime": 1516128611586}, {"current_trial": 106, "trialdata": {"rt": -1, "trial_type": "single-stim", "stimulus": "<p id=\"stim\">10</p>", "internal_node_id": "0.0-79.0-0.0", "time_elapsed": 453851, "key_press": -1, "trial_index": 106}, "uniqueid": "MTK1684:37C0GNLMHGATTZ8LNZ3GK3EFCSF6D5", "dateTime": 1516128614587}, {"current_trial": 107, "trialdata": {"rt": -1, "trial_type": "single-stim", "stimulus": "<p id=\"stim\">9</p>", "internal_node_id": "0.0-79.0-1.0", "time_elapsed": 454853, "key_press": -1, "trial_index": 107}, "uniqueid": "MTK1684:37C0GNLMHGATTZ8LNZ3GK3EFCSF6D5", "dateTime": 1516128615589}, {"current_trial": 108, "trialdata": {"rt": -1, "trial_type": "single-stim", "stimulus": "<p id=\"stim\">8</p>", "internal_node_id": "0.0-79.0-2.0", "time_elapsed": 455855, "key_press": -1, "trial_index": 108}, "uniqueid": "MTK1684:37C0GNLMHGATTZ8LNZ3GK3EFCSF6D5", "dateTime": 1516128616591}, {"current_trial": 109, "trialdata": {"rt": -1, "trial_type": "single-stim", "stimulus": "<p id=\"stim\">7</p>", "internal_node_id": "0.0-79.0-3.0", "time_elapsed": 456856, "key_press": -1, "trial_index": 109}, "uniqueid": "MTK1684:37C0GNLMHGATTZ8LNZ3GK3EFCSF6D5", "dateTime": 1516128617592}, {"current_trial": 110, "trialdata": {"rt": -1, "trial_type": "single-stim", "stimulus": "<p id=\"stim\">6</p>", "internal_node_id": "0.0-79.0-4.0", "time_elapsed": 457857, "key_press": -1, "trial_index": 110}, "uniqueid": "MTK1684:37C0GNLMHGATTZ8LNZ3GK3EFCSF6D5", "dateTime": 1516128618593}, {"current_trial": 111, "trialdata": {"rt": -1, "trial_type": "single-stim", "stimulus": "<p id=\"stim\">5</p>", "internal_node_id": "0.0-79.0-5.0", "time_elapsed": 458858, "key_press": -1, "trial_index": 111}, "uniqueid": "MTK1684:37C0GNLMHGATTZ8LNZ3GK3EFCSF6D5", "dateTime": 1516128619594}, {"current_trial": 112, "trialdata": {"rt": -1, "trial_type": "single-stim", "stimulus": "<p id=\"stim\">4</p>", "internal_node_id": "0.0-79.0-6.0", "time_elapsed": 459859, "key_press": -1, "trial_index": 112}, "uniqueid": "MTK1684:37C0GNLMHGATTZ8LNZ3GK3EFCSF6D5", "dateTime": 1516128620595}, {"current_trial": 113, "trialdata": {"rt": -1, "trial_type": "single-stim", "stimulus": "<p id=\"stim\">3</p>", "internal_node_id": "0.0-79.0-7.0", "time_elapsed": 460860, "key_press": -1, "trial_index": 113}, "uniqueid": "MTK1684:37C0GNLMHGATTZ8LNZ3GK3EFCSF6D5", "dateTime": 1516128621596}, {"current_trial": 114, "trialdata": {"rt": -1, "trial_type": "single-stim", "stimulus": "<p id=\"stim\">2</p>", "internal_node_id": "0.0-79.0-8.0", "time_elapsed": 461860, "key_press": -1, "trial_index": 114}, "uniqueid": "MTK1684:37C0GNLMHGATTZ8LNZ3GK3EFCSF6D5", "dateTime": 1516128622596}, {"current_trial": 115, "trialdata": {"rt": -1, "trial_type": "single-stim", "stimulus": "<p id=\"stim\">1</p>", "internal_node_id": "0.0-79.0-9.0", "time_elapsed": 462861, "key_press": -1, "trial_index": 115}, "uniqueid": "MTK1684:37C0GNLMHGATTZ8LNZ3GK3EFCSF6D5", "dateTime": 1516128623597}, {"current_trial": 116, "trialdata": {"rt": -1, "trial_type": "single-stim", "stimulus": "<p id=\"stim\">+</p>", "internal_node_id": "0.0-80.0-0.0", "time_elapsed": 464361, "key_press": -1, "type": "FIXATION", "trial_index": 116}, "uniqueid": "MTK1684:37C0GNLMHGATTZ8LNZ3GK3EFCSF6D5", "dateTime": 1516128625097}, {"current_trial": 117, "trialdata": {"rt": -1000, "trial_type": "single-audio", "word": "rifle", "stimulus": "/static/audio/wordpool/RIFLE.wav", "conditions": [12, 800, "a", 24000], "internal_node_id": "0.0-81.0", "trial": 3, "time_elapsed": 466159, "serialpos": 0, "key_press": -1, "wordID": 1191, "type": "PRES_AUD", "trial_index": 117}, "uniqueid": "MTK1684:37C0GNLMHGATTZ8LNZ3GK3EFCSF6D5", "dateTime": 1516128626895}, {"current_trial": 118, "trialdata": {"rt": -1000, "trial_type": "single-audio", "word": "hiker", "stimulus": "/static/audio/wordpool/HIKER.wav", "conditions": [12, 800, "a", 24000], "internal_node_id": "0.0-82.0", "trial": 3, "time_elapsed": 467960, "serialpos": 1, "key_press": -1, "wordID": 707, "type": "PRES_AUD", "trial_index": 118}, "uniqueid": "MTK1684:37C0GNLMHGATTZ8LNZ3GK3EFCSF6D5", "dateTime": 1516128628696}, {"current_trial": 119, "trialdata": {"rt": -1000, "trial_type": "single-audio", "word": "possum", "stimulus": "/static/audio/wordpool/POSSUM.wav", "conditions": [12, 800, "a", 24000], "internal_node_id": "0.0-83.0", "trial": 3, "time_elapsed": 469796, "serialpos": 2, "key_press": -1, "wordID": 1111, "type": "PRES_AUD", "trial_index": 119}, "uniqueid": "MTK1684:37C0GNLMHGATTZ8LNZ3GK3EFCSF6D5", "dateTime": 1516128630532}, {"current_trial": 120, "trialdata": {"rt": -1000, "trial_type": "single-audio", "word": "fox", "stimulus": "/static/audio/wordpool/FOX.wav", "conditions": [12, 800, "a", 24000], "internal_node_id": "0.0-84.0", "trial": 3, "time_elapsed": 471727, "serialpos": 3, "key_press": -1, "wordID": 597, "type": "PRES_AUD", "trial_index": 120}, "uniqueid": "MTK1684:37C0GNLMHGATTZ8LNZ3GK3EFCSF6D5", "dateTime": 1516128632463}, {"current_trial": 121, "trialdata": {"rt": -1000, "trial_type": "single-audio", "word": "champagne", "stimulus": "/static/audio/wordpool/CHAMPAGNE.wav", "conditions": [12, 800, "a", 24000], "internal_node_id": "0.0-85.0", "trial": 3, "time_elapsed": 473406, "serialpos": 4, "key_press": -1, "wordID": 277, "type": "PRES_AUD", "trial_index": 121}, "uniqueid": "MTK1684:37C0GNLMHGATTZ8LNZ3GK3EFCSF6D5", "dateTime": 1516128634142}, {"current_trial": 122, "trialdata": {"rt": -1000, "trial_type": "single-audio", "word": "frame", "stimulus": "/static/audio/wordpool/FRAME.wav", "conditions": [12, 800, "a", 24000], "internal_node_id": "0.0-86.0", "trial": 3, "time_elapsed": 475189, "serialpos": 5, "key_press": -1, "wordID": 599, "type": "PRES_AUD", "trial_index": 122}, "uniqueid": "MTK1684:37C0GNLMHGATTZ8LNZ3GK3EFCSF6D5", "dateTime": 1516128635925}, {"current_trial": 123, "trialdata": {"rt": -1000, "trial_type": "single-audio", "word": "blockade", "stimulus": "/static/audio/wordpool/BLOCKADE.wav", "conditions": [12, 800, "a", 24000], "internal_node_id": "0.0-87.0", "trial": 3, "time_elapsed": 477097, "serialpos": 6, "key_press": -1, "wordID": 136, "type": "PRES_AUD", "trial_index": 123}, "uniqueid": "MTK1684:37C0GNLMHGATTZ8LNZ3GK3EFCSF6D5", "dateTime": 1516128637834}, {"current_trial": 124, "trialdata": {"rt": -1000, "trial_type": "single-audio", "word": "monster", "stimulus": "/static/audio/wordpool/MONSTER.wav", "conditions": [12, 800, "a", 24000], "internal_node_id": "0.0-88.0", "trial": 3, "time_elapsed": 479081, "serialpos": 7, "key_press": -1, "wordID": 911, "type": "PRES_AUD", "trial_index": 124}, "uniqueid": "MTK1684:37C0GNLMHGATTZ8LNZ3GK3EFCSF6D5", "dateTime": 1516128639817}, {"current_trial": 125, "trialdata": {"rt": -1000, "trial_type": "single-audio", "word": "snake", "stimulus": "/static/audio/wordpool/SNAKE.wav", "conditions": [12, 800, "a", 24000], "internal_node_id": "0.0-89.0", "trial": 3, "time_elapsed": 481004, "serialpos": 8, "key_press": -1, "wordID": 1332, "type": "PRES_AUD", "trial_index": 125}, "uniqueid": "MTK1684:37C0GNLMHGATTZ8LNZ3GK3EFCSF6D5", "dateTime": 1516128641740}, {"current_trial": 126, "trialdata": {"rt": -1000, "trial_type": "single-audio", "word": "jelly", "stimulus": "/static/audio/wordpool/JELLY.wav", "conditions": [12, 800, "a", 24000], "internal_node_id": "0.0-90.0", "trial": 3, "time_elapsed": 482971, "serialpos": 9, "key_press": -1, "wordID": 754, "type": "PRES_AUD", "trial_index": 126}, "uniqueid": "MTK1684:37C0GNLMHGATTZ8LNZ3GK3EFCSF6D5", "dateTime": 1516128643707}, {"current_trial": 127, "trialdata": {"rt": -1000, "trial_type": "single-audio", "word": "seagull", "stimulus": "/static/audio/wordpool/SEAGULL.wav", "conditions": [12, 800, "a", 24000], "internal_node_id": "0.0-91.0", "trial": 3, "time_elapsed": 484654, "serialpos": 10, "key_press": -1, "wordID": 1260, "type": "PRES_AUD", "trial_index": 127}, "uniqueid": "MTK1684:37C0GNLMHGATTZ8LNZ3GK3EFCSF6D5", "dateTime": 1516128645390}, {"current_trial": 128, "trialdata": {"rt": -1000, "trial_type": "single-audio", "word": "climber", "stimulus": "/static/audio/wordpool/CLIMBER.wav", "conditions": [12, 800, "a", 24000], "internal_node_id": "0.0-92.0", "trial": 3, "time_elapsed": 486635, "serialpos": 11, "key_press": -1, "wordID": 322, "type": "PRES_AUD", "trial_index": 128}, "uniqueid": "MTK1684:37C0GNLMHGATTZ8LNZ3GK3EFCSF6D5", "dateTime": 1516128647371}, {"current_trial": 129, "trialdata": {"rt": -1, "trial_type": "single-stim", "stimulus": "", "internal_node_id": "0.0-93.0-0.0", "time_elapsed": 488008, "key_press": -1, "type": "PRE_RECALL_DELAY", "trial_index": 129}, "uniqueid": "MTK1684:37C0GNLMHGATTZ8LNZ3GK3EFCSF6D5", "dateTime": 1516128648744}, {"current_trial": 130, "trialdata": {"rt": -1000, "trial_type": "single-audio", "stimulus": "/static/audio/400Hz.wav", "internal_node_id": "0.0-94.0", "time_elapsed": 488508, "key_press": -1, "type": "PRE_RECALL_ALERT", "trial_index": 130}, "uniqueid": "MTK1684:37C0GNLMHGATTZ8LNZ3GK3EFCSF6D5", "dateTime": 1516128649244}, {"current_trial": 131, "trialdata": {"rt": [1099, 3403, 4946, 6643, 7770, 10130, 21939], "recwords": ["rifle", "hiker", "possum", "snake", "climber", "jelly", "snake"], "key_times": [403, 475, 619, 658, 843, 923, 1099, 1308, 1371, 1562, 1602, 1650, 3403, 3626, 3699, 3810, 3938, 4026, 4219, 4946, 6163, 6274, 6347, 6443, 6522, 6643, 6834, 6906, 6970, 7090, 7147, 7211, 7290, 7770, 8322, 8437, 8523, 8683, 8763, 10130, 21531, 21602, 21714, 21770, 21842, 21939, 34291, 34790, 34824, 34857, 34889, 34923, 34955, 34989, 35022, 35054, 58644], "trial_type": "free-recall", "conditions": [12, 800, "a", 24000], "internal_node_id": "0.0-95.0-0.0", "key_presses": [20, 82, 73, 70, 76, 69, 13, 72, 73, 75, 69, 82, 13, 80, 79, 83, 83, 85, 77, 13, 83, 78, 65, 75, 69, 13, 67, 76, 73, 77, 66, 69, 82, 13, 74, 69, 76, 76, 89, 13, 83, 78, 65, 75, 69, 13, 17, 17, 17, 17, 17, 17, 17, 17, 17, 17, 18], "trial": 3, "time_elapsed": 548510, "type": "FREE_RECALL", "trial_index": 131}, "uniqueid": "MTK1684:37C0GNLMHGATTZ8LNZ3GK3EFCSF6D5", "dateTime": 1516128709247}, {"current_trial": 132, "trialdata": {"rt": 2169, "trial_type": "text", "internal_node_id": "0.0-96.0", "time_elapsed": 552680, "key_press": 32, "type": "INSTRUCTIONS", "trial_index": 132}, "uniqueid": "MTK1684:37C0GNLMHGATTZ8LNZ3GK3EFCSF6D5", "dateTime": 1516128713416}, {"current_trial": 133, "trialdata": {"rt": [2356, 3683, 5461, 7325, 9245, 10477, 13140, 14948, 17797, 20805, 22285, 23645], "trial_type": "math-distractor", "key_times": [2012, 2106, 2356, 3413, 3485, 3683, 4989, 5100, 5461, 7060, 7156, 7325, 8525, 8820, 9245, 10165, 10237, 10477, 12572, 12748, 13140, 14709, 14812, 14948, 17389, 17575, 17797, 19685, 20445, 20805, 22052, 22285, 23428, 23493, 23645], "responses": ["18", "19", "17", "13", "17", "18", "17", "13", "16", "15", "8", "19"], "num2": [8, 4, 1, 5, 7, 5, 5, 2, 8, 8, 1, 5, 2], "num3": [7, 6, 9, 6, 3, 5, 6, 3, 3, 1, 5, 9, 5], "conditions": [24, 800, "a", 24000], "internal_node_id": "0.0-97.0", "key_presses": [49, 56, 13, 49, 57, 13, 49, 55, 13, 49, 51, 13, 49, 55, 13, 49, 56, 13, 49, 55, 13, 49, 51, 13, 49, 54, 13, 49, 53, 13, 56, 13, 49, 57, 13], "trial": 4, "time_elapsed": 578700, "type": "DISTRACTOR", "trial_index": 133, "num1": [3, 9, 7, 2, 7, 8, 6, 8, 5, 6, 2, 5, 1]}, "uniqueid": "MTK1684:37C0GNLMHGATTZ8LNZ3GK3EFCSF6D5", "dateTime": 1516128739437}, {"current_trial": 134, "trialdata": {"rt": -1, "trial_type": "single-stim", "stimulus": "<p id=\"stim\">10</p>", "internal_node_id": "0.0-98.0-0.0", "time_elapsed": 581702, "key_press": -1, "trial_index": 134}, "uniqueid": "MTK1684:37C0GNLMHGATTZ8LNZ3GK3EFCSF6D5", "dateTime": 1516128742438}, {"current_trial": 135, "trialdata": {"rt": -1, "trial_type": "single-stim", "stimulus": "<p id=\"stim\">9</p>", "internal_node_id": "0.0-98.0-1.0", "time_elapsed": 582703, "key_press": -1, "trial_index": 135}, "uniqueid": "MTK1684:37C0GNLMHGATTZ8LNZ3GK3EFCSF6D5", "dateTime": 1516128743439}, {"current_trial": 136, "trialdata": {"rt": -1, "trial_type": "single-stim", "stimulus": "<p id=\"stim\">8</p>", "internal_node_id": "0.0-98.0-2.0", "time_elapsed": 583705, "key_press": -1, "trial_index": 136}, "uniqueid": "MTK1684:37C0GNLMHGATTZ8LNZ3GK3EFCSF6D5", "dateTime": 1516128744441}, {"current_trial": 137, "trialdata": {"rt": -1, "trial_type": "single-stim", "stimulus": "<p id=\"stim\">7</p>", "internal_node_id": "0.0-98.0-3.0", "time_elapsed": 584723, "key_press": -1, "trial_index": 137}, "uniqueid": "MTK1684:37C0GNLMHGATTZ8LNZ3GK3EFCSF6D5", "dateTime": 1516128745459}, {"current_trial": 138, "trialdata": {"rt": -1, "trial_type": "single-stim", "stimulus": "<p id=\"stim\">6</p>", "internal_node_id": "0.0-98.0-4.0", "time_elapsed": 585724, "key_press": -1, "trial_index": 138}, "uniqueid": "MTK1684:37C0GNLMHGATTZ8LNZ3GK3EFCSF6D5", "dateTime": 1516128746460}, {"current_trial": 139, "trialdata": {"rt": -1, "trial_type": "single-stim", "stimulus": "<p id=\"stim\">5</p>", "internal_node_id": "0.0-98.0-5.0", "time_elapsed": 586726, "key_press": -1, "trial_index": 139}, "uniqueid": "MTK1684:37C0GNLMHGATTZ8LNZ3GK3EFCSF6D5", "dateTime": 1516128747462}, {"current_trial": 140, "trialdata": {"rt": -1, "trial_type": "single-stim", "stimulus": "<p id=\"stim\">4</p>", "internal_node_id": "0.0-98.0-6.0", "time_elapsed": 587727, "key_press": -1, "trial_index": 140}, "uniqueid": "MTK1684:37C0GNLMHGATTZ8LNZ3GK3EFCSF6D5", "dateTime": 1516128748463}, {"current_trial": 141, "trialdata": {"rt": -1, "trial_type": "single-stim", "stimulus": "<p id=\"stim\">3</p>", "internal_node_id": "0.0-98.0-7.0", "time_elapsed": 588728, "key_press": -1, "trial_index": 141}, "uniqueid": "MTK1684:37C0GNLMHGATTZ8LNZ3GK3EFCSF6D5", "dateTime": 1516128749464}, {"current_trial": 142, "trialdata": {"rt": -1, "trial_type": "single-stim", "stimulus": "<p id=\"stim\">2</p>", "internal_node_id": "0.0-98.0-8.0", "time_elapsed": 589729, "key_press": -1, "trial_index": 142}, "uniqueid": "MTK1684:37C0GNLMHGATTZ8LNZ3GK3EFCSF6D5", "dateTime": 1516128750465}, {"current_trial": 143, "trialdata": {"rt": -1, "trial_type": "single-stim", "stimulus": "<p id=\"stim\">1</p>", "internal_node_id": "0.0-98.0-9.0", "time_elapsed": 590730, "key_press": -1, "trial_index": 143}, "uniqueid": "MTK1684:37C0GNLMHGATTZ8LNZ3GK3EFCSF6D5", "dateTime": 1516128751466}, {"current_trial": 144, "trialdata": {"rt": -1, "trial_type": "single-stim", "stimulus": "<p id=\"stim\">+</p>", "internal_node_id": "0.0-99.0-0.0", "time_elapsed": 592232, "key_press": -1, "type": "FIXATION", "trial_index": 144}, "uniqueid": "MTK1684:37C0GNLMHGATTZ8LNZ3GK3EFCSF6D5", "dateTime": 1516128752968}, {"current_trial": 145, "trialdata": {"rt": -1000, "trial_type": "single-audio", "word": "tribe", "stimulus": "/static/audio/wordpool/TRIBE.wav", "conditions": [24, 800, "a", 24000], "internal_node_id": "0.0-100.0", "trial": 4, "time_elapsed": 593898, "serialpos": 0, "key_press": -1, "wordID": 1504, "type": "PRES_AUD", "trial_index": 145}, "uniqueid": "MTK1684:37C0GNLMHGATTZ8LNZ3GK3EFCSF6D5", "dateTime": 1516128754635}, {"current_trial": 146, "trialdata": {"rt": -1000, "trial_type": "single-audio", "word": "flute", "stimulus": "/static/audio/wordpool/FLUTE.wav", "conditions": [24, 800, "a", 24000], "internal_node_id": "0.0-101.0", "trial": 4, "time_elapsed": 595780, "serialpos": 1, "key_press": -1, "wordID": 584, "type": "PRES_AUD", "trial_index": 146}, "uniqueid": "MTK1684:37C0GNLMHGATTZ8LNZ3GK3EFCSF6D5", "dateTime": 1516128756516}, {"current_trial": 147, "trialdata": {"rt": -1000, "trial_type": "single-audio", "word": "valley", "stimulus": "/static/audio/wordpool/VALLEY.wav", "conditions": [24, 800, "a", 24000], "internal_node_id": "0.0-102.0", "trial": 4, "time_elapsed": 597621, "serialpos": 2, "key_press": -1, "wordID": 1544, "type": "PRES_AUD", "trial_index": 147}, "uniqueid": "MTK1684:37C0GNLMHGATTZ8LNZ3GK3EFCSF6D5", "dateTime": 1516128758358}, {"current_trial": 148, "trialdata": {"rt": -1000, "trial_type": "single-audio", "word": "mustard", "stimulus": "/static/audio/wordpool/MUSTARD.wav", "conditions": [24, 800, "a", 24000], "internal_node_id": "0.0-103.0", "trial": 4, "time_elapsed": 599265, "serialpos": 3, "key_press": -1, "wordID": 934, "type": "PRES_AUD", "trial_index": 148}, "uniqueid": "MTK1684:37C0GNLMHGATTZ8LNZ3GK3EFCSF6D5", "dateTime": 1516128760001}, {"current_trial": 149, "trialdata": {"rt": -1000, "trial_type": "single-audio", "word": "transplant", "stimulus": "/static/audio/wordpool/TRANSPLANT.wav", "conditions": [24, 800, "a", 24000], "internal_node_id": "0.0-104.0", "trial": 4, "time_elapsed": 601105, "serialpos": 4, "key_press": -1, "wordID": 1495, "type": "PRES_AUD", "trial_index": 149}, "uniqueid": "MTK1684:37C0GNLMHGATTZ8LNZ3GK3EFCSF6D5", "dateTime": 1516128761841}, {"current_trial": 150, "trialdata": {"rt": -1000, "trial_type": "single-audio", "word": "lizard", "stimulus": "/static/audio/wordpool/LIZARD.wav", "conditions": [24, 800, "a", 24000], "internal_node_id": "0.0-105.0", "trial": 4, "time_elapsed": 602933, "serialpos": 5, "key_press": -1, "wordID": 833, "type": "PRES_AUD", "trial_index": 150}, "uniqueid": "MTK1684:37C0GNLMHGATTZ8LNZ3GK3EFCSF6D5", "dateTime": 1516128763669}, {"current_trial": 151, "trialdata": {"rt": -1000, "trial_type": "single-audio", "word": "parrot", "stimulus": "/static/audio/wordpool/PARROT.wav", "conditions": [24, 800, "a", 24000], "internal_node_id": "0.0-106.0", "trial": 4, "time_elapsed": 604769, "serialpos": 6, "key_press": -1, "wordID": 1014, "type": "PRES_AUD", "trial_index": 151}, "uniqueid": "MTK1684:37C0GNLMHGATTZ8LNZ3GK3EFCSF6D5", "dateTime": 1516128765505}, {"current_trial": 152, "trialdata": {"rt": -1000, "trial_type": "single-audio", "word": "freckle", "stimulus": "/static/audio/wordpool/FRECKLE.wav", "conditions": [24, 800, "a", 24000], "internal_node_id": "0.0-107.0", "trial": 4, "time_elapsed": 606510, "serialpos": 7, "key_press": -1, "wordID": 601, "type": "PRES_AUD", "trial_index": 152}, "uniqueid": "MTK1684:37C0GNLMHGATTZ8LNZ3GK3EFCSF6D5", "dateTime": 1516128767246}, {"current_trial": 153, "trialdata": {"rt": -1000, "trial_type": "single-audio", "word": "kidney", "stimulus": "/static/audio/wordpool/KIDNEY.wav", "conditions": [24, 800, "a", 24000], "internal_node_id": "0.0-108.0", "trial": 4, "time_elapsed": 608448, "serialpos": 8, "key_press": -1, "wordID": 775, "type": "PRES_AUD", "trial_index": 153}, "uniqueid": "MTK1684:37C0GNLMHGATTZ8LNZ3GK3EFCSF6D5", "dateTime": 1516128769184}, {"current_trial": 154, "trialdata": {"rt": -1000, "trial_type": "single-audio", "word": "apple", "stimulus": "/static/audio/wordpool/APPLE.wav", "conditions": [24, 800, "a", 24000], "internal_node_id": "0.0-109.0", "trial": 4, "time_elapsed": 610272, "serialpos": 9, "key_press": -1, "wordID": 32, "type": "PRES_AUD", "trial_index": 154}, "uniqueid": "MTK1684:37C0GNLMHGATTZ8LNZ3GK3EFCSF6D5", "dateTime": 1516128771008}, {"current_trial": 155, "trialdata": {"rt": -1000, "trial_type": "single-audio", "word": "jungle", "stimulus": "/static/audio/wordpool/JUNGLE.wav", "conditions": [24, 800, "a", 24000], "internal_node_id": "0.0-110.0", "trial": 4, "time_elapsed": 612083, "serialpos": 10, "key_press": -1, "wordID": 763, "type": "PRES_AUD", "trial_index": 155}, "uniqueid": "MTK1684:37C0GNLMHGATTZ8LNZ3GK3EFCSF6D5", "dateTime": 1516128772819}, {"current_trial": 156, "trialdata": {"rt": -1000, "trial_type": "single-audio", "word": "lumber", "stimulus": "/static/audio/wordpool/LUMBER.wav", "conditions": [24, 800, "a", 24000], "internal_node_id": "0.0-111.0", "trial": 4, "time_elapsed": 613914, "serialpos": 11, "key_press": -1, "wordID": 847, "type": "PRES_AUD", "trial_index": 156}, "uniqueid": "MTK1684:37C0GNLMHGATTZ8LNZ3GK3EFCSF6D5", "dateTime": 1516128774652}, {"current_trial": 157, "trialdata": {"rt": -1000, "trial_type": "single-audio", "word": "proton", "stimulus": "/static/audio/wordpool/PROTON.wav", "conditions": [24, 800, "a", 24000], "internal_node_id": "0.0-112.0", "trial": 4, "time_elapsed": 615896, "serialpos": 12, "key_press": -1, "wordID": 1131, "type": "PRES_AUD", "trial_index": 157}, "uniqueid": "MTK1684:37C0GNLMHGATTZ8LNZ3GK3EFCSF6D5", "dateTime": 1516128776632}, {"current_trial": 158, "trialdata": {"rt": -1000, "trial_type": "single-audio", "word": "mars", "stimulus": "/static/audio/wordpool/MARS.wav", "conditions": [24, 800, "a", 24000], "internal_node_id": "0.0-113.0", "trial": 4, "time_elapsed": 617667, "serialpos": 13, "key_press": -1, "wordID": 872, "type": "PRES_AUD", "trial_index": 158}, "uniqueid": "MTK1684:37C0GNLMHGATTZ8LNZ3GK3EFCSF6D5", "dateTime": 1516128778403}, {"current_trial": 159, "trialdata": {"rt": -1000, "trial_type": "single-audio", "word": "wrench", "stimulus": "/static/audio/wordpool/WRENCH.wav", "conditions": [24, 800, "a", 24000], "internal_node_id": "0.0-114.0", "trial": 4, "time_elapsed": 619348, "serialpos": 14, "key_press": -1, "wordID": 1624, "type": "PRES_AUD", "trial_index": 159}, "uniqueid": "MTK1684:37C0GNLMHGATTZ8LNZ3GK3EFCSF6D5", "dateTime": 1516128780084}, {"current_trial": 160, "trialdata": {"rt": -1000, "trial_type": "single-audio", "word": "pudding", "stimulus": "/static/audio/wordpool/PUDDING.wav", "conditions": [24, 800, "a", 24000], "internal_node_id": "0.0-115.0", "trial": 4, "time_elapsed": 621082, "serialpos": 15, "key_press": -1, "wordID": 1138, "type": "PRES_AUD", "trial_index": 160}, "uniqueid": "MTK1684:37C0GNLMHGATTZ8LNZ3GK3EFCSF6D5", "dateTime": 1516128781818}, {"current_trial": 161, "trialdata": {"rt": -1000, "trial_type": "single-audio", "word": "custard", "stimulus": "/static/audio/wordpool/CUSTARD.wav", "conditions": [24, 800, "a", 24000], "internal_node_id": "0.0-116.0", "trial": 4, "time_elapsed": 622724, "serialpos": 16, "key_press": -1, "wordID": 428, "type": "PRES_AUD", "trial_index": 161}, "uniqueid": "MTK1684:37C0GNLMHGATTZ8LNZ3GK3EFCSF6D5", "dateTime": 1516128783460}, {"current_trial": 162, "trialdata": {"rt": -1000, "trial_type": "single-audio", "word": "rod", "stimulus": "/static/audio/wordpool/ROD.wav", "conditions": [24, 800, "a", 24000], "internal_node_id": "0.0-117.0", "trial": 4, "time_elapsed": 624469, "serialpos": 17, "key_press": -1, "wordID": 1202, "type": "PRES_AUD", "trial_index": 162}, "uniqueid": "MTK1684:37C0GNLMHGATTZ8LNZ3GK3EFCSF6D5", "dateTime": 1516128785205}, {"current_trial": 163, "trialdata": {"rt": -1000, "trial_type": "single-audio", "word": "baby", "stimulus": "/static/audio/wordpool/BABY.wav", "conditions": [24, 800, "a", 24000], "internal_node_id": "0.0-118.0", "trial": 4, "time_elapsed": 626144, "serialpos": 18, "key_press": -1, "wordID": 63, "type": "PRES_AUD", "trial_index": 163}, "uniqueid": "MTK1684:37C0GNLMHGATTZ8LNZ3GK3EFCSF6D5", "dateTime": 1516128786881}, {"current_trial": 164, "trialdata": {"rt": -1000, "trial_type": "single-audio", "word": "virus", "stimulus": "/static/audio/wordpool/VIRUS.wav", "conditions": [24, 800, "a", 24000], "internal_node_id": "0.0-119.0", "trial": 4, "time_elapsed": 628052, "serialpos": 19, "key_press": -1, "wordID": 1571, "type": "PRES_AUD", "trial_index": 164}, "uniqueid": "MTK1684:37C0GNLMHGATTZ8LNZ3GK3EFCSF6D5", "dateTime": 1516128788789}, {"current_trial": 165, "trialdata": {"rt": -1000, "trial_type": "single-audio", "word": "rust", "stimulus": "/static/audio/wordpool/RUST.wav", "conditions": [24, 800, "a", 24000], "internal_node_id": "0.0-120.0", "trial": 4, "time_elapsed": 629803, "serialpos": 20, "key_press": -1, "wordID": 1218, "type": "PRES_AUD", "trial_index": 165}, "uniqueid": "MTK1684:37C0GNLMHGATTZ8LNZ3GK3EFCSF6D5", "dateTime": 1516128790539}, {"current_trial": 166, "trialdata": {"rt": -1000, "trial_type": "single-audio", "word": "puppy", "stimulus": "/static/audio/wordpool/PUPPY.wav", "conditions": [24, 800, "a", 24000], "internal_node_id": "0.0-121.0", "trial": 4, "time_elapsed": 631624, "serialpos": 21, "key_press": -1, "wordID": 1143, "type": "PRES_AUD", "trial_index": 166}, "uniqueid": "MTK1684:37C0GNLMHGATTZ8LNZ3GK3EFCSF6D5", "dateTime": 1516128792360}, {"current_trial": 167, "trialdata": {"rt": -1000, "trial_type": "single-audio", "word": "wagon", "stimulus": "/static/audio/wordpool/WAGON.wav", "conditions": [24, 800, "a", 24000], "internal_node_id": "0.0-122.0", "trial": 4, "time_elapsed": 633380, "serialpos": 22, "key_press": -1, "wordID": 1577, "type": "PRES_AUD", "trial_index": 167}, "uniqueid": "MTK1684:37C0GNLMHGATTZ8LNZ3GK3EFCSF6D5", "dateTime": 1516128794116}, {"current_trial": 168, "trialdata": {"rt": -1000, "trial_type": "single-audio", "word": "washer", "stimulus": "/static/audio/wordpool/WASHER.wav", "conditions": [24, 800, "a", 24000], "internal_node_id": "0.0-123.0", "trial": 4, "time_elapsed": 635017, "serialpos": 23, "key_press": -1, "wordID": 1591, "type": "PRES_AUD", "trial_index": 168}, "uniqueid": "MTK1684:37C0GNLMHGATTZ8LNZ3GK3EFCSF6D5", "dateTime": 1516128795753}, {"current_trial": 169, "trialdata": {"rt": -1, "trial_type": "single-stim", "stimulus": "", "internal_node_id": "0.0-124.0-0.0", "time_elapsed": 636355, "key_press": -1, "type": "PRE_RECALL_DELAY", "trial_index": 169}, "uniqueid": "MTK1684:37C0GNLMHGATTZ8LNZ3GK3EFCSF6D5", "dateTime": 1516128797091}, {"current_trial": 170, "trialdata": {"rt": -1000, "trial_type": "single-audio", "stimulus": "/static/audio/400Hz.wav", "internal_node_id": "0.0-125.0", "time_elapsed": 636856, "key_press": -1, "type": "PRE_RECALL_ALERT", "trial_index": 170}, "uniqueid": "MTK1684:37C0GNLMHGATTZ8LNZ3GK3EFCSF6D5", "dateTime": 1516128797592}], "currenttrial": 171, "condition": 1, "mode": "live"}