{"condition": 0, "counterbalance": 319, "assignmentId": "32SCWG5HIIB2IWBBS8UBKXV4NI76PJ", "workerId": "MTK1280", "hitId": "3E9ZFLPWOYZLX5A9QY8FMTBSJPWIX6", "currenttrial": 115, "bonus": 0, "data": [{"uniqueid": "MTK1280:32SCWG5HIIB2IWBBS8UBKXV4NI76PJ", "current_trial": 0, "dateTime": 1513536384503, "trialdata": {"rt": 38030, "key_press": 32, "type": "INSTRUCTIONS", "trial_type": "text", "trial_index": 0, "time_elapsed": 38033, "internal_node_id": "0.0-0.0"}}, {"uniqueid": "MTK1280:32SCWG5HIIB2IWBBS8UBKXV4NI76PJ", "current_trial": 1, "dateTime": 1513536407833, "trialdata": {"rt": 23323, "key_press": 32, "type": "INSTRUCTIONS", "trial_type": "text", "trial_index": 1, "time_elapsed": 61364, "internal_node_id": "0.0-1.0"}}, {"uniqueid": "MTK1280:32SCWG5HIIB2IWBBS8UBKXV4NI76PJ", "current_trial": 2, "dateTime": 1513536425774, "trialdata": {"rt": [10599, 17766], "responses": ["ocian", "ocean"], "type": "AUDIO_TEST", "trial_type": "audio-test", "trial_index": 2, "time_elapsed": 79307, "internal_node_id": "0.0-2.0"}}, {"uniqueid": "MTK1280:32SCWG5HIIB2IWBBS8UBKXV4NI76PJ", "current_trial": 3, "dateTime": 1513536556780, "trialdata": {"rt": [10208, 15479, 42195, 61594, 66338, 71573, 75065, 92293, 130976], "responses": ["cristall", "cristal", "cristal", "creestal", "cristall", "creastal", "kristal", "kristall", "crystal"], "type": "AUDIO_TEST", "trial_type": "audio-test", "trial_index": 3, "time_elapsed": 210312, "internal_node_id": "0.0-3.0"}}, {"uniqueid": "MTK1280:32SCWG5HIIB2IWBBS8UBKXV4NI76PJ", "current_trial": 4, "dateTime": 1513536570528, "trialdata": {"rt": [13717], "responses": ["spice"], "type": "AUDIO_TEST", "trial_type": "audio-test", "trial_index": 4, "time_elapsed": 224060, "internal_node_id": "0.0-4.0"}}, {"uniqueid": "MTK1280:32SCWG5HIIB2IWBBS8UBKXV4NI76PJ", "current_trial": 5, "dateTime": 1513536609406, "trialdata": {"rt": 38115, "responses": "{\"Q0\":\"10\",\"Q1\":\"8\",\"Q2\":\"4\"}", "type": "SLEEP_SURVEY", "trial_type": "survey-text", "trial_index": 5, "time_elapsed": 262938, "internal_node_id": "0.0-5.0"}}, {"uniqueid": "MTK1280:32SCWG5HIIB2IWBBS8UBKXV4NI76PJ", "current_trial": 6, "dateTime": 1513536668033, "trialdata": {"rt": 57619, "key_press": 32, "type": "INSTRUCTIONS", "trial_type": "text", "trial_index": 6, "time_elapsed": 321565, "internal_node_id": "0.0-6.0"}}, {"uniqueid": "MTK1280:32SCWG5HIIB2IWBBS8UBKXV4NI76PJ", "current_trial": 7, "dateTime": 1513536693137, "trialdata": {"rt": 24590, "key_press": 32, "type": "INSTRUCTIONS", "trial_type": "text", "trial_index": 7, "time_elapsed": 346669, "internal_node_id": "0.0-7.0"}}, {"uniqueid": "MTK1280:32SCWG5HIIB2IWBBS8UBKXV4NI76PJ", "current_trial": 8, "dateTime": 1513536719603, "trialdata": {"rt": 25961, "key_press": 32, "type": "INSTRUCTIONS", "trial_type": "text", "trial_index": 8, "time_elapsed": 373135, "internal_node_id": "0.0-8.0"}}, {"uniqueid": "MTK1280:32SCWG5HIIB2IWBBS8UBKXV4NI76PJ", "current_trial": 9, "dateTime": 1513536738624, "trialdata": {"rt": [13075, 16430], "responses": ["17   ", "8"], "num1": [6, 1, 9], "num2": [8, 3, 7], "num3": [3, 4, 5], "type": "DISTRACTOR", "conditions": [18, 1200, "a", 18000], "trial": 0, "trial_type": "math-distractor", "trial_index": 9, "time_elapsed": 392156, "internal_node_id": "0.0-9.0"}}, {"uniqueid": "MTK1280:32SCWG5HIIB2IWBBS8UBKXV4NI76PJ", "current_trial": 10, "dateTime": 1513536741632, "trialdata": {"rt": -1, "stimulus": "<p id=\"stim\">10</p>", "key_press": -1, "trial_type": "single-stim", "trial_index": 10, "time_elapsed": 395164, "internal_node_id": "0.0-10.0-0.0"}}, {"uniqueid": "MTK1280:32SCWG5HIIB2IWBBS8UBKXV4NI76PJ", "current_trial": 11, "dateTime": 1513536742635, "trialdata": {"rt": -1, "stimulus": "<p id=\"stim\">9</p>", "key_press": -1, "trial_type": "single-stim", "trial_index": 11, "time_elapsed": 396168, "internal_node_id": "0.0-10.0-1.0"}}, {"uniqueid": "MTK1280:32SCWG5HIIB2IWBBS8UBKXV4NI76PJ", "current_trial": 12, "dateTime": 1513536743638, "trialdata": {"rt": -1, "stimulus": "<p id=\"stim\">8</p>", "key_press": -1, "trial_type": "single-stim", "trial_index": 12, "time_elapsed": 397171, "internal_node_id": "0.0-10.0-2.0"}}, {"uniqueid": "MTK1280:32SCWG5HIIB2IWBBS8UBKXV4NI76PJ", "current_trial": 13, "dateTime": 1513536744642, "trialdata": {"rt": -1, "stimulus": "<p id=\"stim\">7</p>", "key_press": -1, "trial_type": "single-stim", "trial_index": 13, "time_elapsed": 398174, "internal_node_id": "0.0-10.0-3.0"}}, {"uniqueid": "MTK1280:32SCWG5HIIB2IWBBS8UBKXV4NI76PJ", "current_trial": 14, "dateTime": 1513536745645, "trialdata": {"rt": -1, "stimulus": "<p id=\"stim\">6</p>", "key_press": -1, "trial_type": "single-stim", "trial_index": 14, "time_elapsed": 399177, "internal_node_id": "0.0-10.0-4.0"}}, {"uniqueid": "MTK1280:32SCWG5HIIB2IWBBS8UBKXV4NI76PJ", "current_trial": 15, "dateTime": 1513536746647, "trialdata": {"rt": -1, "stimulus": "<p id=\"stim\">5</p>", "key_press": -1, "trial_type": "single-stim", "trial_index": 15, "time_elapsed": 400180, "internal_node_id": "0.0-10.0-5.0"}}, {"uniqueid": "MTK1280:32SCWG5HIIB2IWBBS8UBKXV4NI76PJ", "current_trial": 16, "dateTime": 1513536747653, "trialdata": {"rt": -1, "stimulus": "<p id=\"stim\">4</p>", "key_press": -1, "trial_type": "single-stim", "trial_index": 16, "time_elapsed": 401184, "internal_node_id": "0.0-10.0-6.0"}}, {"uniqueid": "MTK1280:32SCWG5HIIB2IWBBS8UBKXV4NI76PJ", "current_trial": 17, "dateTime": 1513536748656, "trialdata": {"rt": -1, "stimulus": "<p id=\"stim\">3</p>", "key_press": -1, "trial_type": "single-stim", "trial_index": 17, "time_elapsed": 402188, "internal_node_id": "0.0-10.0-7.0"}}, {"uniqueid": "MTK1280:32SCWG5HIIB2IWBBS8UBKXV4NI76PJ", "current_trial": 18, "dateTime": 1513536749658, "trialdata": {"rt": -1, "stimulus": "<p id=\"stim\">2</p>", "key_press": -1, "trial_type": "single-stim", "trial_index": 18, "time_elapsed": 403191, "internal_node_id": "0.0-10.0-8.0"}}, {"uniqueid": "MTK1280:32SCWG5HIIB2IWBBS8UBKXV4NI76PJ", "current_trial": 19, "dateTime": 1513536750660, "trialdata": {"rt": -1, "stimulus": "<p id=\"stim\">1</p>", "key_press": -1, "trial_type": "single-stim", "trial_index": 19, "time_elapsed": 404193, "internal_node_id": "0.0-10.0-9.0"}}, {"uniqueid": "MTK1280:32SCWG5HIIB2IWBBS8UBKXV4NI76PJ", "current_trial": 20, "dateTime": 1513536752164, "trialdata": {"rt": -1, "stimulus": "<p id=\"stim\">+</p>", "key_press": -1, "type": "FIXATION", "trial_type": "single-stim", "trial_index": 20, "time_elapsed": 405697, "internal_node_id": "0.0-11.0-0.0"}}, {"uniqueid": "MTK1280:32SCWG5HIIB2IWBBS8UBKXV4NI76PJ", "current_trial": 21, "dateTime": 1513536754439, "trialdata": {"rt": -1000, "stimulus": "/static/audio/wordpool/NOTEBOOK.wav", "key_press": -1, "type": "PRES_AUD", "word": "notebook", "wordID": 958, "conditions": [18, 1200, "a", 18000], "trial": 0, "serialpos": 0, "trial_type": "single-audio", "trial_index": 21, "time_elapsed": 407971, "internal_node_id": "0.0-12.0"}}, {"uniqueid": "MTK1280:32SCWG5HIIB2IWBBS8UBKXV4NI76PJ", "current_trial": 22, "dateTime": 1513536756676, "trialdata": {"rt": -1000, "stimulus": "/static/audio/wordpool/COSTUME.wav", "key_press": -1, "type": "PRES_AUD", "word": "costume", "wordID": 382, "conditions": [18, 1200, "a", 18000], "trial": 0, "serialpos": 1, "trial_type": "single-audio", "trial_index": 22, "time_elapsed": 410208, "internal_node_id": "0.0-13.0"}}, {"uniqueid": "MTK1280:32SCWG5HIIB2IWBBS8UBKXV4NI76PJ", "current_trial": 23, "dateTime": 1513536759045, "trialdata": {"rt": -1000, "stimulus": "/static/audio/wordpool/IGLOO.wav", "key_press": -1, "type": "PRES_AUD", "word": "igloo", "wordID": 733, "conditions": [18, 1200, "a", 18000], "trial": 0, "serialpos": 2, "trial_type": "single-audio", "trial_index": 23, "time_elapsed": 412577, "internal_node_id": "0.0-14.0"}}, {"uniqueid": "MTK1280:32SCWG5HIIB2IWBBS8UBKXV4NI76PJ", "current_trial": 24, "dateTime": 1513536761319, "trialdata": {"rt": -1000, "stimulus": "/static/audio/wordpool/RUST.wav", "key_press": -1, "type": "PRES_AUD", "word": "rust", "wordID": 1218, "conditions": [18, 1200, "a", 18000], "trial": 0, "serialpos": 3, "trial_type": "single-audio", "trial_index": 24, "time_elapsed": 414852, "internal_node_id": "0.0-15.0"}}, {"uniqueid": "MTK1280:32SCWG5HIIB2IWBBS8UBKXV4NI76PJ", "current_trial": 25, "dateTime": 1513536763581, "trialdata": {"rt": -1000, "stimulus": "/static/audio/wordpool/YARN.wav", "key_press": -1, "type": "PRES_AUD", "word": "yarn", "wordID": 1630, "conditions": [18, 1200, "a", 18000], "trial": 0, "serialpos": 4, "trial_type": "single-audio", "trial_index": 25, "time_elapsed": 417114, "internal_node_id": "0.0-16.0"}}, {"uniqueid": "MTK1280:32SCWG5HIIB2IWBBS8UBKXV4NI76PJ", "current_trial": 26, "dateTime": 1513536765942, "trialdata": {"rt": -1000, "stimulus": "/static/audio/wordpool/ZEBRA.wav", "key_press": -1, "type": "PRES_AUD", "word": "zebra", "wordID": 1634, "conditions": [18, 1200, "a", 18000], "trial": 0, "serialpos": 5, "trial_type": "single-audio", "trial_index": 26, "time_elapsed": 419474, "internal_node_id": "0.0-17.0"}}, {"uniqueid": "MTK1280:32SCWG5HIIB2IWBBS8UBKXV4NI76PJ", "current_trial": 27, "dateTime": 1513536768003, "trialdata": {"rt": -1000, "stimulus": "/static/audio/wordpool/TOMBSTONE.wav", "key_press": -1, "type": "PRES_AUD", "word": "tombstone", "wordID": 1477, "conditions": [18, 1200, "a", 18000], "trial": 0, "serialpos": 6, "trial_type": "single-audio", "trial_index": 27, "time_elapsed": 421535, "internal_node_id": "0.0-18.0"}}, {"uniqueid": "MTK1280:32SCWG5HIIB2IWBBS8UBKXV4NI76PJ", "current_trial": 28, "dateTime": 1513536770077, "trialdata": {"rt": -1000, "stimulus": "/static/audio/wordpool/KETCHUP.wav", "key_press": -1, "type": "PRES_AUD", "word": "ketchup", "wordID": 770, "conditions": [18, 1200, "a", 18000], "trial": 0, "serialpos": 7, "trial_type": "single-audio", "trial_index": 28, "time_elapsed": 423609, "internal_node_id": "0.0-19.0"}}, {"uniqueid": "MTK1280:32SCWG5HIIB2IWBBS8UBKXV4NI76PJ", "current_trial": 29, "dateTime": 1513536772462, "trialdata": {"rt": -1000, "stimulus": "/static/audio/wordpool/MATCH.wav", "key_press": -1, "type": "PRES_AUD", "word": "match", "wordID": 877, "conditions": [18, 1200, "a", 18000], "trial": 0, "serialpos": 8, "trial_type": "single-audio", "trial_index": 29, "time_elapsed": 425994, "internal_node_id": "0.0-20.0"}}, {"uniqueid": "MTK1280:32SCWG5HIIB2IWBBS8UBKXV4NI76PJ", "current_trial": 30, "dateTime": 1513536774815, "trialdata": {"rt": -1000, "stimulus": "/static/audio/wordpool/SUSPECT.wav", "key_press": -1, "type": "PRES_AUD", "word": "suspect", "wordID": 1414, "conditions": [18, 1200, "a", 18000], "trial": 0, "serialpos": 9, "trial_type": "single-audio", "trial_index": 30, "time_elapsed": 428347, "internal_node_id": "0.0-21.0"}}, {"uniqueid": "MTK1280:32SCWG5HIIB2IWBBS8UBKXV4NI76PJ", "current_trial": 31, "dateTime": 1513536776891, "trialdata": {"rt": -1000, "stimulus": "/static/audio/wordpool/LILY.wav", "key_press": -1, "type": "PRES_AUD", "word": "lily", "wordID": 820, "conditions": [18, 1200, "a", 18000], "trial": 0, "serialpos": 10, "trial_type": "single-audio", "trial_index": 31, "time_elapsed": 430424, "internal_node_id": "0.0-22.0"}}, {"uniqueid": "MTK1280:32SCWG5HIIB2IWBBS8UBKXV4NI76PJ", "current_trial": 32, "dateTime": 1513536779025, "trialdata": {"rt": -1000, "stimulus": "/static/audio/wordpool/BABY.wav", "key_press": -1, "type": "PRES_AUD", "word": "baby", "wordID": 63, "conditions": [18, 1200, "a", 18000], "trial": 0, "serialpos": 11, "trial_type": "single-audio", "trial_index": 32, "time_elapsed": 432558, "internal_node_id": "0.0-23.0"}}, {"uniqueid": "MTK1280:32SCWG5HIIB2IWBBS8UBKXV4NI76PJ", "current_trial": 33, "dateTime": 1513536781054, "trialdata": {"rt": -1000, "stimulus": "/static/audio/wordpool/CIGAR.wav", "key_press": -1, "type": "PRES_AUD", "word": "cigar", "wordID": 307, "conditions": [18, 1200, "a", 18000], "trial": 0, "serialpos": 12, "trial_type": "single-audio", "trial_index": 33, "time_elapsed": 434587, "internal_node_id": "0.0-24.0"}}, {"uniqueid": "MTK1280:32SCWG5HIIB2IWBBS8UBKXV4NI76PJ", "current_trial": 34, "dateTime": 1513536783455, "trialdata": {"rt": -1000, "stimulus": "/static/audio/wordpool/OUTDOORS.wav", "key_press": -1, "type": "PRES_AUD", "word": "outdoors", "wordID": 986, "conditions": [18, 1200, "a", 18000], "trial": 0, "serialpos": 13, "trial_type": "single-audio", "trial_index": 34, "time_elapsed": 436988, "internal_node_id": "0.0-25.0"}}, {"uniqueid": "MTK1280:32SCWG5HIIB2IWBBS8UBKXV4NI76PJ", "current_trial": 35, "dateTime": 1513536785562, "trialdata": {"rt": -1000, "stimulus": "/static/audio/wordpool/MUFFIN.wav", "key_press": -1, "type": "PRES_AUD", "word": "muffin", "wordID": 928, "conditions": [18, 1200, "a", 18000], "trial": 0, "serialpos": 14, "trial_type": "single-audio", "trial_index": 35, "time_elapsed": 439095, "internal_node_id": "0.0-26.0"}}, {"uniqueid": "MTK1280:32SCWG5HIIB2IWBBS8UBKXV4NI76PJ", "current_trial": 36, "dateTime": 1513536787648, "trialdata": {"rt": -1000, "stimulus": "/static/audio/wordpool/MARROW.wav", "key_press": -1, "type": "PRES_AUD", "word": "marrow", "wordID": 871, "conditions": [18, 1200, "a", 18000], "trial": 0, "serialpos": 15, "trial_type": "single-audio", "trial_index": 36, "time_elapsed": 441181, "internal_node_id": "0.0-27.0"}}, {"uniqueid": "MTK1280:32SCWG5HIIB2IWBBS8UBKXV4NI76PJ", "current_trial": 37, "dateTime": 1513536789880, "trialdata": {"rt": -1000, "stimulus": "/static/audio/wordpool/MARKER.wav", "key_press": -1, "type": "PRES_AUD", "word": "marker", "wordID": 869, "conditions": [18, 1200, "a", 18000], "trial": 0, "serialpos": 16, "trial_type": "single-audio", "trial_index": 37, "time_elapsed": 443413, "internal_node_id": "0.0-28.0"}}, {"uniqueid": "MTK1280:32SCWG5HIIB2IWBBS8UBKXV4NI76PJ", "current_trial": 38, "dateTime": 1513536792070, "trialdata": {"rt": -1000, "stimulus": "/static/audio/wordpool/MESSAGE.wav", "key_press": -1, "type": "PRES_AUD", "word": "message", "wordID": 887, "conditions": [18, 1200, "a", 18000], "trial": 0, "serialpos": 17, "trial_type": "single-audio", "trial_index": 38, "time_elapsed": 445603, "internal_node_id": "0.0-29.0"}}, {"uniqueid": "MTK1280:32SCWG5HIIB2IWBBS8UBKXV4NI76PJ", "current_trial": 39, "dateTime": 1513536793389, "trialdata": {"rt": -1, "stimulus": "", "key_press": -1, "type": "PRE_RECALL_DELAY", "trial_type": "single-stim", "trial_index": 39, "time_elapsed": 446921, "internal_node_id": "0.0-30.0-0.0"}}, {"uniqueid": "MTK1280:32SCWG5HIIB2IWBBS8UBKXV4NI76PJ", "current_trial": 40, "dateTime": 1513536793891, "trialdata": {"rt": -1000, "stimulus": "/static/audio/400Hz.wav", "key_press": -1, "type": "PRE_RECALL_ALERT", "trial_type": "single-audio", "trial_index": 40, "time_elapsed": 447424, "internal_node_id": "0.0-31.0"}}, {"uniqueid": "MTK1280:32SCWG5HIIB2IWBBS8UBKXV4NI76PJ", "current_trial": 41, "dateTime": 1513536853935, "trialdata": {"rt": [3590, 3827, 10831, 18142], "recwords": ["zabra", "", "sigar", "lili"], "type": "FREE_RECALL", "conditions": [18, 1200, "a", 18000], "trial": 0, "trial_type": "free-recall", "trial_index": 41, "time_elapsed": 507445, "internal_node_id": "0.0-32.0-0.0"}}, {"uniqueid": "MTK1280:32SCWG5HIIB2IWBBS8UBKXV4NI76PJ", "current_trial": 42, "dateTime": 1513536870139, "trialdata": {"rt": 14201, "key_press": 32, "type": "INSTRUCTIONS", "trial_type": "text", "trial_index": 42, "time_elapsed": 523672, "internal_node_id": "0.0-33.0"}}, {"uniqueid": "MTK1280:32SCWG5HIIB2IWBBS8UBKXV4NI76PJ", "current_trial": 43, "dateTime": 1513536890158, "trialdata": {"rt": [5807, 8129, 10840, 17862], "responses": ["13", "9", "12", "19"], "num1": [4, 6, 8, 7, 9], "num2": [8, 2, 2, 3, 3], "num3": [1, 1, 2, 9, 2], "type": "DISTRACTOR", "conditions": [18, 1200, "v", 18000], "trial": 1, "trial_type": "math-distractor", "trial_index": 43, "time_elapsed": 543690, "internal_node_id": "0.0-34.0"}}, {"uniqueid": "MTK1280:32SCWG5HIIB2IWBBS8UBKXV4NI76PJ", "current_trial": 44, "dateTime": 1513536893161, "trialdata": {"rt": -1, "stimulus": "<p id=\"stim\">10</p>", "key_press": -1, "trial_type": "single-stim", "trial_index": 44, "time_elapsed": 546693, "internal_node_id": "0.0-35.0-0.0"}}, {"uniqueid": "MTK1280:32SCWG5HIIB2IWBBS8UBKXV4NI76PJ", "current_trial": 45, "dateTime": 1513536894162, "trialdata": {"rt": -1, "stimulus": "<p id=\"stim\">9</p>", "key_press": -1, "trial_type": "single-stim", "trial_index": 45, "time_elapsed": 547695, "internal_node_id": "0.0-35.0-1.0"}}, {"uniqueid": "MTK1280:32SCWG5HIIB2IWBBS8UBKXV4NI76PJ", "current_trial": 46, "dateTime": 1513536895165, "trialdata": {"rt": -1, "stimulus": "<p id=\"stim\">8</p>", "key_press": -1, "trial_type": "single-stim", "trial_index": 46, "time_elapsed": 548698, "internal_node_id": "0.0-35.0-2.0"}}, {"uniqueid": "MTK1280:32SCWG5HIIB2IWBBS8UBKXV4NI76PJ", "current_trial": 47, "dateTime": 1513536896167, "trialdata": {"rt": -1, "stimulus": "<p id=\"stim\">7</p>", "key_press": -1, "trial_type": "single-stim", "trial_index": 47, "time_elapsed": 549699, "internal_node_id": "0.0-35.0-3.0"}}, {"uniqueid": "MTK1280:32SCWG5HIIB2IWBBS8UBKXV4NI76PJ", "current_trial": 48, "dateTime": 1513536897168, "trialdata": {"rt": -1, "stimulus": "<p id=\"stim\">6</p>", "key_press": -1, "trial_type": "single-stim", "trial_index": 48, "time_elapsed": 550701, "internal_node_id": "0.0-35.0-4.0"}}, {"uniqueid": "MTK1280:32SCWG5HIIB2IWBBS8UBKXV4NI76PJ", "current_trial": 49, "dateTime": 1513536898171, "trialdata": {"rt": -1, "stimulus": "<p id=\"stim\">5</p>", "key_press": -1, "trial_type": "single-stim", "trial_index": 49, "time_elapsed": 551703, "internal_node_id": "0.0-35.0-5.0"}}, {"uniqueid": "MTK1280:32SCWG5HIIB2IWBBS8UBKXV4NI76PJ", "current_trial": 50, "dateTime": 1513536899174, "trialdata": {"rt": -1, "stimulus": "<p id=\"stim\">4</p>", "key_press": -1, "trial_type": "single-stim", "trial_index": 50, "time_elapsed": 552707, "internal_node_id": "0.0-35.0-6.0"}}, {"uniqueid": "MTK1280:32SCWG5HIIB2IWBBS8UBKXV4NI76PJ", "current_trial": 51, "dateTime": 1513536900176, "trialdata": {"rt": -1, "stimulus": "<p id=\"stim\">3</p>", "key_press": -1, "trial_type": "single-stim", "trial_index": 51, "time_elapsed": 553708, "internal_node_id": "0.0-35.0-7.0"}}, {"uniqueid": "MTK1280:32SCWG5HIIB2IWBBS8UBKXV4NI76PJ", "current_trial": 52, "dateTime": 1513536901177, "trialdata": {"rt": -1, "stimulus": "<p id=\"stim\">2</p>", "key_press": -1, "trial_type": "single-stim", "trial_index": 52, "time_elapsed": 554710, "internal_node_id": "0.0-35.0-8.0"}}, {"uniqueid": "MTK1280:32SCWG5HIIB2IWBBS8UBKXV4NI76PJ", "current_trial": 53, "dateTime": 1513536902180, "trialdata": {"rt": -1, "stimulus": "<p id=\"stim\">1</p>", "key_press": -1, "trial_type": "single-stim", "trial_index": 53, "time_elapsed": 555713, "internal_node_id": "0.0-35.0-9.0"}}, {"uniqueid": "MTK1280:32SCWG5HIIB2IWBBS8UBKXV4NI76PJ", "current_trial": 54, "dateTime": 1513536903683, "trialdata": {"rt": -1, "stimulus": "<p id=\"stim\">+</p>", "key_press": -1, "type": "FIXATION", "trial_type": "single-stim", "trial_index": 54, "time_elapsed": 557216, "internal_node_id": "0.0-36.0-0.0"}}, {"uniqueid": "MTK1280:32SCWG5HIIB2IWBBS8UBKXV4NI76PJ", "current_trial": 55, "dateTime": 1513536904885, "trialdata": {"rt": -1, "stimulus": "<p id=\"stim\">SPOUSE</p>", "key_press": -1, "type": "PRES_VIS", "word": "spouse", "wordID": 1357, "conditions": [18, 1200, "v", 18000], "trial": 1, "serialpos": 0, "trial_type": "single-stim", "trial_index": 55, "time_elapsed": 558418, "internal_node_id": "0.0-37.0"}}, {"uniqueid": "MTK1280:32SCWG5HIIB2IWBBS8UBKXV4NI76PJ", "current_trial": 56, "dateTime": 1513536907092, "trialdata": {"rt": -1, "stimulus": "<p id=\"stim\">LIGHTNING</p>", "key_press": -1, "type": "PRES_VIS", "word": "lightning", "wordID": 819, "conditions": [18, 1200, "v", 18000], "trial": 1, "serialpos": 1, "trial_type": "single-stim", "trial_index": 56, "time_elapsed": 560625, "internal_node_id": "0.0-38.0"}}, {"uniqueid": "MTK1280:32SCWG5HIIB2IWBBS8UBKXV4NI76PJ", "current_trial": 57, "dateTime": 1513536909350, "trialdata": {"rt": -1, "stimulus": "<p id=\"stim\">JUGGLER</p>", "key_press": -1, "type": "PRES_VIS", "word": "juggler", "wordID": 762, "conditions": [18, 1200, "v", 18000], "trial": 1, "serialpos": 2, "trial_type": "single-stim", "trial_index": 57, "time_elapsed": 562883, "internal_node_id": "0.0-39.0"}}, {"uniqueid": "MTK1280:32SCWG5HIIB2IWBBS8UBKXV4NI76PJ", "current_trial": 58, "dateTime": 1513536911504, "trialdata": {"rt": -1, "stimulus": "<p id=\"stim\">STALLION</p>", "key_press": -1, "type": "PRES_VIS", "word": "stallion", "wordID": 1368, "conditions": [18, 1200, "v", 18000], "trial": 1, "serialpos": 3, "trial_type": "single-stim", "trial_index": 58, "time_elapsed": 565037, "internal_node_id": "0.0-40.0"}}, {"uniqueid": "MTK1280:32SCWG5HIIB2IWBBS8UBKXV4NI76PJ", "current_trial": 59, "dateTime": 1513536913731, "trialdata": {"rt": -1, "stimulus": "<p id=\"stim\">LADY</p>", "key_press": -1, "type": "PRES_VIS", "word": "lady", "wordID": 793, "conditions": [18, 1200, "v", 18000], "trial": 1, "serialpos": 4, "trial_type": "single-stim", "trial_index": 59, "time_elapsed": 567263, "internal_node_id": "0.0-41.0"}}, {"uniqueid": "MTK1280:32SCWG5HIIB2IWBBS8UBKXV4NI76PJ", "current_trial": 60, "dateTime": 1513536915953, "trialdata": {"rt": -1, "stimulus": "<p id=\"stim\">DIVER</p>", "key_press": -1, "type": "PRES_VIS", "word": "diver", "wordID": 475, "conditions": [18, 1200, "v", 18000], "trial": 1, "serialpos": 5, "trial_type": "single-stim", "trial_index": 60, "time_elapsed": 569485, "internal_node_id": "0.0-42.0"}}, {"uniqueid": "MTK1280:32SCWG5HIIB2IWBBS8UBKXV4NI76PJ", "current_trial": 61, "dateTime": 1513536918141, "trialdata": {"rt": -1, "stimulus": "<p id=\"stim\">COTTAGE</p>", "key_press": -1, "type": "PRES_VIS", "word": "cottage", "wordID": 383, "conditions": [18, 1200, "v", 18000], "trial": 1, "serialpos": 6, "trial_type": "single-stim", "trial_index": 61, "time_elapsed": 571673, "internal_node_id": "0.0-43.0"}}, {"uniqueid": "MTK1280:32SCWG5HIIB2IWBBS8UBKXV4NI76PJ", "current_trial": 62, "dateTime": 1513536920143, "trialdata": {"rt": -1, "stimulus": "<p id=\"stim\">FOREST</p>", "key_press": -1, "type": "PRES_VIS", "word": "forest", "wordID": 592, "conditions": [18, 1200, "v", 18000], "trial": 1, "serialpos": 7, "trial_type": "single-stim", "trial_index": 62, "time_elapsed": 573676, "internal_node_id": "0.0-44.0"}}, {"uniqueid": "MTK1280:32SCWG5HIIB2IWBBS8UBKXV4NI76PJ", "current_trial": 63, "dateTime": 1513536922413, "trialdata": {"rt": -1, "stimulus": "<p id=\"stim\">COUSIN</p>", "key_press": -1, "type": "PRES_VIS", "word": "cousin", "wordID": 391, "conditions": [18, 1200, "v", 18000], "trial": 1, "serialpos": 8, "trial_type": "single-stim", "trial_index": 63, "time_elapsed": 575945, "internal_node_id": "0.0-45.0"}}, {"uniqueid": "MTK1280:32SCWG5HIIB2IWBBS8UBKXV4NI76PJ", "current_trial": 64, "dateTime": 1513536924607, "trialdata": {"rt": -1, "stimulus": "<p id=\"stim\">NAPKIN</p>", "key_press": -1, "type": "PRES_VIS", "word": "napkin", "wordID": 936, "conditions": [18, 1200, "v", 18000], "trial": 1, "serialpos": 9, "trial_type": "single-stim", "trial_index": 64, "time_elapsed": 578139, "internal_node_id": "0.0-46.0"}}, {"uniqueid": "MTK1280:32SCWG5HIIB2IWBBS8UBKXV4NI76PJ", "current_trial": 65, "dateTime": 1513536926948, "trialdata": {"rt": -1, "stimulus": "<p id=\"stim\">PADDING</p>", "key_press": -1, "type": "PRES_VIS", "word": "padding", "wordID": 998, "conditions": [18, 1200, "v", 18000], "trial": 1, "serialpos": 10, "trial_type": "single-stim", "trial_index": 65, "time_elapsed": 580480, "internal_node_id": "0.0-47.0"}}, {"uniqueid": "MTK1280:32SCWG5HIIB2IWBBS8UBKXV4NI76PJ", "current_trial": 66, "dateTime": 1513536929202, "trialdata": {"rt": -1, "stimulus": "<p id=\"stim\">CAFE</p>", "key_press": -1, "type": "PRES_VIS", "word": "cafe", "wordID": 215, "conditions": [18, 1200, "v", 18000], "trial": 1, "serialpos": 11, "trial_type": "single-stim", "trial_index": 66, "time_elapsed": 582735, "internal_node_id": "0.0-48.0"}}, {"uniqueid": "MTK1280:32SCWG5HIIB2IWBBS8UBKXV4NI76PJ", "current_trial": 67, "dateTime": 1513536931417, "trialdata": {"rt": -1, "stimulus": "<p id=\"stim\">POPCORN</p>", "key_press": -1, "type": "PRES_VIS", "word": "popcorn", "wordID": 1103, "conditions": [18, 1200, "v", 18000], "trial": 1, "serialpos": 12, "trial_type": "single-stim", "trial_index": 67, "time_elapsed": 584950, "internal_node_id": "0.0-49.0"}}, {"uniqueid": "MTK1280:32SCWG5HIIB2IWBBS8UBKXV4NI76PJ", "current_trial": 68, "dateTime": 1513536933599, "trialdata": {"rt": -1, "stimulus": "<p id=\"stim\">CASHEW</p>", "key_press": -1, "type": "PRES_VIS", "word": "cashew", "wordID": 252, "conditions": [18, 1200, "v", 18000], "trial": 1, "serialpos": 13, "trial_type": "single-stim", "trial_index": 68, "time_elapsed": 587132, "internal_node_id": "0.0-50.0"}}, {"uniqueid": "MTK1280:32SCWG5HIIB2IWBBS8UBKXV4NI76PJ", "current_trial": 69, "dateTime": 1513536935958, "trialdata": {"rt": -1, "stimulus": "<p id=\"stim\">HARP</p>", "key_press": -1, "type": "PRES_VIS", "word": "harp", "wordID": 688, "conditions": [18, 1200, "v", 18000], "trial": 1, "serialpos": 14, "trial_type": "single-stim", "trial_index": 69, "time_elapsed": 589491, "internal_node_id": "0.0-51.0"}}, {"uniqueid": "MTK1280:32SCWG5HIIB2IWBBS8UBKXV4NI76PJ", "current_trial": 70, "dateTime": 1513536938254, "trialdata": {"rt": -1, "stimulus": "<p id=\"stim\">TRACTOR</p>", "key_press": -1, "type": "PRES_VIS", "word": "tractor", "wordID": 1492, "conditions": [18, 1200, "v", 18000], "trial": 1, "serialpos": 15, "trial_type": "single-stim", "trial_index": 70, "time_elapsed": 591787, "internal_node_id": "0.0-52.0"}}, {"uniqueid": "MTK1280:32SCWG5HIIB2IWBBS8UBKXV4NI76PJ", "current_trial": 71, "dateTime": 1513536940503, "trialdata": {"rt": -1, "stimulus": "<p id=\"stim\">CANDY</p>", "key_press": -1, "type": "PRES_VIS", "word": "candy", "wordID": 229, "conditions": [18, 1200, "v", 18000], "trial": 1, "serialpos": 16, "trial_type": "single-stim", "trial_index": 71, "time_elapsed": 594036, "internal_node_id": "0.0-53.0"}}, {"uniqueid": "MTK1280:32SCWG5HIIB2IWBBS8UBKXV4NI76PJ", "current_trial": 72, "dateTime": 1513536942708, "trialdata": {"rt": -1, "stimulus": "<p id=\"stim\">CHAUFFEUR</p>", "key_press": -1, "type": "PRES_VIS", "word": "chauffeur", "wordID": 282, "conditions": [18, 1200, "v", 18000], "trial": 1, "serialpos": 17, "trial_type": "single-stim", "trial_index": 72, "time_elapsed": 596241, "internal_node_id": "0.0-54.0"}}, {"uniqueid": "MTK1280:32SCWG5HIIB2IWBBS8UBKXV4NI76PJ", "current_trial": 73, "dateTime": 1513536945061, "trialdata": {"rt": -1, "stimulus": "", "key_press": -1, "type": "PRE_RECALL_DELAY", "trial_type": "single-stim", "trial_index": 73, "time_elapsed": 598594, "internal_node_id": "0.0-55.0-0.0"}}, {"uniqueid": "MTK1280:32SCWG5HIIB2IWBBS8UBKXV4NI76PJ", "current_trial": 74, "dateTime": 1513536945563, "trialdata": {"rt": -1000, "stimulus": "/static/audio/400Hz.wav", "key_press": -1, "type": "PRE_RECALL_ALERT", "trial_type": "single-audio", "trial_index": 74, "time_elapsed": 599095, "internal_node_id": "0.0-56.0"}}, {"uniqueid": "MTK1280:32SCWG5HIIB2IWBBS8UBKXV4NI76PJ", "current_trial": 75, "dateTime": 1513537005585, "trialdata": {"rt": [3132, 5514, 8178, 14391, 22123], "recwords": ["cafe", "napkin", "lady", "husbend", "stadion"], "type": "FREE_RECALL", "conditions": [18, 1200, "v", 18000], "trial": 1, "trial_type": "free-recall", "trial_index": 75, "time_elapsed": 659108, "internal_node_id": "0.0-57.0-0.0"}}, {"uniqueid": "MTK1280:32SCWG5HIIB2IWBBS8UBKXV4NI76PJ", "current_trial": 76, "dateTime": 1513537029035, "trialdata": {"rt": 21434, "key_press": 32, "type": "INSTRUCTIONS", "trial_type": "text", "trial_index": 76, "time_elapsed": 682556, "internal_node_id": "0.0-58.0"}}, {"uniqueid": "MTK1280:32SCWG5HIIB2IWBBS8UBKXV4NI76PJ", "current_trial": 77, "dateTime": 1513537042057, "trialdata": {"rt": [4851, 8411], "responses": ["10 ", "10"], "num1": [6, 4, 5], "num2": [9, 2, 6], "num3": [2, 9, 7], "type": "DISTRACTOR", "conditions": [24, 1600, "a", 12000], "trial": 2, "trial_type": "math-distractor", "trial_index": 77, "time_elapsed": 695590, "internal_node_id": "0.0-59.0"}}, {"uniqueid": "MTK1280:32SCWG5HIIB2IWBBS8UBKXV4NI76PJ", "current_trial": 78, "dateTime": 1513537045063, "trialdata": {"rt": -1, "stimulus": "<p id=\"stim\">10</p>", "key_press": -1, "trial_type": "single-stim", "trial_index": 78, "time_elapsed": 698595, "internal_node_id": "0.0-60.0-0.0"}}, {"uniqueid": "MTK1280:32SCWG5HIIB2IWBBS8UBKXV4NI76PJ", "current_trial": 79, "dateTime": 1513537046069, "trialdata": {"rt": -1, "stimulus": "<p id=\"stim\">9</p>", "key_press": -1, "trial_type": "single-stim", "trial_index": 79, "time_elapsed": 699600, "internal_node_id": "0.0-60.0-1.0"}}, {"uniqueid": "MTK1280:32SCWG5HIIB2IWBBS8UBKXV4NI76PJ", "current_trial": 80, "dateTime": 1513537047072, "trialdata": {"rt": -1, "stimulus": "<p id=\"stim\">8</p>", "key_press": -1, "trial_type": "single-stim", "trial_index": 80, "time_elapsed": 700605, "internal_node_id": "0.0-60.0-2.0"}}, {"uniqueid": "MTK1280:32SCWG5HIIB2IWBBS8UBKXV4NI76PJ", "current_trial": 81, "dateTime": 1513537048076, "trialdata": {"rt": -1, "stimulus": "<p id=\"stim\">7</p>", "key_press": -1, "trial_type": "single-stim", "trial_index": 81, "time_elapsed": 701608, "internal_node_id": "0.0-60.0-3.0"}}, {"uniqueid": "MTK1280:32SCWG5HIIB2IWBBS8UBKXV4NI76PJ", "current_trial": 82, "dateTime": 1513537049079, "trialdata": {"rt": -1, "stimulus": "<p id=\"stim\">6</p>", "key_press": -1, "trial_type": "single-stim", "trial_index": 82, "time_elapsed": 702611, "internal_node_id": "0.0-60.0-4.0"}}, {"uniqueid": "MTK1280:32SCWG5HIIB2IWBBS8UBKXV4NI76PJ", "current_trial": 83, "dateTime": 1513537050081, "trialdata": {"rt": -1, "stimulus": "<p id=\"stim\">5</p>", "key_press": -1, "trial_type": "single-stim", "trial_index": 83, "time_elapsed": 703613, "internal_node_id": "0.0-60.0-5.0"}}, {"uniqueid": "MTK1280:32SCWG5HIIB2IWBBS8UBKXV4NI76PJ", "current_trial": 84, "dateTime": 1513537051084, "trialdata": {"rt": -1, "stimulus": "<p id=\"stim\">4</p>", "key_press": -1, "trial_type": "single-stim", "trial_index": 84, "time_elapsed": 704616, "internal_node_id": "0.0-60.0-6.0"}}, {"uniqueid": "MTK1280:32SCWG5HIIB2IWBBS8UBKXV4NI76PJ", "current_trial": 85, "dateTime": 1513537052088, "trialdata": {"rt": -1, "stimulus": "<p id=\"stim\">3</p>", "key_press": -1, "trial_type": "single-stim", "trial_index": 85, "time_elapsed": 705619, "internal_node_id": "0.0-60.0-7.0"}}, {"uniqueid": "MTK1280:32SCWG5HIIB2IWBBS8UBKXV4NI76PJ", "current_trial": 86, "dateTime": 1513537053090, "trialdata": {"rt": -1, "stimulus": "<p id=\"stim\">2</p>", "key_press": -1, "trial_type": "single-stim", "trial_index": 86, "time_elapsed": 706623, "internal_node_id": "0.0-60.0-8.0"}}, {"uniqueid": "MTK1280:32SCWG5HIIB2IWBBS8UBKXV4NI76PJ", "current_trial": 87, "dateTime": 1513537054092, "trialdata": {"rt": -1, "stimulus": "<p id=\"stim\">1</p>", "key_press": -1, "trial_type": "single-stim", "trial_index": 87, "time_elapsed": 707625, "internal_node_id": "0.0-60.0-9.0"}}, {"uniqueid": "MTK1280:32SCWG5HIIB2IWBBS8UBKXV4NI76PJ", "current_trial": 88, "dateTime": 1513537055596, "trialdata": {"rt": -1, "stimulus": "<p id=\"stim\">+</p>", "key_press": -1, "type": "FIXATION", "trial_type": "single-stim", "trial_index": 88, "time_elapsed": 709128, "internal_node_id": "0.0-61.0-0.0"}}, {"uniqueid": "MTK1280:32SCWG5HIIB2IWBBS8UBKXV4NI76PJ", "current_trial": 89, "dateTime": 1513537058389, "trialdata": {"rt": -1000, "stimulus": "/static/audio/wordpool/PARSLEY.wav", "key_press": -1, "type": "PRES_AUD", "word": "parsley", "wordID": 1015, "conditions": [24, 1600, "a", 12000], "trial": 2, "serialpos": 0, "trial_type": "single-audio", "trial_index": 89, "time_elapsed": 711921, "internal_node_id": "0.0-62.0"}}, {"uniqueid": "MTK1280:32SCWG5HIIB2IWBBS8UBKXV4NI76PJ", "current_trial": 90, "dateTime": 1513537060901, "trialdata": {"rt": -1000, "stimulus": "/static/audio/wordpool/TUNNEL.wav", "key_press": -1, "type": "PRES_AUD", "word": "tunnel", "wordID": 1518, "conditions": [24, 1600, "a", 12000], "trial": 2, "serialpos": 1, "trial_type": "single-audio", "trial_index": 90, "time_elapsed": 714433, "internal_node_id": "0.0-63.0"}}, {"uniqueid": "MTK1280:32SCWG5HIIB2IWBBS8UBKXV4NI76PJ", "current_trial": 91, "dateTime": 1513537063381, "trialdata": {"rt": -1000, "stimulus": "/static/audio/wordpool/KNAPSACK.wav", "key_press": -1, "type": "PRES_AUD", "word": "knapsack", "wordID": 782, "conditions": [24, 1600, "a", 12000], "trial": 2, "serialpos": 2, "trial_type": "single-audio", "trial_index": 91, "time_elapsed": 716913, "internal_node_id": "0.0-64.0"}}, {"uniqueid": "MTK1280:32SCWG5HIIB2IWBBS8UBKXV4NI76PJ", "current_trial": 92, "dateTime": 1513537065972, "trialdata": {"rt": -1000, "stimulus": "/static/audio/wordpool/PICNIC.wav", "key_press": -1, "type": "PRES_AUD", "word": "picnic", "wordID": 1059, "conditions": [24, 1600, "a", 12000], "trial": 2, "serialpos": 3, "trial_type": "single-audio", "trial_index": 92, "time_elapsed": 719503, "internal_node_id": "0.0-65.0"}}, {"uniqueid": "MTK1280:32SCWG5HIIB2IWBBS8UBKXV4NI76PJ", "current_trial": 93, "dateTime": 1513537068557, "trialdata": {"rt": -1000, "stimulus": "/static/audio/wordpool/ULCER.wav", "key_press": -1, "type": "PRES_AUD", "word": "ulcer", "wordID": 1532, "conditions": [24, 1600, "a", 12000], "trial": 2, "serialpos": 4, "trial_type": "single-audio", "trial_index": 93, "time_elapsed": 722088, "internal_node_id": "0.0-66.0"}}, {"uniqueid": "MTK1280:32SCWG5HIIB2IWBBS8UBKXV4NI76PJ", "current_trial": 94, "dateTime": 1513537071126, "trialdata": {"rt": -1000, "stimulus": "/static/audio/wordpool/CABBAGE.wav", "key_press": -1, "type": "PRES_AUD", "word": "cabbage", "wordID": 209, "conditions": [24, 1600, "a", 12000], "trial": 2, "serialpos": 5, "trial_type": "single-audio", "trial_index": 94, "time_elapsed": 724659, "internal_node_id": "0.0-67.0"}}, {"uniqueid": "MTK1280:32SCWG5HIIB2IWBBS8UBKXV4NI76PJ", "current_trial": 95, "dateTime": 1513537073807, "trialdata": {"rt": -1000, "stimulus": "/static/audio/wordpool/APRON.wav", "key_press": -1, "type": "PRES_AUD", "word": "apron", "wordID": 34, "conditions": [24, 1600, "a", 12000], "trial": 2, "serialpos": 6, "trial_type": "single-audio", "trial_index": 95, "time_elapsed": 727338, "internal_node_id": "0.0-68.0"}}, {"uniqueid": "MTK1280:32SCWG5HIIB2IWBBS8UBKXV4NI76PJ", "current_trial": 96, "dateTime": 1513537076514, "trialdata": {"rt": -1000, "stimulus": "/static/audio/wordpool/TILE.wav", "key_press": -1, "type": "PRES_AUD", "word": "tile", "wordID": 1467, "conditions": [24, 1600, "a", 12000], "trial": 2, "serialpos": 7, "trial_type": "single-audio", "trial_index": 96, "time_elapsed": 730046, "internal_node_id": "0.0-69.0"}}, {"uniqueid": "MTK1280:32SCWG5HIIB2IWBBS8UBKXV4NI76PJ", "current_trial": 97, "dateTime": 1513537079230, "trialdata": {"rt": -1000, "stimulus": "/static/audio/wordpool/RABBIT.wav", "key_press": -1, "type": "PRES_AUD", "word": "rabbit", "wordID": 1151, "conditions": [24, 1600, "a", 12000], "trial": 2, "serialpos": 8, "trial_type": "single-audio", "trial_index": 97, "time_elapsed": 732761, "internal_node_id": "0.0-70.0"}}, {"uniqueid": "MTK1280:32SCWG5HIIB2IWBBS8UBKXV4NI76PJ", "current_trial": 98, "dateTime": 1513537081890, "trialdata": {"rt": -1000, "stimulus": "/static/audio/wordpool/FOX.wav", "key_press": -1, "type": "PRES_AUD", "word": "fox", "wordID": 597, "conditions": [24, 1600, "a", 12000], "trial": 2, "serialpos": 9, "trial_type": "single-audio", "trial_index": 98, "time_elapsed": 735423, "internal_node_id": "0.0-71.0"}}, {"uniqueid": "MTK1280:32SCWG5HIIB2IWBBS8UBKXV4NI76PJ", "current_trial": 99, "dateTime": 1513537084529, "trialdata": {"rt": -1000, "stimulus": "/static/audio/wordpool/GRAPE.wav", "key_press": -1, "type": "PRES_AUD", "word": "grape", "wordID": 653, "conditions": [24, 1600, "a", 12000], "trial": 2, "serialpos": 10, "trial_type": "single-audio", "trial_index": 99, "time_elapsed": 738061, "internal_node_id": "0.0-72.0"}}, {"uniqueid": "MTK1280:32SCWG5HIIB2IWBBS8UBKXV4NI76PJ", "current_trial": 100, "dateTime": 1513537087033, "trialdata": {"rt": -1000, "stimulus": "/static/audio/wordpool/STREAM.wav", "key_press": -1, "type": "PRES_AUD", "word": "stream", "wordID": 1391, "conditions": [24, 1600, "a", 12000], "trial": 2, "serialpos": 11, "trial_type": "single-audio", "trial_index": 100, "time_elapsed": 740566, "internal_node_id": "0.0-73.0"}}, {"uniqueid": "MTK1280:32SCWG5HIIB2IWBBS8UBKXV4NI76PJ", "current_trial": 101, "dateTime": 1513537089771, "trialdata": {"rt": -1000, "stimulus": "/static/audio/wordpool/DONKEY.wav", "key_press": -1, "type": "PRES_AUD", "word": "donkey", "wordID": 483, "conditions": [24, 1600, "a", 12000], "trial": 2, "serialpos": 12, "trial_type": "single-audio", "trial_index": 101, "time_elapsed": 743304, "internal_node_id": "0.0-74.0"}}, {"uniqueid": "MTK1280:32SCWG5HIIB2IWBBS8UBKXV4NI76PJ", "current_trial": 102, "dateTime": 1513537092335, "trialdata": {"rt": -1000, "stimulus": "/static/audio/wordpool/ANKLE.wav", "key_press": -1, "type": "PRES_AUD", "word": "ankle", "wordID": 23, "conditions": [24, 1600, "a", 12000], "trial": 2, "serialpos": 13, "trial_type": "single-audio", "trial_index": 102, "time_elapsed": 745866, "internal_node_id": "0.0-75.0"}}, {"uniqueid": "MTK1280:32SCWG5HIIB2IWBBS8UBKXV4NI76PJ", "current_trial": 103, "dateTime": 1513537094852, "trialdata": {"rt": -1000, "stimulus": "/static/audio/wordpool/ELBOW.wav", "key_press": -1, "type": "PRES_AUD", "word": "elbow", "wordID": 519, "conditions": [24, 1600, "a", 12000], "trial": 2, "serialpos": 14, "trial_type": "single-audio", "trial_index": 103, "time_elapsed": 748385, "internal_node_id": "0.0-76.0"}}, {"uniqueid": "MTK1280:32SCWG5HIIB2IWBBS8UBKXV4NI76PJ", "current_trial": 104, "dateTime": 1513537097638, "trialdata": {"rt": -1000, "stimulus": "/static/audio/wordpool/BASEMENT.wav", "key_press": -1, "type": "PRES_AUD", "word": "basement", "wordID": 93, "conditions": [24, 1600, "a", 12000], "trial": 2, "serialpos": 15, "trial_type": "single-audio", "trial_index": 104, "time_elapsed": 751171, "internal_node_id": "0.0-77.0"}}, {"uniqueid": "MTK1280:32SCWG5HIIB2IWBBS8UBKXV4NI76PJ", "current_trial": 105, "dateTime": 1513537100277, "trialdata": {"rt": -1000, "stimulus": "/static/audio/wordpool/HANDBAG.wav", "key_press": -1, "type": "PRES_AUD", "word": "handbag", "wordID": 683, "conditions": [24, 1600, "a", 12000], "trial": 2, "serialpos": 16, "trial_type": "single-audio", "trial_index": 105, "time_elapsed": 753810, "internal_node_id": "0.0-78.0"}}, {"uniqueid": "MTK1280:32SCWG5HIIB2IWBBS8UBKXV4NI76PJ", "current_trial": 106, "dateTime": 1513537103070, "trialdata": {"rt": -1000, "stimulus": "/static/audio/wordpool/QUARTER.wav", "key_press": -1, "type": "PRES_AUD", "word": "quarter", "wordID": 1147, "conditions": [24, 1600, "a", 12000], "trial": 2, "serialpos": 17, "trial_type": "single-audio", "trial_index": 106, "time_elapsed": 756603, "internal_node_id": "0.0-79.0"}}, {"uniqueid": "MTK1280:32SCWG5HIIB2IWBBS8UBKXV4NI76PJ", "current_trial": 107, "dateTime": 1513537105555, "trialdata": {"rt": -1000, "stimulus": "/static/audio/wordpool/SLIDE.wav", "key_press": -1, "type": "PRES_AUD", "word": "slide", "wordID": 1325, "conditions": [24, 1600, "a", 12000], "trial": 2, "serialpos": 18, "trial_type": "single-audio", "trial_index": 107, "time_elapsed": 759088, "internal_node_id": "0.0-80.0"}}, {"uniqueid": "MTK1280:32SCWG5HIIB2IWBBS8UBKXV4NI76PJ", "current_trial": 108, "dateTime": 1513537108224, "trialdata": {"rt": -1000, "stimulus": "/static/audio/wordpool/BELLY.wav", "key_press": -1, "type": "PRES_AUD", "word": "belly", "wordID": 118, "conditions": [24, 1600, "a", 12000], "trial": 2, "serialpos": 19, "trial_type": "single-audio", "trial_index": 108, "time_elapsed": 761757, "internal_node_id": "0.0-81.0"}}, {"uniqueid": "MTK1280:32SCWG5HIIB2IWBBS8UBKXV4NI76PJ", "current_trial": 109, "dateTime": 1513537110631, "trialdata": {"rt": -1000, "stimulus": "/static/audio/wordpool/CAMEL.wav", "key_press": -1, "type": "PRES_AUD", "word": "camel", "wordID": 222, "conditions": [24, 1600, "a", 12000], "trial": 2, "serialpos": 20, "trial_type": "single-audio", "trial_index": 109, "time_elapsed": 764163, "internal_node_id": "0.0-82.0"}}, {"uniqueid": "MTK1280:32SCWG5HIIB2IWBBS8UBKXV4NI76PJ", "current_trial": 110, "dateTime": 1513537113432, "trialdata": {"rt": -1000, "stimulus": "/static/audio/wordpool/WINDOW.wav", "key_press": -1, "type": "PRES_AUD", "word": "window", "wordID": 1610, "conditions": [24, 1600, "a", 12000], "trial": 2, "serialpos": 21, "trial_type": "single-audio", "trial_index": 110, "time_elapsed": 766964, "internal_node_id": "0.0-83.0"}}, {"uniqueid": "MTK1280:32SCWG5HIIB2IWBBS8UBKXV4NI76PJ", "current_trial": 111, "dateTime": 1513537116184, "trialdata": {"rt": -1000, "stimulus": "/static/audio/wordpool/PLASTER.wav", "key_press": -1, "type": "PRES_AUD", "word": "plaster", "wordID": 1084, "conditions": [24, 1600, "a", 12000], "trial": 2, "serialpos": 22, "trial_type": "single-audio", "trial_index": 111, "time_elapsed": 769716, "internal_node_id": "0.0-84.0"}}, {"uniqueid": "MTK1280:32SCWG5HIIB2IWBBS8UBKXV4NI76PJ", "current_trial": 112, "dateTime": 1513537118966, "trialdata": {"rt": -1000, "stimulus": "/static/audio/wordpool/REPORT.wav", "key_press": -1, "type": "PRES_AUD", "word": "report", "wordID": 1183, "conditions": [24, 1600, "a", 12000], "trial": 2, "serialpos": 23, "trial_type": "single-audio", "trial_index": 112, "time_elapsed": 772499, "internal_node_id": "0.0-85.0"}}, {"uniqueid": "MTK1280:32SCWG5HIIB2IWBBS8UBKXV4NI76PJ", "current_trial": 113, "dateTime": 1513537120256, "trialdata": {"rt": -1, "stimulus": "", "key_press": -1, "type": "PRE_RECALL_DELAY", "trial_type": "single-stim", "trial_index": 113, "time_elapsed": 773789, "internal_node_id": "0.0-86.0-0.0"}}, {"uniqueid": "MTK1280:32SCWG5HIIB2IWBBS8UBKXV4NI76PJ", "current_trial": 114, "dateTime": 1513537120759, "trialdata": {"rt": -1000, "stimulus": "/static/audio/400Hz.wav", "key_press": -1, "type": "PRE_RECALL_ALERT", "trial_type": "single-audio", "trial_index": 114, "time_elapsed": 774292, "internal_node_id": "0.0-87.0"}}], "questiondata": {}, "eventdata": [{"eventtype": "initialized", "value": null, "timestamp": 1513536303682, "interval": 0}, {"eventtype": "window_resize", "value": [1366, 636], "timestamp": 1513536303683, "interval": 1}, {"eventtype": "focus", "value": "on", "timestamp": 1513536307529, "interval": 3846}, {"eventtype": "focus", "value": "off", "timestamp": 1513536309791, "interval": 2262}, {"eventtype": "focus", "value": "on", "timestamp": 1513536383477, "interval": 73686}, {"eventtype": "focus", "value": "off", "timestamp": 1513536421500, "interval": 38023}, {"eventtype": "focus", "value": "on", "timestamp": 1513536421503, "interval": 3}, {"eventtype": "focus", "value": "off", "timestamp": 1513536438564, "interval": 17061}, {"eventtype": "focus", "value": "on", "timestamp": 1513536438568, "interval": 4}, {"eventtype": "focus", "value": "off", "timestamp": 1513536447748, "interval": 9180}, {"eventtype": "focus", "value": "on", "timestamp": 1513536447752, "interval": 4}, {"eventtype": "focus", "value": "off", "timestamp": 1513536456443, "interval": 8691}, {"eventtype": "focus", "value": "on", "timestamp": 1513536465750, "interval": 9307}, {"eventtype": "focus", "value": "off", "timestamp": 1513536503303, "interval": 37553}, {"eventtype": "focus", "value": "on", "timestamp": 1513536514244, "interval": 10941}, {"eventtype": "focus", "value": "off", "timestamp": 1513536532722, "interval": 18478}, {"eventtype": "focus", "value": "on", "timestamp": 1513536553941, "interval": 21219}, {"eventtype": "focus", "value": "off", "timestamp": 1513536832132, "interval": 278191}, {"eventtype": "focus", "value": "on", "timestamp": 1513536834299, "interval": 2167}, {"eventtype": "focus", "value": "off", "timestamp": 1513536836194, "interval": 1895}, {"eventtype": "focus", "value": "on", "timestamp": 1513536842734, "interval": 6540}, {"eventtype": "focus", "value": "off", "timestamp": 1513536846090, "interval": 3356}, {"eventtype": "focus", "value": "on", "timestamp": 1513536866558, "interval": 20468}, {"eventtype": "focus", "value": "off", "timestamp": 1513536895129, "interval": 28571}, {"eventtype": "focus", "value": "on", "timestamp": 1513536901957, "interval": 6828}, {"eventtype": "focus", "value": "off", "timestamp": 1513536981777, "interval": 79820}, {"eventtype": "focus", "value": "on", "timestamp": 1513536987016, "interval": 5239}, {"eventtype": "focus", "value": "off", "timestamp": 1513536988218, "interval": 1202}, {"eventtype": "focus", "value": "on", "timestamp": 1513537024792, "interval": 36574}, {"eventtype": "focus", "value": "off", "timestamp": 1513537137656, "interval": 112864}, {"eventtype": "focus", "value": "on", "timestamp": 1513537149840, "interval": 12184}, {"eventtype": "focus", "value": "off", "timestamp": 1513537159411, "interval": 9571}], "useragent": "Mozilla/5.0 (Windows NT 6.1; WOW64; rv:56.0) Gecko/20100101 Firefox/56.0", "mode": "live", "status": "user data saved"}