{"assignmentId": "30BXRYBRP548ZUST0DZA9ISQS2DHWY", "workerId": "MTK1747", "questiondata": {"avail_screen_height": 860, "color_depth": 24, "screen_width": 1600, "pixel_depth": 24, "avail_screen_width": 1600, "screen_height": 900}, "bonus": 0, "hitId": "3UZUVSO3P72YNO9JG8GFQXX2KP1ME7", "counterbalance": 1185, "useragent": "Mozilla/5.0 (Windows NT 10.0; Win64; x64) AppleWebKit/537.36 (KHTML, like Gecko) Chrome/63.0.3239.132 Safari/537.36", "eventdata": [{"eventtype": "initialized", "interval": 0, "value": null, "timestamp": 1516294550934}, {"eventtype": "window_resize", "interval": 0, "value": [1600, 769], "timestamp": 1516294550934}, {"eventtype": "focus", "interval": 3877, "value": "off", "timestamp": 1516294554811}, {"eventtype": "focus", "interval": 2631, "value": "on", "timestamp": 1516294557442}, {"eventtype": "focus", "interval": 67176, "value": "off", "timestamp": 1516294624618}, {"eventtype": "focus", "interval": 4453, "value": "on", "timestamp": 1516294629071}, {"eventtype": "focus", "interval": 98633, "value": "off", "timestamp": 1516294727704}, {"eventtype": "focus", "interval": 9877, "value": "on", "timestamp": 1516294737581}, {"eventtype": "focus", "interval": 127388, "value": "off", "timestamp": 1516294864969}, {"eventtype": "focus", "interval": 7110, "value": "on", "timestamp": 1516294872079}, {"eventtype": "focus", "interval": 37141, "value": "off", "timestamp": 1516294909220}, {"eventtype": "focus", "interval": 7383, "value": "on", "timestamp": 1516294916603}], "data": [{"current_trial": 0, "trialdata": {"rt": 5466, "trial_type": "text", "internal_node_id": "0.0-0.0", "time_elapsed": 5469, "key_press": 32, "type": "INSTRUCTIONS", "trial_index": 0}, "uniqueid": "MTK1747:30BXRYBRP548ZUST0DZA9ISQS2DHWY", "dateTime": 1516294562379}, {"current_trial": 1, "trialdata": {"rt": 5426, "trial_type": "text", "internal_node_id": "0.0-1.0", "time_elapsed": 10898, "key_press": 32, "type": "INSTRUCTIONS", "trial_index": 1}, "uniqueid": "MTK1747:30BXRYBRP548ZUST0DZA9ISQS2DHWY", "dateTime": 1516294567806}, {"current_trial": 2, "trialdata": {"rt": [11751], "trial_type": "audio-test", "responses": ["ocean"], "internal_node_id": "0.0-2.0", "time_elapsed": 22666, "type": "AUDIO_TEST", "trial_index": 2}, "uniqueid": "MTK1747:30BXRYBRP548ZUST0DZA9ISQS2DHWY", "dateTime": 1516294579574}, {"current_trial": 3, "trialdata": {"rt": [5438], "trial_type": "audio-test", "responses": ["crystal"], "internal_node_id": "0.0-3.0", "time_elapsed": 28108, "type": "AUDIO_TEST", "trial_index": 3}, "uniqueid": "MTK1747:30BXRYBRP548ZUST0DZA9ISQS2DHWY", "dateTime": 1516294585016}, {"current_trial": 4, "trialdata": {"rt": [18525], "trial_type": "audio-test", "responses": ["spice"], "internal_node_id": "0.0-4.0", "time_elapsed": 46637, "type": "AUDIO_TEST", "trial_index": 4}, "uniqueid": "MTK1747:30BXRYBRP548ZUST0DZA9ISQS2DHWY", "dateTime": 1516294603545}, {"current_trial": 5, "trialdata": {"rt": 12210, "trial_type": "survey-text", "responses": "{\"Q0\":\"11pm\",\"Q1\":\"7am\",\"Q2\":\"3\"}", "internal_node_id": "0.0-5.0", "time_elapsed": 59602, "type": "SLEEP_SURVEY", "trial_index": 5}, "uniqueid": "MTK1747:30BXRYBRP548ZUST0DZA9ISQS2DHWY", "dateTime": 1516294616510}, {"current_trial": 6, "trialdata": {"rt": 13892, "trial_type": "text", "internal_node_id": "0.0-6.0", "time_elapsed": 74495, "key_press": 13, "type": "INSTRUCTIONS", "trial_index": 6}, "uniqueid": "MTK1747:30BXRYBRP548ZUST0DZA9ISQS2DHWY", "dateTime": 1516294631403}, {"current_trial": 7, "trialdata": {"rt": 6038, "trial_type": "text", "internal_node_id": "0.0-7.0", "time_elapsed": 81035, "key_press": 13, "type": "INSTRUCTIONS", "trial_index": 7}, "uniqueid": "MTK1747:30BXRYBRP548ZUST0DZA9ISQS2DHWY", "dateTime": 1516294637943}, {"current_trial": 8, "trialdata": {"rt": 23730, "trial_type": "text", "internal_node_id": "0.0-8.0", "time_elapsed": 105266, "key_press": 13, "type": "INSTRUCTIONS", "trial_index": 8}, "uniqueid": "MTK1747:30BXRYBRP548ZUST0DZA9ISQS2DHWY", "dateTime": 1516294662179}, {"current_trial": 9, "trialdata": {"rt": [3508, 7221, 12332, 14255, 17947], "trial_type": "math-distractor", "key_times": [2516, 2705, 3508, 6803, 6934, 7221, 12000, 12111, 12332, 13950, 14046, 14255, 17399, 17734, 17947], "responses": ["14", "11", "17", "16", "19"], "num2": [3, 6, 2, 8, 2, 5], "num3": [4, 3, 9, 4, 8, 5], "conditions": [18, 1200, "a", 18000], "internal_node_id": "0.0-9.0", "key_presses": [97, 100, 13, 97, 97, 13, 97, 103, 13, 97, 102, 13, 97, 105, 13], "trial": 0, "time_elapsed": 124277, "type": "DISTRACTOR", "trial_index": 9, "num1": [7, 2, 6, 4, 7, 2]}, "uniqueid": "MTK1747:30BXRYBRP548ZUST0DZA9ISQS2DHWY", "dateTime": 1516294681185}, {"current_trial": 10, "trialdata": {"rt": -1, "trial_type": "single-stim", "stimulus": "<p id=\"stim\">10</p>", "internal_node_id": "0.0-10.0-0.0", "time_elapsed": 127282, "key_press": -1, "trial_index": 10}, "uniqueid": "MTK1747:30BXRYBRP548ZUST0DZA9ISQS2DHWY", "dateTime": 1516294684190}, {"current_trial": 11, "trialdata": {"rt": -1, "trial_type": "single-stim", "stimulus": "<p id=\"stim\">9</p>", "internal_node_id": "0.0-10.0-1.0", "time_elapsed": 128284, "key_press": -1, "trial_index": 11}, "uniqueid": "MTK1747:30BXRYBRP548ZUST0DZA9ISQS2DHWY", "dateTime": 1516294685193}, {"current_trial": 12, "trialdata": {"rt": -1, "trial_type": "single-stim", "stimulus": "<p id=\"stim\">8</p>", "internal_node_id": "0.0-10.0-2.0", "time_elapsed": 129286, "key_press": -1, "trial_index": 12}, "uniqueid": "MTK1747:30BXRYBRP548ZUST0DZA9ISQS2DHWY", "dateTime": 1516294686195}, {"current_trial": 13, "trialdata": {"rt": -1, "trial_type": "single-stim", "stimulus": "<p id=\"stim\">7</p>", "internal_node_id": "0.0-10.0-3.0", "time_elapsed": 130290, "key_press": -1, "trial_index": 13}, "uniqueid": "MTK1747:30BXRYBRP548ZUST0DZA9ISQS2DHWY", "dateTime": 1516294687198}, {"current_trial": 14, "trialdata": {"rt": -1, "trial_type": "single-stim", "stimulus": "<p id=\"stim\">6</p>", "internal_node_id": "0.0-10.0-4.0", "time_elapsed": 131291, "key_press": -1, "trial_index": 14}, "uniqueid": "MTK1747:30BXRYBRP548ZUST0DZA9ISQS2DHWY", "dateTime": 1516294688199}, {"current_trial": 15, "trialdata": {"rt": -1, "trial_type": "single-stim", "stimulus": "<p id=\"stim\">5</p>", "internal_node_id": "0.0-10.0-5.0", "time_elapsed": 132293, "key_press": -1, "trial_index": 15}, "uniqueid": "MTK1747:30BXRYBRP548ZUST0DZA9ISQS2DHWY", "dateTime": 1516294689201}, {"current_trial": 16, "trialdata": {"rt": -1, "trial_type": "single-stim", "stimulus": "<p id=\"stim\">4</p>", "internal_node_id": "0.0-10.0-6.0", "time_elapsed": 133294, "key_press": -1, "trial_index": 16}, "uniqueid": "MTK1747:30BXRYBRP548ZUST0DZA9ISQS2DHWY", "dateTime": 1516294690203}, {"current_trial": 17, "trialdata": {"rt": -1, "trial_type": "single-stim", "stimulus": "<p id=\"stim\">3</p>", "internal_node_id": "0.0-10.0-7.0", "time_elapsed": 134298, "key_press": -1, "trial_index": 17}, "uniqueid": "MTK1747:30BXRYBRP548ZUST0DZA9ISQS2DHWY", "dateTime": 1516294691206}, {"current_trial": 18, "trialdata": {"rt": -1, "trial_type": "single-stim", "stimulus": "<p id=\"stim\">2</p>", "internal_node_id": "0.0-10.0-8.0", "time_elapsed": 135300, "key_press": -1, "trial_index": 18}, "uniqueid": "MTK1747:30BXRYBRP548ZUST0DZA9ISQS2DHWY", "dateTime": 1516294692208}, {"current_trial": 19, "trialdata": {"rt": -1, "trial_type": "single-stim", "stimulus": "<p id=\"stim\">1</p>", "internal_node_id": "0.0-10.0-9.0", "time_elapsed": 136302, "key_press": -1, "trial_index": 19}, "uniqueid": "MTK1747:30BXRYBRP548ZUST0DZA9ISQS2DHWY", "dateTime": 1516294693210}, {"current_trial": 20, "trialdata": {"rt": -1, "trial_type": "single-stim", "stimulus": "<p id=\"stim\">+</p>", "internal_node_id": "0.0-11.0-0.0", "time_elapsed": 137803, "key_press": -1, "type": "FIXATION", "trial_index": 20}, "uniqueid": "MTK1747:30BXRYBRP548ZUST0DZA9ISQS2DHWY", "dateTime": 1516294694712}, {"current_trial": 21, "trialdata": {"rt": -1000, "trial_type": "single-audio", "word": "dust", "stimulus": "/static/audio/wordpool/DUST.wav", "conditions": [18, 1200, "a", 18000], "internal_node_id": "0.0-12.0", "trial": 0, "time_elapsed": 140155, "serialpos": 0, "key_press": -1, "wordID": 507, "type": "PRES_AUD", "trial_index": 21}, "uniqueid": "MTK1747:30BXRYBRP548ZUST0DZA9ISQS2DHWY", "dateTime": 1516294697063}, {"current_trial": 22, "trialdata": {"rt": -1000, "trial_type": "single-audio", "word": "freezer", "stimulus": "/static/audio/wordpool/FREEZER.wav", "conditions": [18, 1200, "a", 18000], "internal_node_id": "0.0-13.0", "trial": 0, "time_elapsed": 142431, "serialpos": 1, "key_press": -1, "wordID": 603, "type": "PRES_AUD", "trial_index": 22}, "uniqueid": "MTK1747:30BXRYBRP548ZUST0DZA9ISQS2DHWY", "dateTime": 1516294699340}, {"current_trial": 23, "trialdata": {"rt": -1000, "trial_type": "single-audio", "word": "hook", "stimulus": "/static/audio/wordpool/HOOK.wav", "conditions": [18, 1200, "a", 18000], "internal_node_id": "0.0-14.0", "trial": 0, "time_elapsed": 144535, "serialpos": 2, "key_press": -1, "wordID": 714, "type": "PRES_AUD", "trial_index": 23}, "uniqueid": "MTK1747:30BXRYBRP548ZUST0DZA9ISQS2DHWY", "dateTime": 1516294701444}, {"current_trial": 24, "trialdata": {"rt": -1000, "trial_type": "single-audio", "word": "maple", "stimulus": "/static/audio/wordpool/MAPLE.wav", "conditions": [18, 1200, "a", 18000], "internal_node_id": "0.0-15.0", "trial": 0, "time_elapsed": 146768, "serialpos": 3, "key_press": -1, "wordID": 865, "type": "PRES_AUD", "trial_index": 24}, "uniqueid": "MTK1747:30BXRYBRP548ZUST0DZA9ISQS2DHWY", "dateTime": 1516294703676}, {"current_trial": 25, "trialdata": {"rt": -1000, "trial_type": "single-audio", "word": "donkey", "stimulus": "/static/audio/wordpool/DONKEY.wav", "conditions": [18, 1200, "a", 18000], "internal_node_id": "0.0-16.0", "trial": 0, "time_elapsed": 149048, "serialpos": 4, "key_press": -1, "wordID": 483, "type": "PRES_AUD", "trial_index": 25}, "uniqueid": "MTK1747:30BXRYBRP548ZUST0DZA9ISQS2DHWY", "dateTime": 1516294705957}, {"current_trial": 26, "trialdata": {"rt": -1000, "trial_type": "single-audio", "word": "garlic", "stimulus": "/static/audio/wordpool/GARLIC.wav", "conditions": [18, 1200, "a", 18000], "internal_node_id": "0.0-17.0", "trial": 0, "time_elapsed": 151150, "serialpos": 5, "key_press": -1, "wordID": 623, "type": "PRES_AUD", "trial_index": 26}, "uniqueid": "MTK1747:30BXRYBRP548ZUST0DZA9ISQS2DHWY", "dateTime": 1516294708058}, {"current_trial": 27, "trialdata": {"rt": -1000, "trial_type": "single-audio", "word": "sausage", "stimulus": "/static/audio/wordpool/SAUSAGE.wav", "conditions": [18, 1200, "a", 18000], "internal_node_id": "0.0-18.0", "trial": 0, "time_elapsed": 153266, "serialpos": 6, "key_press": -1, "wordID": 1237, "type": "PRES_AUD", "trial_index": 27}, "uniqueid": "MTK1747:30BXRYBRP548ZUST0DZA9ISQS2DHWY", "dateTime": 1516294710174}, {"current_trial": 28, "trialdata": {"rt": -1000, "trial_type": "single-audio", "word": "fungus", "stimulus": "/static/audio/wordpool/FUNGUS.wav", "conditions": [18, 1200, "a", 18000], "internal_node_id": "0.0-19.0", "trial": 0, "time_elapsed": 155596, "serialpos": 7, "key_press": -1, "wordID": 613, "type": "PRES_AUD", "trial_index": 28}, "uniqueid": "MTK1747:30BXRYBRP548ZUST0DZA9ISQS2DHWY", "dateTime": 1516294712505}, {"current_trial": 29, "trialdata": {"rt": -1000, "trial_type": "single-audio", "word": "playground", "stimulus": "/static/audio/wordpool/PLAYGROUND.wav", "conditions": [18, 1200, "a", 18000], "internal_node_id": "0.0-20.0", "trial": 0, "time_elapsed": 157660, "serialpos": 8, "key_press": -1, "wordID": 1086, "type": "PRES_AUD", "trial_index": 29}, "uniqueid": "MTK1747:30BXRYBRP548ZUST0DZA9ISQS2DHWY", "dateTime": 1516294714568}, {"current_trial": 30, "trialdata": {"rt": -1000, "trial_type": "single-audio", "word": "buggy", "stimulus": "/static/audio/wordpool/BUGGY.wav", "conditions": [18, 1200, "a", 18000], "internal_node_id": "0.0-21.0", "trial": 0, "time_elapsed": 160035, "serialpos": 9, "key_press": -1, "wordID": 187, "type": "PRES_AUD", "trial_index": 30}, "uniqueid": "MTK1747:30BXRYBRP548ZUST0DZA9ISQS2DHWY", "dateTime": 1516294716943}, {"current_trial": 31, "trialdata": {"rt": -1000, "trial_type": "single-audio", "word": "hatchet", "stimulus": "/static/audio/wordpool/HATCHET.wav", "conditions": [18, 1200, "a", 18000], "internal_node_id": "0.0-22.0", "trial": 0, "time_elapsed": 162248, "serialpos": 10, "key_press": -1, "wordID": 690, "type": "PRES_AUD", "trial_index": 31}, "uniqueid": "MTK1747:30BXRYBRP548ZUST0DZA9ISQS2DHWY", "dateTime": 1516294719156}, {"current_trial": 32, "trialdata": {"rt": -1000, "trial_type": "single-audio", "word": "uncle", "stimulus": "/static/audio/wordpool/UNCLE.wav", "conditions": [18, 1200, "a", 18000], "internal_node_id": "0.0-23.0", "trial": 0, "time_elapsed": 164515, "serialpos": 11, "key_press": -1, "wordID": 1535, "type": "PRES_AUD", "trial_index": 32}, "uniqueid": "MTK1747:30BXRYBRP548ZUST0DZA9ISQS2DHWY", "dateTime": 1516294721423}, {"current_trial": 33, "trialdata": {"rt": -1000, "trial_type": "single-audio", "word": "slug", "stimulus": "/static/audio/wordpool/SLUG.wav", "conditions": [18, 1200, "a", 18000], "internal_node_id": "0.0-24.0", "trial": 0, "time_elapsed": 166824, "serialpos": 12, "key_press": -1, "wordID": 1328, "type": "PRES_AUD", "trial_index": 33}, "uniqueid": "MTK1747:30BXRYBRP548ZUST0DZA9ISQS2DHWY", "dateTime": 1516294723732}, {"current_trial": 34, "trialdata": {"rt": -1000, "trial_type": "single-audio", "word": "milk", "stimulus": "/static/audio/wordpool/MILK.wav", "conditions": [18, 1200, "a", 18000], "internal_node_id": "0.0-25.0", "trial": 0, "time_elapsed": 168892, "serialpos": 13, "key_press": -1, "wordID": 894, "type": "PRES_AUD", "trial_index": 34}, "uniqueid": "MTK1747:30BXRYBRP548ZUST0DZA9ISQS2DHWY", "dateTime": 1516294725800}, {"current_trial": 35, "trialdata": {"rt": -1000, "trial_type": "single-audio", "word": "mummy", "stimulus": "/static/audio/wordpool/MUMMY.wav", "conditions": [18, 1200, "a", 18000], "internal_node_id": "0.0-26.0", "trial": 0, "time_elapsed": 171201, "serialpos": 14, "key_press": -1, "wordID": 931, "type": "PRES_AUD", "trial_index": 35}, "uniqueid": "MTK1747:30BXRYBRP548ZUST0DZA9ISQS2DHWY", "dateTime": 1516294728109}, {"current_trial": 36, "trialdata": {"rt": -1000, "trial_type": "single-audio", "word": "flesh", "stimulus": "/static/audio/wordpool/FLESH.wav", "conditions": [18, 1200, "a", 18000], "internal_node_id": "0.0-27.0", "trial": 0, "time_elapsed": 173241, "serialpos": 15, "key_press": -1, "wordID": 578, "type": "PRES_AUD", "trial_index": 36}, "uniqueid": "MTK1747:30BXRYBRP548ZUST0DZA9ISQS2DHWY", "dateTime": 1516294730150}, {"current_trial": 37, "trialdata": {"rt": -1000, "trial_type": "single-audio", "word": "catcher", "stimulus": "/static/audio/wordpool/CATCHER.wav", "conditions": [18, 1200, "a", 18000], "internal_node_id": "0.0-28.0", "trial": 0, "time_elapsed": 175419, "serialpos": 16, "key_press": -1, "wordID": 257, "type": "PRES_AUD", "trial_index": 37}, "uniqueid": "MTK1747:30BXRYBRP548ZUST0DZA9ISQS2DHWY", "dateTime": 1516294732327}, {"current_trial": 38, "trialdata": {"rt": -1000, "trial_type": "single-audio", "word": "farmer", "stimulus": "/static/audio/wordpool/FARMER.wav", "conditions": [18, 1200, "a", 18000], "internal_node_id": "0.0-29.0", "trial": 0, "time_elapsed": 177713, "serialpos": 17, "key_press": -1, "wordID": 552, "type": "PRES_AUD", "trial_index": 38}, "uniqueid": "MTK1747:30BXRYBRP548ZUST0DZA9ISQS2DHWY", "dateTime": 1516294734622}, {"current_trial": 39, "trialdata": {"rt": -1, "trial_type": "single-stim", "stimulus": "", "internal_node_id": "0.0-30.0-0.0", "time_elapsed": 178999, "key_press": -1, "type": "PRE_RECALL_DELAY", "trial_index": 39}, "uniqueid": "MTK1747:30BXRYBRP548ZUST0DZA9ISQS2DHWY", "dateTime": 1516294735908}, {"current_trial": 40, "trialdata": {"rt": -1000, "trial_type": "single-audio", "stimulus": "/static/audio/400Hz.wav", "internal_node_id": "0.0-31.0", "time_elapsed": 179501, "key_press": -1, "type": "PRE_RECALL_ALERT", "trial_index": 40}, "uniqueid": "MTK1747:30BXRYBRP548ZUST0DZA9ISQS2DHWY", "dateTime": 1516294736409}, {"current_trial": 41, "trialdata": {"rt": [7418, 9810, 11114, 13710, 19212, 20911, 21403, 21894, 28040, 29830, 31327, 33036, 38400, 41927, 44189, 45714, 46778, 50958, 52851, 54650, 58416], "recwords": ["garlic", "playground", "uncle", "farmer", "spice", "", "", "", "playground", "uncle", "garlic", "spice", "kitchen", "room", "food", "mouse", "dinner", "fix", "washer", "noodle", "dog"], "key_times": [6764, 6864, 6978, 7070, 7165, 7244, 7418, 7977, 8373, 8535, 8668, 8964, 9183, 9223, 9308, 9487, 9498, 9810, 10353, 10537, 10656, 10791, 10918, 11114, 12999, 13094, 13221, 13327, 13437, 13546, 13710, 18373, 18443, 18620, 18855, 18961, 19212, 20911, 21403, 21894, 26628, 26849, 26981, 27086, 27320, 27531, 27575, 27630, 27853, 27863, 28040, 29137, 29285, 29418, 29560, 29659, 29830, 30597, 30693, 30807, 30906, 30968, 31117, 31327, 32508, 32571, 32676, 32776, 32866, 33036, 36150, 36359, 36545, 37259, 37778, 37964, 38115, 38400, 41297, 41372, 41559, 41658, 41927, 43546, 43671, 43828, 43894, 44189, 45039, 45160, 45323, 45443, 45533, 45714, 46052, 46144, 46256, 46438, 46517, 46637, 46778, 49993, 50148, 50513, 50958, 52081, 52171, 52375, 52502, 52571, 52696, 52851, 53766, 53859, 54034, 54118, 54274, 54500, 54650, 57957, 58062, 58151, 58416, 59655, 59711, 59840, 59975], "trial_type": "free-recall", "conditions": [18, 1200, "a", 18000], "internal_node_id": "0.0-32.0-0.0", "key_presses": [71, 65, 82, 76, 73, 67, 13, 80, 76, 65, 89, 71, 82, 79, 85, 78, 68, 13, 85, 78, 67, 76, 69, 13, 70, 65, 82, 77, 69, 82, 13, 83, 80, 73, 67, 69, 13, 13, 13, 13, 80, 76, 65, 89, 71, 82, 79, 85, 78, 68, 13, 85, 78, 67, 76, 69, 13, 71, 65, 82, 76, 73, 67, 13, 83, 80, 73, 67, 69, 13, 75, 73, 84, 67, 72, 69, 78, 13, 82, 79, 79, 77, 13, 70, 79, 79, 68, 13, 77, 79, 85, 83, 69, 13, 68, 73, 78, 78, 69, 82, 13, 70, 73, 88, 13, 87, 65, 83, 72, 69, 82, 13, 78, 79, 79, 68, 76, 69, 13, 68, 79, 71, 13, 77, 69, 77, 79], "trial": 0, "time_elapsed": 239506, "type": "FREE_RECALL", "trial_index": 41}, "uniqueid": "MTK1747:30BXRYBRP548ZUST0DZA9ISQS2DHWY", "dateTime": 1516294796416}, {"current_trial": 42, "trialdata": {"rt": 2294, "trial_type": "text", "internal_node_id": "0.0-33.0", "time_elapsed": 243804, "key_press": 13, "type": "INSTRUCTIONS", "trial_index": 42}, "uniqueid": "MTK1747:30BXRYBRP548ZUST0DZA9ISQS2DHWY", "dateTime": 1516294800712}, {"current_trial": 43, "trialdata": {"rt": [8686], "trial_type": "math-distractor", "key_times": [8371, 8422, 8686], "responses": ["21"], "num2": [6, 5], "num3": [8, 6], "conditions": [18, 1200, "a", 18000], "internal_node_id": "0.0-34.0", "key_presses": [98, 97, 13], "trial": 1, "time_elapsed": 263807, "type": "DISTRACTOR", "trial_index": 43, "num1": [7, 9]}, "uniqueid": "MTK1747:30BXRYBRP548ZUST0DZA9ISQS2DHWY", "dateTime": 1516294820716}, {"current_trial": 44, "trialdata": {"rt": -1, "trial_type": "single-stim", "stimulus": "<p id=\"stim\">10</p>", "internal_node_id": "0.0-35.0-0.0", "time_elapsed": 266809, "key_press": -1, "trial_index": 44}, "uniqueid": "MTK1747:30BXRYBRP548ZUST0DZA9ISQS2DHWY", "dateTime": 1516294823717}, {"current_trial": 45, "trialdata": {"rt": -1, "trial_type": "single-stim", "stimulus": "<p id=\"stim\">9</p>", "internal_node_id": "0.0-35.0-1.0", "time_elapsed": 267810, "key_press": -1, "trial_index": 45}, "uniqueid": "MTK1747:30BXRYBRP548ZUST0DZA9ISQS2DHWY", "dateTime": 1516294824718}, {"current_trial": 46, "trialdata": {"rt": -1, "trial_type": "single-stim", "stimulus": "<p id=\"stim\">8</p>", "internal_node_id": "0.0-35.0-2.0", "time_elapsed": 268810, "key_press": -1, "trial_index": 46}, "uniqueid": "MTK1747:30BXRYBRP548ZUST0DZA9ISQS2DHWY", "dateTime": 1516294825718}, {"current_trial": 47, "trialdata": {"rt": -1, "trial_type": "single-stim", "stimulus": "<p id=\"stim\">7</p>", "internal_node_id": "0.0-35.0-3.0", "time_elapsed": 269811, "key_press": -1, "trial_index": 47}, "uniqueid": "MTK1747:30BXRYBRP548ZUST0DZA9ISQS2DHWY", "dateTime": 1516294826719}, {"current_trial": 48, "trialdata": {"rt": -1, "trial_type": "single-stim", "stimulus": "<p id=\"stim\">6</p>", "internal_node_id": "0.0-35.0-4.0", "time_elapsed": 270812, "key_press": -1, "trial_index": 48}, "uniqueid": "MTK1747:30BXRYBRP548ZUST0DZA9ISQS2DHWY", "dateTime": 1516294827720}, {"current_trial": 49, "trialdata": {"rt": -1, "trial_type": "single-stim", "stimulus": "<p id=\"stim\">5</p>", "internal_node_id": "0.0-35.0-5.0", "time_elapsed": 271812, "key_press": -1, "trial_index": 49}, "uniqueid": "MTK1747:30BXRYBRP548ZUST0DZA9ISQS2DHWY", "dateTime": 1516294828720}, {"current_trial": 50, "trialdata": {"rt": -1, "trial_type": "single-stim", "stimulus": "<p id=\"stim\">4</p>", "internal_node_id": "0.0-35.0-6.0", "time_elapsed": 272813, "key_press": -1, "trial_index": 50}, "uniqueid": "MTK1747:30BXRYBRP548ZUST0DZA9ISQS2DHWY", "dateTime": 1516294829721}, {"current_trial": 51, "trialdata": {"rt": -1, "trial_type": "single-stim", "stimulus": "<p id=\"stim\">3</p>", "internal_node_id": "0.0-35.0-7.0", "time_elapsed": 273814, "key_press": -1, "trial_index": 51}, "uniqueid": "MTK1747:30BXRYBRP548ZUST0DZA9ISQS2DHWY", "dateTime": 1516294830723}, {"current_trial": 52, "trialdata": {"rt": -1, "trial_type": "single-stim", "stimulus": "<p id=\"stim\">2</p>", "internal_node_id": "0.0-35.0-8.0", "time_elapsed": 274816, "key_press": -1, "trial_index": 52}, "uniqueid": "MTK1747:30BXRYBRP548ZUST0DZA9ISQS2DHWY", "dateTime": 1516294831724}, {"current_trial": 53, "trialdata": {"rt": -1, "trial_type": "single-stim", "stimulus": "<p id=\"stim\">1</p>", "internal_node_id": "0.0-35.0-9.0", "time_elapsed": 275817, "key_press": -1, "trial_index": 53}, "uniqueid": "MTK1747:30BXRYBRP548ZUST0DZA9ISQS2DHWY", "dateTime": 1516294832725}, {"current_trial": 54, "trialdata": {"rt": -1, "trial_type": "single-stim", "stimulus": "<p id=\"stim\">+</p>", "internal_node_id": "0.0-36.0-0.0", "time_elapsed": 277317, "key_press": -1, "type": "FIXATION", "trial_index": 54}, "uniqueid": "MTK1747:30BXRYBRP548ZUST0DZA9ISQS2DHWY", "dateTime": 1516294834226}, {"current_trial": 55, "trialdata": {"rt": -1000, "trial_type": "single-audio", "word": "coin", "stimulus": "/static/audio/wordpool/COIN.wav", "conditions": [18, 1200, "a", 18000], "internal_node_id": "0.0-37.0", "trial": 1, "time_elapsed": 279398, "serialpos": 0, "key_press": -1, "wordID": 342, "type": "PRES_AUD", "trial_index": 55}, "uniqueid": "MTK1747:30BXRYBRP548ZUST0DZA9ISQS2DHWY", "dateTime": 1516294836306}, {"current_trial": 56, "trialdata": {"rt": -1000, "trial_type": "single-audio", "word": "servant", "stimulus": "/static/audio/wordpool/SERVANT.wav", "conditions": [18, 1200, "a", 18000], "internal_node_id": "0.0-38.0", "trial": 1, "time_elapsed": 281577, "serialpos": 1, "key_press": -1, "wordID": 1270, "type": "PRES_AUD", "trial_index": 56}, "uniqueid": "MTK1747:30BXRYBRP548ZUST0DZA9ISQS2DHWY", "dateTime": 1516294838485}, {"current_trial": 57, "trialdata": {"rt": -1000, "trial_type": "single-audio", "word": "heart", "stimulus": "/static/audio/wordpool/HEART.wav", "conditions": [18, 1200, "a", 18000], "internal_node_id": "0.0-39.0", "trial": 1, "time_elapsed": 283780, "serialpos": 2, "key_press": -1, "wordID": 696, "type": "PRES_AUD", "trial_index": 57}, "uniqueid": "MTK1747:30BXRYBRP548ZUST0DZA9ISQS2DHWY", "dateTime": 1516294840688}, {"current_trial": 58, "trialdata": {"rt": -1000, "trial_type": "single-audio", "word": "tablet", "stimulus": "/static/audio/wordpool/TABLET.wav", "conditions": [18, 1200, "a", 18000], "internal_node_id": "0.0-40.0", "trial": 1, "time_elapsed": 285825, "serialpos": 3, "key_press": -1, "wordID": 1426, "type": "PRES_AUD", "trial_index": 58}, "uniqueid": "MTK1747:30BXRYBRP548ZUST0DZA9ISQS2DHWY", "dateTime": 1516294842734}, {"current_trial": 59, "trialdata": {"rt": -1000, "trial_type": "single-audio", "word": "pizza", "stimulus": "/static/audio/wordpool/PIZZA.wav", "conditions": [18, 1200, "a", 18000], "internal_node_id": "0.0-41.0", "trial": 1, "time_elapsed": 287933, "serialpos": 4, "key_press": -1, "wordID": 1078, "type": "PRES_AUD", "trial_index": 59}, "uniqueid": "MTK1747:30BXRYBRP548ZUST0DZA9ISQS2DHWY", "dateTime": 1516294844841}, {"current_trial": 60, "trialdata": {"rt": -1000, "trial_type": "single-audio", "word": "woman", "stimulus": "/static/audio/wordpool/WOMAN.wav", "conditions": [18, 1200, "a", 18000], "internal_node_id": "0.0-42.0", "trial": 1, "time_elapsed": 290080, "serialpos": 5, "key_press": -1, "wordID": 1619, "type": "PRES_AUD", "trial_index": 60}, "uniqueid": "MTK1747:30BXRYBRP548ZUST0DZA9ISQS2DHWY", "dateTime": 1516294846988}, {"current_trial": 61, "trialdata": {"rt": -1000, "trial_type": "single-audio", "word": "lapel", "stimulus": "/static/audio/wordpool/LAPEL.wav", "conditions": [18, 1200, "a", 18000], "internal_node_id": "0.0-43.0", "trial": 1, "time_elapsed": 292356, "serialpos": 6, "key_press": -1, "wordID": 799, "type": "PRES_AUD", "trial_index": 61}, "uniqueid": "MTK1747:30BXRYBRP548ZUST0DZA9ISQS2DHWY", "dateTime": 1516294849264}, {"current_trial": 62, "trialdata": {"rt": -1000, "trial_type": "single-audio", "word": "typist", "stimulus": "/static/audio/wordpool/TYPIST.wav", "conditions": [18, 1200, "a", 18000], "internal_node_id": "0.0-44.0", "trial": 1, "time_elapsed": 294635, "serialpos": 7, "key_press": -1, "wordID": 1531, "type": "PRES_AUD", "trial_index": 62}, "uniqueid": "MTK1747:30BXRYBRP548ZUST0DZA9ISQS2DHWY", "dateTime": 1516294851544}, {"current_trial": 63, "trialdata": {"rt": -1000, "trial_type": "single-audio", "word": "market", "stimulus": "/static/audio/wordpool/MARKET.wav", "conditions": [18, 1200, "a", 18000], "internal_node_id": "0.0-45.0", "trial": 1, "time_elapsed": 296763, "serialpos": 8, "key_press": -1, "wordID": 870, "type": "PRES_AUD", "trial_index": 63}, "uniqueid": "MTK1747:30BXRYBRP548ZUST0DZA9ISQS2DHWY", "dateTime": 1516294853671}, {"current_trial": 64, "trialdata": {"rt": -1000, "trial_type": "single-audio", "word": "london", "stimulus": "/static/audio/wordpool/LONDON.wav", "conditions": [18, 1200, "a", 18000], "internal_node_id": "0.0-46.0", "trial": 1, "time_elapsed": 298771, "serialpos": 9, "key_press": -1, "wordID": 842, "type": "PRES_AUD", "trial_index": 64}, "uniqueid": "MTK1747:30BXRYBRP548ZUST0DZA9ISQS2DHWY", "dateTime": 1516294855680}, {"current_trial": 65, "trialdata": {"rt": -1000, "trial_type": "single-audio", "word": "trout", "stimulus": "/static/audio/wordpool/TROUT.wav", "conditions": [18, 1200, "a", 18000], "internal_node_id": "0.0-47.0", "trial": 1, "time_elapsed": 301039, "serialpos": 10, "key_press": -1, "wordID": 1510, "type": "PRES_AUD", "trial_index": 65}, "uniqueid": "MTK1747:30BXRYBRP548ZUST0DZA9ISQS2DHWY", "dateTime": 1516294857947}, {"current_trial": 66, "trialdata": {"rt": -1000, "trial_type": "single-audio", "word": "vagrant", "stimulus": "/static/audio/wordpool/VAGRANT.wav", "conditions": [18, 1200, "a", 18000], "internal_node_id": "0.0-48.0", "trial": 1, "time_elapsed": 303256, "serialpos": 11, "key_press": -1, "wordID": 1543, "type": "PRES_AUD", "trial_index": 66}, "uniqueid": "MTK1747:30BXRYBRP548ZUST0DZA9ISQS2DHWY", "dateTime": 1516294860164}, {"current_trial": 67, "trialdata": {"rt": -1000, "trial_type": "single-audio", "word": "crevice", "stimulus": "/static/audio/wordpool/CREVICE.wav", "conditions": [18, 1200, "a", 18000], "internal_node_id": "0.0-49.0", "trial": 1, "time_elapsed": 305420, "serialpos": 12, "key_press": -1, "wordID": 404, "type": "PRES_AUD", "trial_index": 67}, "uniqueid": "MTK1747:30BXRYBRP548ZUST0DZA9ISQS2DHWY", "dateTime": 1516294862329}, {"current_trial": 68, "trialdata": {"rt": -1000, "trial_type": "single-audio", "word": "necklace", "stimulus": "/static/audio/wordpool/NECKLACE.wav", "conditions": [18, 1200, "a", 18000], "internal_node_id": "0.0-50.0", "trial": 1, "time_elapsed": 307740, "serialpos": 13, "key_press": -1, "wordID": 939, "type": "PRES_AUD", "trial_index": 68}, "uniqueid": "MTK1747:30BXRYBRP548ZUST0DZA9ISQS2DHWY", "dateTime": 1516294864662}, {"current_trial": 69, "trialdata": {"rt": -1000, "trial_type": "single-audio", "word": "shorts", "stimulus": "/static/audio/wordpool/SHORTS.wav", "conditions": [18, 1200, "a", 18000], "internal_node_id": "0.0-51.0", "trial": 1, "time_elapsed": 310049, "serialpos": 14, "key_press": -1, "wordID": 1292, "type": "PRES_AUD", "trial_index": 69}, "uniqueid": "MTK1747:30BXRYBRP548ZUST0DZA9ISQS2DHWY", "dateTime": 1516294866957}, {"current_trial": 70, "trialdata": {"rt": -1000, "trial_type": "single-audio", "word": "cowboy", "stimulus": "/static/audio/wordpool/COWBOY.wav", "conditions": [18, 1200, "a", 18000], "internal_node_id": "0.0-52.0", "trial": 1, "time_elapsed": 312342, "serialpos": 15, "key_press": -1, "wordID": 394, "type": "PRES_AUD", "trial_index": 70}, "uniqueid": "MTK1747:30BXRYBRP548ZUST0DZA9ISQS2DHWY", "dateTime": 1516294869250}, {"current_trial": 71, "trialdata": {"rt": -1000, "trial_type": "single-audio", "word": "victim", "stimulus": "/static/audio/wordpool/VICTIM.wav", "conditions": [18, 1200, "a", 18000], "internal_node_id": "0.0-53.0", "trial": 1, "time_elapsed": 314405, "serialpos": 16, "key_press": -1, "wordID": 1561, "type": "PRES_AUD", "trial_index": 71}, "uniqueid": "MTK1747:30BXRYBRP548ZUST0DZA9ISQS2DHWY", "dateTime": 1516294871313}, {"current_trial": 72, "trialdata": {"rt": -1000, "trial_type": "single-audio", "word": "lipstick", "stimulus": "/static/audio/wordpool/LIPSTICK.wav", "conditions": [18, 1200, "a", 18000], "internal_node_id": "0.0-54.0", "trial": 1, "time_elapsed": 316745, "serialpos": 17, "key_press": -1, "wordID": 828, "type": "PRES_AUD", "trial_index": 72}, "uniqueid": "MTK1747:30BXRYBRP548ZUST0DZA9ISQS2DHWY", "dateTime": 1516294873653}, {"current_trial": 73, "trialdata": {"rt": -1, "trial_type": "single-stim", "stimulus": "", "internal_node_id": "0.0-55.0-0.0", "time_elapsed": 318020, "key_press": -1, "type": "PRE_RECALL_DELAY", "trial_index": 73}, "uniqueid": "MTK1747:30BXRYBRP548ZUST0DZA9ISQS2DHWY", "dateTime": 1516294874928}, {"current_trial": 74, "trialdata": {"rt": -1000, "trial_type": "single-audio", "stimulus": "/static/audio/400Hz.wav", "internal_node_id": "0.0-56.0", "time_elapsed": 318521, "key_press": -1, "type": "PRE_RECALL_ALERT", "trial_index": 74}, "uniqueid": "MTK1747:30BXRYBRP548ZUST0DZA9ISQS2DHWY", "dateTime": 1516294875429}], "currenttrial": 75, "condition": 1, "mode": "live"}