{"assignmentId": "3HL8HNGX468D92OFCC1ISD82F4T9FH", "workerId": "MTK1960", "questiondata": {"avail_screen_height": 877, "color_depth": 24, "screen_width": 1440, "pixel_depth": 24, "avail_screen_width": 1440, "screen_height": 900}, "bonus": 0, "hitId": "3XQ4XW3OD9J9Q3A87LH005NJGDW2S5", "counterbalance": 2012, "useragent": "Mozilla/5.0 (Macintosh; Intel Mac OS X 10_13_1) AppleWebKit/537.36 (KHTML, like Gecko) Chrome/63.0.3239.132 Safari/537.36", "eventdata": [{"eventtype": "initialized", "interval": 0, "value": null, "timestamp": 1516635811080}, {"eventtype": "window_resize", "interval": 0, "value": [1440, 826], "timestamp": 1516635811080}, {"eventtype": "focus", "interval": 92804, "value": "off", "timestamp": 1516635903884}, {"eventtype": "focus", "interval": 167, "value": "on", "timestamp": 1516635904051}, {"eventtype": "focus", "interval": 6594, "value": "off", "timestamp": 1516635910645}, {"eventtype": "focus", "interval": 173, "value": "on", "timestamp": 1516635910818}, {"eventtype": "focus", "interval": 18013, "value": "off", "timestamp": 1516635928831}, {"eventtype": "focus", "interval": 172, "value": "on", "timestamp": 1516635929003}, {"eventtype": "focus", "interval": 11063, "value": "off", "timestamp": 1516635940066}, {"eventtype": "focus", "interval": 172, "value": "on", "timestamp": 1516635940238}, {"eventtype": "focus", "interval": 157145, "value": "off", "timestamp": 1516636097383}, {"eventtype": "focus", "interval": 107733, "value": "on", "timestamp": 1516636205116}, {"eventtype": "focus", "interval": 139848, "value": "off", "timestamp": 1516636344964}], "data": [{"current_trial": 0, "trialdata": {"rt": 3559, "trial_type": "text", "internal_node_id": "0.0-0.0", "time_elapsed": 3561, "key_press": 74, "type": "INSTRUCTIONS", "trial_index": 0}, "uniqueid": "MTK1960:3HL8HNGX468D92OFCC1ISD82F4T9FH", "dateTime": 1516635815041}, {"current_trial": 1, "trialdata": {"rt": 21391, "trial_type": "text", "internal_node_id": "0.0-1.0", "time_elapsed": 24954, "key_press": 75, "type": "INSTRUCTIONS", "trial_index": 1}, "uniqueid": "MTK1960:3HL8HNGX468D92OFCC1ISD82F4T9FH", "dateTime": 1516635836434}, {"current_trial": 2, "trialdata": {"rt": [18947], "trial_type": "audio-test", "responses": ["ocean"], "internal_node_id": "0.0-2.0", "time_elapsed": 43910, "type": "AUDIO_TEST", "trial_index": 2}, "uniqueid": "MTK1960:3HL8HNGX468D92OFCC1ISD82F4T9FH", "dateTime": 1516635855390}, {"current_trial": 3, "trialdata": {"rt": [27629], "trial_type": "audio-test", "responses": ["crystal"], "internal_node_id": "0.0-3.0", "time_elapsed": 71543, "type": "AUDIO_TEST", "trial_index": 3}, "uniqueid": "MTK1960:3HL8HNGX468D92OFCC1ISD82F4T9FH", "dateTime": 1516635883023}, {"current_trial": 4, "trialdata": {"rt": [15484, 24975, 41997, 55203, 147209], "trial_type": "audio-test", "responses": ["fight", "bite", "bite", "spite", "spice"], "internal_node_id": "0.0-4.0", "time_elapsed": 218755, "type": "AUDIO_TEST", "trial_index": 4}, "uniqueid": "MTK1960:3HL8HNGX468D92OFCC1ISD82F4T9FH", "dateTime": 1516636030235}, {"current_trial": 5, "trialdata": {"rt": 25211, "trial_type": "survey-text", "responses": "{\"Q0\":\"10:00pm\",\"Q1\":\"5:00am\",\"Q2\":\"great\"}", "internal_node_id": "0.0-5.0", "time_elapsed": 244722, "type": "SLEEP_SURVEY", "trial_index": 5}, "uniqueid": "MTK1960:3HL8HNGX468D92OFCC1ISD82F4T9FH", "dateTime": 1516636056203}, {"current_trial": 6, "trialdata": {"rt": 21955, "trial_type": "text", "internal_node_id": "0.0-6.0", "time_elapsed": 267682, "key_press": 91, "type": "INSTRUCTIONS", "trial_index": 6}, "uniqueid": "MTK1960:3HL8HNGX468D92OFCC1ISD82F4T9FH", "dateTime": 1516636079162}, {"current_trial": 7, "trialdata": {"rt": 127465, "trial_type": "text", "internal_node_id": "0.0-7.0", "time_elapsed": 395652, "key_press": 72, "type": "INSTRUCTIONS", "trial_index": 7}, "uniqueid": "MTK1960:3HL8HNGX468D92OFCC1ISD82F4T9FH", "dateTime": 1516636207132}, {"current_trial": 8, "trialdata": {"rt": 13870, "trial_type": "text", "internal_node_id": "0.0-8.0", "time_elapsed": 410022, "key_press": 74, "type": "INSTRUCTIONS", "trial_index": 8}, "uniqueid": "MTK1960:3HL8HNGX468D92OFCC1ISD82F4T9FH", "dateTime": 1516636221503}, {"current_trial": 9, "trialdata": {"rt": [5581, 8296, 11119, 14143, 17269], "trial_type": "math-distractor", "key_times": [3952, 4266, 5581, 7563, 7765, 8296, 10119, 10396, 11119, 13095, 13461, 14143, 16354, 16743, 17269], "responses": ["18", "11", "16", "16", "14"], "num2": [9, 3, 6, 7, 5, 6], "num3": [6, 4, 5, 7, 7, 1], "conditions": [18, 1200, "v", 18000], "internal_node_id": "0.0-9.0", "key_presses": [49, 56, 13, 49, 49, 13, 49, 54, 13, 49, 54, 13, 49, 52, 13], "trial": 0, "time_elapsed": 429035, "type": "DISTRACTOR", "trial_index": 9, "num1": [3, 4, 5, 2, 2, 9]}, "uniqueid": "MTK1960:3HL8HNGX468D92OFCC1ISD82F4T9FH", "dateTime": 1516636240515}, {"current_trial": 10, "trialdata": {"rt": -1, "trial_type": "single-stim", "stimulus": "<p id=\"stim\">10</p>", "internal_node_id": "0.0-10.0-0.0", "time_elapsed": 432041, "key_press": -1, "trial_index": 10}, "uniqueid": "MTK1960:3HL8HNGX468D92OFCC1ISD82F4T9FH", "dateTime": 1516636243521}, {"current_trial": 11, "trialdata": {"rt": -1, "trial_type": "single-stim", "stimulus": "<p id=\"stim\">9</p>", "internal_node_id": "0.0-10.0-1.0", "time_elapsed": 433045, "key_press": -1, "trial_index": 11}, "uniqueid": "MTK1960:3HL8HNGX468D92OFCC1ISD82F4T9FH", "dateTime": 1516636244525}, {"current_trial": 12, "trialdata": {"rt": -1, "trial_type": "single-stim", "stimulus": "<p id=\"stim\">8</p>", "internal_node_id": "0.0-10.0-2.0", "time_elapsed": 434049, "key_press": -1, "trial_index": 12}, "uniqueid": "MTK1960:3HL8HNGX468D92OFCC1ISD82F4T9FH", "dateTime": 1516636245529}, {"current_trial": 13, "trialdata": {"rt": -1, "trial_type": "single-stim", "stimulus": "<p id=\"stim\">7</p>", "internal_node_id": "0.0-10.0-3.0", "time_elapsed": 435053, "key_press": -1, "trial_index": 13}, "uniqueid": "MTK1960:3HL8HNGX468D92OFCC1ISD82F4T9FH", "dateTime": 1516636246533}, {"current_trial": 14, "trialdata": {"rt": -1, "trial_type": "single-stim", "stimulus": "<p id=\"stim\">6</p>", "internal_node_id": "0.0-10.0-4.0", "time_elapsed": 436057, "key_press": -1, "trial_index": 14}, "uniqueid": "MTK1960:3HL8HNGX468D92OFCC1ISD82F4T9FH", "dateTime": 1516636247537}, {"current_trial": 15, "trialdata": {"rt": -1, "trial_type": "single-stim", "stimulus": "<p id=\"stim\">5</p>", "internal_node_id": "0.0-10.0-5.0", "time_elapsed": 437062, "key_press": -1, "trial_index": 15}, "uniqueid": "MTK1960:3HL8HNGX468D92OFCC1ISD82F4T9FH", "dateTime": 1516636248542}, {"current_trial": 16, "trialdata": {"rt": -1, "trial_type": "single-stim", "stimulus": "<p id=\"stim\">4</p>", "internal_node_id": "0.0-10.0-6.0", "time_elapsed": 438065, "key_press": -1, "trial_index": 16}, "uniqueid": "MTK1960:3HL8HNGX468D92OFCC1ISD82F4T9FH", "dateTime": 1516636249546}, {"current_trial": 17, "trialdata": {"rt": -1, "trial_type": "single-stim", "stimulus": "<p id=\"stim\">3</p>", "internal_node_id": "0.0-10.0-7.0", "time_elapsed": 439069, "key_press": -1, "trial_index": 17}, "uniqueid": "MTK1960:3HL8HNGX468D92OFCC1ISD82F4T9FH", "dateTime": 1516636250550}, {"current_trial": 18, "trialdata": {"rt": -1, "trial_type": "single-stim", "stimulus": "<p id=\"stim\">2</p>", "internal_node_id": "0.0-10.0-8.0", "time_elapsed": 440074, "key_press": -1, "trial_index": 18}, "uniqueid": "MTK1960:3HL8HNGX468D92OFCC1ISD82F4T9FH", "dateTime": 1516636251554}, {"current_trial": 19, "trialdata": {"rt": -1, "trial_type": "single-stim", "stimulus": "<p id=\"stim\">1</p>", "internal_node_id": "0.0-10.0-9.0", "time_elapsed": 441078, "key_press": -1, "trial_index": 19}, "uniqueid": "MTK1960:3HL8HNGX468D92OFCC1ISD82F4T9FH", "dateTime": 1516636252558}, {"current_trial": 20, "trialdata": {"rt": -1, "trial_type": "single-stim", "stimulus": "<p id=\"stim\">+</p>", "internal_node_id": "0.0-11.0-0.0", "time_elapsed": 442581, "key_press": -1, "type": "FIXATION", "trial_index": 20}, "uniqueid": "MTK1960:3HL8HNGX468D92OFCC1ISD82F4T9FH", "dateTime": 1516636254062}, {"current_trial": 21, "trialdata": {"rt": -1, "trial_type": "single-stim", "word": "typist", "stimulus": "<p id=\"stim\">TYPIST</p>", "conditions": [18, 1200, "v", 18000], "internal_node_id": "0.0-12.0", "trial": 0, "time_elapsed": 443787, "serialpos": 0, "key_press": -1, "wordID": 1531, "type": "PRES_VIS", "trial_index": 21}, "uniqueid": "MTK1960:3HL8HNGX468D92OFCC1ISD82F4T9FH", "dateTime": 1516636255267}, {"current_trial": 22, "trialdata": {"rt": -1, "trial_type": "single-stim", "word": "survey", "stimulus": "<p id=\"stim\">SURVEY</p>", "conditions": [18, 1200, "v", 18000], "internal_node_id": "0.0-13.0", "trial": 0, "time_elapsed": 446145, "serialpos": 1, "key_press": -1, "wordID": 1413, "type": "PRES_VIS", "trial_index": 22}, "uniqueid": "MTK1960:3HL8HNGX468D92OFCC1ISD82F4T9FH", "dateTime": 1516636257625}, {"current_trial": 23, "trialdata": {"rt": -1, "trial_type": "single-stim", "word": "valve", "stimulus": "<p id=\"stim\">VALVE</p>", "conditions": [18, 1200, "v", 18000], "internal_node_id": "0.0-14.0", "trial": 0, "time_elapsed": 448362, "serialpos": 2, "key_press": -1, "wordID": 1545, "type": "PRES_VIS", "trial_index": 23}, "uniqueid": "MTK1960:3HL8HNGX468D92OFCC1ISD82F4T9FH", "dateTime": 1516636259842}, {"current_trial": 24, "trialdata": {"rt": -1, "trial_type": "single-stim", "word": "fox", "stimulus": "<p id=\"stim\">FOX</p>", "conditions": [18, 1200, "v", 18000], "internal_node_id": "0.0-15.0", "trial": 0, "time_elapsed": 450678, "serialpos": 3, "key_press": -1, "wordID": 597, "type": "PRES_VIS", "trial_index": 24}, "uniqueid": "MTK1960:3HL8HNGX468D92OFCC1ISD82F4T9FH", "dateTime": 1516636262159}, {"current_trial": 25, "trialdata": {"rt": -1, "trial_type": "single-stim", "word": "hero", "stimulus": "<p id=\"stim\">HERO</p>", "conditions": [18, 1200, "v", 18000], "internal_node_id": "0.0-16.0", "trial": 0, "time_elapsed": 452815, "serialpos": 4, "key_press": -1, "wordID": 705, "type": "PRES_VIS", "trial_index": 25}, "uniqueid": "MTK1960:3HL8HNGX468D92OFCC1ISD82F4T9FH", "dateTime": 1516636264295}, {"current_trial": 26, "trialdata": {"rt": -1, "trial_type": "single-stim", "word": "climber", "stimulus": "<p id=\"stim\">CLIMBER</p>", "conditions": [18, 1200, "v", 18000], "internal_node_id": "0.0-17.0", "trial": 0, "time_elapsed": 454882, "serialpos": 5, "key_press": -1, "wordID": 322, "type": "PRES_VIS", "trial_index": 26}, "uniqueid": "MTK1960:3HL8HNGX468D92OFCC1ISD82F4T9FH", "dateTime": 1516636266362}, {"current_trial": 27, "trialdata": {"rt": -1, "trial_type": "single-stim", "word": "cocoon", "stimulus": "<p id=\"stim\">COCOON</p>", "conditions": [18, 1200, "v", 18000], "internal_node_id": "0.0-18.0", "trial": 0, "time_elapsed": 457196, "serialpos": 6, "key_press": -1, "wordID": 338, "type": "PRES_VIS", "trial_index": 27}, "uniqueid": "MTK1960:3HL8HNGX468D92OFCC1ISD82F4T9FH", "dateTime": 1516636268676}, {"current_trial": 28, "trialdata": {"rt": -1, "trial_type": "single-stim", "word": "queen", "stimulus": "<p id=\"stim\">QUEEN</p>", "conditions": [18, 1200, "v", 18000], "internal_node_id": "0.0-19.0", "trial": 0, "time_elapsed": 459587, "serialpos": 7, "key_press": -1, "wordID": 1148, "type": "PRES_VIS", "trial_index": 28}, "uniqueid": "MTK1960:3HL8HNGX468D92OFCC1ISD82F4T9FH", "dateTime": 1516636271067}, {"current_trial": 29, "trialdata": {"rt": -1, "trial_type": "single-stim", "word": "fireplace", "stimulus": "<p id=\"stim\">FIREPLACE</p>", "conditions": [18, 1200, "v", 18000], "internal_node_id": "0.0-20.0", "trial": 0, "time_elapsed": 461704, "serialpos": 8, "key_press": -1, "wordID": 569, "type": "PRES_VIS", "trial_index": 29}, "uniqueid": "MTK1960:3HL8HNGX468D92OFCC1ISD82F4T9FH", "dateTime": 1516636273184}, {"current_trial": 30, "trialdata": {"rt": -1, "trial_type": "single-stim", "word": "parsley", "stimulus": "<p id=\"stim\">PARSLEY</p>", "conditions": [18, 1200, "v", 18000], "internal_node_id": "0.0-21.0", "trial": 0, "time_elapsed": 463779, "serialpos": 9, "key_press": -1, "wordID": 1015, "type": "PRES_VIS", "trial_index": 30}, "uniqueid": "MTK1960:3HL8HNGX468D92OFCC1ISD82F4T9FH", "dateTime": 1516636275259}, {"current_trial": 31, "trialdata": {"rt": -1, "trial_type": "single-stim", "word": "poison", "stimulus": "<p id=\"stim\">POISON</p>", "conditions": [18, 1200, "v", 18000], "internal_node_id": "0.0-22.0", "trial": 0, "time_elapsed": 466032, "serialpos": 10, "key_press": -1, "wordID": 1095, "type": "PRES_VIS", "trial_index": 31}, "uniqueid": "MTK1960:3HL8HNGX468D92OFCC1ISD82F4T9FH", "dateTime": 1516636277512}, {"current_trial": 32, "trialdata": {"rt": -1, "trial_type": "single-stim", "word": "helmet", "stimulus": "<p id=\"stim\">HELMET</p>", "conditions": [18, 1200, "v", 18000], "internal_node_id": "0.0-23.0", "trial": 0, "time_elapsed": 468049, "serialpos": 11, "key_press": -1, "wordID": 701, "type": "PRES_VIS", "trial_index": 32}, "uniqueid": "MTK1960:3HL8HNGX468D92OFCC1ISD82F4T9FH", "dateTime": 1516636279529}, {"current_trial": 33, "trialdata": {"rt": -1, "trial_type": "single-stim", "word": "vagrant", "stimulus": "<p id=\"stim\">VAGRANT</p>", "conditions": [18, 1200, "v", 18000], "internal_node_id": "0.0-24.0", "trial": 0, "time_elapsed": 470100, "serialpos": 12, "key_press": -1, "wordID": 1543, "type": "PRES_VIS", "trial_index": 33}, "uniqueid": "MTK1960:3HL8HNGX468D92OFCC1ISD82F4T9FH", "dateTime": 1516636281580}, {"current_trial": 34, "trialdata": {"rt": -1, "trial_type": "single-stim", "word": "blouse", "stimulus": "<p id=\"stim\">BLOUSE</p>", "conditions": [18, 1200, "v", 18000], "internal_node_id": "0.0-25.0", "trial": 0, "time_elapsed": 472111, "serialpos": 13, "key_press": -1, "wordID": 138, "type": "PRES_VIS", "trial_index": 34}, "uniqueid": "MTK1960:3HL8HNGX468D92OFCC1ISD82F4T9FH", "dateTime": 1516636283592}, {"current_trial": 35, "trialdata": {"rt": -1, "trial_type": "single-stim", "word": "piano", "stimulus": "<p id=\"stim\">PIANO</p>", "conditions": [18, 1200, "v", 18000], "internal_node_id": "0.0-26.0", "trial": 0, "time_elapsed": 474301, "serialpos": 14, "key_press": -1, "wordID": 1056, "type": "PRES_VIS", "trial_index": 35}, "uniqueid": "MTK1960:3HL8HNGX468D92OFCC1ISD82F4T9FH", "dateTime": 1516636285781}, {"current_trial": 36, "trialdata": {"rt": -1, "trial_type": "single-stim", "word": "pluto", "stimulus": "<p id=\"stim\">PLUTO</p>", "conditions": [18, 1200, "v", 18000], "internal_node_id": "0.0-27.0", "trial": 0, "time_elapsed": 476470, "serialpos": 15, "key_press": -1, "wordID": 1091, "type": "PRES_VIS", "trial_index": 36}, "uniqueid": "MTK1960:3HL8HNGX468D92OFCC1ISD82F4T9FH", "dateTime": 1516636287950}, {"current_trial": 37, "trialdata": {"rt": -1, "trial_type": "single-stim", "word": "lumber", "stimulus": "<p id=\"stim\">LUMBER</p>", "conditions": [18, 1200, "v", 18000], "internal_node_id": "0.0-28.0", "trial": 0, "time_elapsed": 478838, "serialpos": 16, "key_press": -1, "wordID": 847, "type": "PRES_VIS", "trial_index": 37}, "uniqueid": "MTK1960:3HL8HNGX468D92OFCC1ISD82F4T9FH", "dateTime": 1516636290318}, {"current_trial": 38, "trialdata": {"rt": -1, "trial_type": "single-stim", "word": "laser", "stimulus": "<p id=\"stim\">LASER</p>", "conditions": [18, 1200, "v", 18000], "internal_node_id": "0.0-29.0", "trial": 0, "time_elapsed": 481186, "serialpos": 17, "key_press": -1, "wordID": 800, "type": "PRES_VIS", "trial_index": 38}, "uniqueid": "MTK1960:3HL8HNGX468D92OFCC1ISD82F4T9FH", "dateTime": 1516636292666}, {"current_trial": 39, "trialdata": {"rt": -1, "trial_type": "single-stim", "stimulus": "", "internal_node_id": "0.0-30.0-0.0", "time_elapsed": 483296, "key_press": -1, "type": "PRE_RECALL_DELAY", "trial_index": 39}, "uniqueid": "MTK1960:3HL8HNGX468D92OFCC1ISD82F4T9FH", "dateTime": 1516636294776}, {"current_trial": 40, "trialdata": {"rt": -1000, "trial_type": "single-audio", "stimulus": "/static/audio/400Hz.wav", "internal_node_id": "0.0-31.0", "time_elapsed": 483798, "key_press": -1, "type": "PRE_RECALL_ALERT", "trial_index": 40}, "uniqueid": "MTK1960:3HL8HNGX468D92OFCC1ISD82F4T9FH", "dateTime": 1516636295278}], "currenttrial": 41, "condition": 0, "mode": "live"}