{"assignmentId": "3GNA64GUZFBRZ4CCN2ZVSW7EYUM5QL", "workerId": "MTK1558", "questiondata": {"avail_screen_height": 824, "color_depth": 24, "screen_width": 1536, "pixel_depth": 24, "avail_screen_width": 1536, "screen_height": 864}, "bonus": 0, "hitId": "3VW0145YLYJ6Y4VBU9R6NDAUPOUMJ7", "counterbalance": 1718, "useragent": "Mozilla/5.0 (Windows NT 10.0; Win64; x64) AppleWebKit/537.36 (KHTML, like Gecko) Chrome/63.0.3239.132 Safari/537.36", "eventdata": [{"eventtype": "initialized", "interval": 0, "value": null, "timestamp": 1515969059880}, {"eventtype": "window_resize", "interval": 0, "value": [1540, 816], "timestamp": 1515969059880}, {"eventtype": "focus", "interval": 10381, "value": "off", "timestamp": 1515969070261}, {"eventtype": "focus", "interval": 28775, "value": "on", "timestamp": 1515969099036}, {"eventtype": "focus", "interval": 10946, "value": "off", "timestamp": 1515969109982}, {"eventtype": "focus", "interval": 5429, "value": "on", "timestamp": 1515969115411}], "data": [{"current_trial": 0, "trialdata": {"rt": 15775, "trial_type": "text", "internal_node_id": "0.0-0.0", "time_elapsed": 15777, "key_press": 74, "type": "INSTRUCTIONS", "trial_index": 0}, "uniqueid": "MTK1558:3GNA64GUZFBRZ4CCN2ZVSW7EYUM5QL", "dateTime": 1515969102110}, {"current_trial": 1, "trialdata": {"rt": 16749, "trial_type": "text", "internal_node_id": "0.0-1.0", "time_elapsed": 32527, "key_press": 76, "type": "INSTRUCTIONS", "trial_index": 1}, "uniqueid": "MTK1558:3GNA64GUZFBRZ4CCN2ZVSW7EYUM5QL", "dateTime": 1515969118859}, {"current_trial": 2, "trialdata": {"rt": [13635], "trial_type": "audio-test", "responses": ["ocean"], "internal_node_id": "0.0-2.0", "time_elapsed": 46170, "type": "AUDIO_TEST", "trial_index": 2}, "uniqueid": "MTK1558:3GNA64GUZFBRZ4CCN2ZVSW7EYUM5QL", "dateTime": 1515969132502}, {"current_trial": 3, "trialdata": {"rt": [14851], "trial_type": "audio-test", "responses": ["crystal"], "internal_node_id": "0.0-3.0", "time_elapsed": 61023, "type": "AUDIO_TEST", "trial_index": 3}, "uniqueid": "MTK1558:3GNA64GUZFBRZ4CCN2ZVSW7EYUM5QL", "dateTime": 1515969147355}, {"current_trial": 4, "trialdata": {"rt": [13245], "trial_type": "audio-test", "responses": ["spice"], "internal_node_id": "0.0-4.0", "time_elapsed": 74271, "type": "AUDIO_TEST", "trial_index": 4}, "uniqueid": "MTK1558:3GNA64GUZFBRZ4CCN2ZVSW7EYUM5QL", "dateTime": 1515969160603}, {"current_trial": 5, "trialdata": {"rt": 35680, "trial_type": "survey-text", "responses": "{\"Q0\":\"1:00AM\",\"Q1\":\"7:00AM\",\"Q2\":\"4\"}", "internal_node_id": "0.0-5.0", "time_elapsed": 110706, "type": "SLEEP_SURVEY", "trial_index": 5}, "uniqueid": "MTK1558:3GNA64GUZFBRZ4CCN2ZVSW7EYUM5QL", "dateTime": 1515969197038}, {"current_trial": 6, "trialdata": {"rt": 45451, "trial_type": "text", "internal_node_id": "0.0-6.0", "time_elapsed": 157158, "key_press": 74, "type": "INSTRUCTIONS", "trial_index": 6}, "uniqueid": "MTK1558:3GNA64GUZFBRZ4CCN2ZVSW7EYUM5QL", "dateTime": 1515969243490}, {"current_trial": 7, "trialdata": {"rt": 28107, "trial_type": "text", "internal_node_id": "0.0-7.0", "time_elapsed": 185767, "key_press": 75, "type": "INSTRUCTIONS", "trial_index": 7}, "uniqueid": "MTK1558:3GNA64GUZFBRZ4CCN2ZVSW7EYUM5QL", "dateTime": 1515969272099}, {"current_trial": 8, "trialdata": {"rt": 9038, "trial_type": "text", "internal_node_id": "0.0-8.0", "time_elapsed": 195308, "key_press": 75, "type": "INSTRUCTIONS", "trial_index": 8}, "uniqueid": "MTK1558:3GNA64GUZFBRZ4CCN2ZVSW7EYUM5QL", "dateTime": 1515969281640}, {"current_trial": 9, "trialdata": {"rt": [6253, 9228, 12910, 15344], "trial_type": "math-distractor", "key_times": [5235, 5492, 6253, 8319, 8562, 9228, 12065, 12410, 12910, 14422, 15344], "responses": ["12", "16", "16", "4"], "num2": [5, 5, 7, 2, 9], "num3": [5, 6, 8, 1, 5], "conditions": [18, 1200, "a", 18000], "internal_node_id": "0.0-9.0", "key_presses": [97, 98, 13, 97, 102, 13, 97, 102, 13, 100, 13], "trial": 0, "time_elapsed": 214369, "type": "DISTRACTOR", "trial_index": 9, "num1": [2, 5, 1, 1, 2]}, "uniqueid": "MTK1558:3GNA64GUZFBRZ4CCN2ZVSW7EYUM5QL", "dateTime": 1515969300702}, {"current_trial": 10, "trialdata": {"rt": -1, "trial_type": "single-stim", "stimulus": "<p id=\"stim\">10</p>", "internal_node_id": "0.0-10.0-0.0", "time_elapsed": 217373, "key_press": -1, "trial_index": 10}, "uniqueid": "MTK1558:3GNA64GUZFBRZ4CCN2ZVSW7EYUM5QL", "dateTime": 1515969303705}, {"current_trial": 11, "trialdata": {"rt": -1, "trial_type": "single-stim", "stimulus": "<p id=\"stim\">9</p>", "internal_node_id": "0.0-10.0-1.0", "time_elapsed": 218374, "key_press": -1, "trial_index": 11}, "uniqueid": "MTK1558:3GNA64GUZFBRZ4CCN2ZVSW7EYUM5QL", "dateTime": 1515969304707}, {"current_trial": 12, "trialdata": {"rt": -1, "trial_type": "single-stim", "stimulus": "<p id=\"stim\">8</p>", "internal_node_id": "0.0-10.0-2.0", "time_elapsed": 219376, "key_press": -1, "trial_index": 12}, "uniqueid": "MTK1558:3GNA64GUZFBRZ4CCN2ZVSW7EYUM5QL", "dateTime": 1515969305708}, {"current_trial": 13, "trialdata": {"rt": -1, "trial_type": "single-stim", "stimulus": "<p id=\"stim\">7</p>", "internal_node_id": "0.0-10.0-3.0", "time_elapsed": 220379, "key_press": -1, "trial_index": 13}, "uniqueid": "MTK1558:3GNA64GUZFBRZ4CCN2ZVSW7EYUM5QL", "dateTime": 1515969306711}, {"current_trial": 14, "trialdata": {"rt": -1, "trial_type": "single-stim", "stimulus": "<p id=\"stim\">6</p>", "internal_node_id": "0.0-10.0-4.0", "time_elapsed": 221381, "key_press": -1, "trial_index": 14}, "uniqueid": "MTK1558:3GNA64GUZFBRZ4CCN2ZVSW7EYUM5QL", "dateTime": 1515969307713}, {"current_trial": 15, "trialdata": {"rt": -1, "trial_type": "single-stim", "stimulus": "<p id=\"stim\">5</p>", "internal_node_id": "0.0-10.0-5.0", "time_elapsed": 222384, "key_press": -1, "trial_index": 15}, "uniqueid": "MTK1558:3GNA64GUZFBRZ4CCN2ZVSW7EYUM5QL", "dateTime": 1515969308716}, {"current_trial": 16, "trialdata": {"rt": -1, "trial_type": "single-stim", "stimulus": "<p id=\"stim\">4</p>", "internal_node_id": "0.0-10.0-6.0", "time_elapsed": 223386, "key_press": -1, "trial_index": 16}, "uniqueid": "MTK1558:3GNA64GUZFBRZ4CCN2ZVSW7EYUM5QL", "dateTime": 1515969309718}, {"current_trial": 17, "trialdata": {"rt": -1, "trial_type": "single-stim", "stimulus": "<p id=\"stim\">3</p>", "internal_node_id": "0.0-10.0-7.0", "time_elapsed": 224388, "key_press": -1, "trial_index": 17}, "uniqueid": "MTK1558:3GNA64GUZFBRZ4CCN2ZVSW7EYUM5QL", "dateTime": 1515969310720}, {"current_trial": 18, "trialdata": {"rt": -1, "trial_type": "single-stim", "stimulus": "<p id=\"stim\">2</p>", "internal_node_id": "0.0-10.0-8.0", "time_elapsed": 225390, "key_press": -1, "trial_index": 18}, "uniqueid": "MTK1558:3GNA64GUZFBRZ4CCN2ZVSW7EYUM5QL", "dateTime": 1515969311722}, {"current_trial": 19, "trialdata": {"rt": -1, "trial_type": "single-stim", "stimulus": "<p id=\"stim\">1</p>", "internal_node_id": "0.0-10.0-9.0", "time_elapsed": 226391, "key_press": -1, "trial_index": 19}, "uniqueid": "MTK1558:3GNA64GUZFBRZ4CCN2ZVSW7EYUM5QL", "dateTime": 1515969312723}, {"current_trial": 20, "trialdata": {"rt": -1, "trial_type": "single-stim", "stimulus": "<p id=\"stim\">+</p>", "internal_node_id": "0.0-11.0-0.0", "time_elapsed": 227893, "key_press": -1, "type": "FIXATION", "trial_index": 20}, "uniqueid": "MTK1558:3GNA64GUZFBRZ4CCN2ZVSW7EYUM5QL", "dateTime": 1515969314225}, {"current_trial": 21, "trialdata": {"rt": -1000, "trial_type": "single-audio", "word": "dorm", "stimulus": "/static/audio/wordpool/DORM.wav", "conditions": [18, 1200, "a", 18000], "internal_node_id": "0.0-12.0", "trial": 0, "time_elapsed": 229925, "serialpos": 0, "key_press": -1, "wordID": 487, "type": "PRES_AUD", "trial_index": 21}, "uniqueid": "MTK1558:3GNA64GUZFBRZ4CCN2ZVSW7EYUM5QL", "dateTime": 1515969316258}, {"current_trial": 22, "trialdata": {"rt": -1000, "trial_type": "single-audio", "word": "servant", "stimulus": "/static/audio/wordpool/SERVANT.wav", "conditions": [18, 1200, "a", 18000], "internal_node_id": "0.0-13.0", "trial": 0, "time_elapsed": 232079, "serialpos": 1, "key_press": -1, "wordID": 1270, "type": "PRES_AUD", "trial_index": 22}, "uniqueid": "MTK1558:3GNA64GUZFBRZ4CCN2ZVSW7EYUM5QL", "dateTime": 1515969318412}, {"current_trial": 23, "trialdata": {"rt": -1000, "trial_type": "single-audio", "word": "actor", "stimulus": "/static/audio/wordpool/ACTOR.wav", "conditions": [18, 1200, "a", 18000], "internal_node_id": "0.0-14.0", "trial": 0, "time_elapsed": 234173, "serialpos": 2, "key_press": -1, "wordID": 4, "type": "PRES_AUD", "trial_index": 23}, "uniqueid": "MTK1558:3GNA64GUZFBRZ4CCN2ZVSW7EYUM5QL", "dateTime": 1515969320505}, {"current_trial": 24, "trialdata": {"rt": -1000, "trial_type": "single-audio", "word": "shovel", "stimulus": "/static/audio/wordpool/SHOVEL.wav", "conditions": [18, 1200, "a", 18000], "internal_node_id": "0.0-15.0", "trial": 0, "time_elapsed": 236234, "serialpos": 3, "key_press": -1, "wordID": 1294, "type": "PRES_AUD", "trial_index": 24}, "uniqueid": "MTK1558:3GNA64GUZFBRZ4CCN2ZVSW7EYUM5QL", "dateTime": 1515969322567}, {"current_trial": 25, "trialdata": {"rt": -1000, "trial_type": "single-audio", "word": "swamp", "stimulus": "/static/audio/wordpool/SWAMP.wav", "conditions": [18, 1200, "a", 18000], "internal_node_id": "0.0-16.0", "trial": 0, "time_elapsed": 238329, "serialpos": 4, "key_press": -1, "wordID": 1415, "type": "PRES_AUD", "trial_index": 25}, "uniqueid": "MTK1558:3GNA64GUZFBRZ4CCN2ZVSW7EYUM5QL", "dateTime": 1515969324661}, {"current_trial": 26, "trialdata": {"rt": -1000, "trial_type": "single-audio", "word": "spouse", "stimulus": "/static/audio/wordpool/SPOUSE.wav", "conditions": [18, 1200, "a", 18000], "internal_node_id": "0.0-17.0", "trial": 0, "time_elapsed": 240547, "serialpos": 5, "key_press": -1, "wordID": 1357, "type": "PRES_AUD", "trial_index": 26}, "uniqueid": "MTK1558:3GNA64GUZFBRZ4CCN2ZVSW7EYUM5QL", "dateTime": 1515969326879}, {"current_trial": 27, "trialdata": {"rt": -1000, "trial_type": "single-audio", "word": "blender", "stimulus": "/static/audio/wordpool/BLENDER.wav", "conditions": [18, 1200, "a", 18000], "internal_node_id": "0.0-18.0", "trial": 0, "time_elapsed": 242614, "serialpos": 6, "key_press": -1, "wordID": 135, "type": "PRES_AUD", "trial_index": 27}, "uniqueid": "MTK1558:3GNA64GUZFBRZ4CCN2ZVSW7EYUM5QL", "dateTime": 1515969328946}, {"current_trial": 28, "trialdata": {"rt": -1000, "trial_type": "single-audio", "word": "lapel", "stimulus": "/static/audio/wordpool/LAPEL.wav", "conditions": [18, 1200, "a", 18000], "internal_node_id": "0.0-19.0", "trial": 0, "time_elapsed": 244661, "serialpos": 7, "key_press": -1, "wordID": 799, "type": "PRES_AUD", "trial_index": 28}, "uniqueid": "MTK1558:3GNA64GUZFBRZ4CCN2ZVSW7EYUM5QL", "dateTime": 1515969330993}, {"current_trial": 29, "trialdata": {"rt": -1000, "trial_type": "single-audio", "word": "label", "stimulus": "/static/audio/wordpool/LABEL.wav", "conditions": [18, 1200, "a", 18000], "internal_node_id": "0.0-20.0", "trial": 0, "time_elapsed": 246784, "serialpos": 8, "key_press": -1, "wordID": 789, "type": "PRES_AUD", "trial_index": 29}, "uniqueid": "MTK1558:3GNA64GUZFBRZ4CCN2ZVSW7EYUM5QL", "dateTime": 1515969333116}, {"current_trial": 30, "trialdata": {"rt": -1000, "trial_type": "single-audio", "word": "grape", "stimulus": "/static/audio/wordpool/GRAPE.wav", "conditions": [18, 1200, "a", 18000], "internal_node_id": "0.0-21.0", "trial": 0, "time_elapsed": 249184, "serialpos": 9, "key_press": -1, "wordID": 653, "type": "PRES_AUD", "trial_index": 30}, "uniqueid": "MTK1558:3GNA64GUZFBRZ4CCN2ZVSW7EYUM5QL", "dateTime": 1515969335516}, {"current_trial": 31, "trialdata": {"rt": -1000, "trial_type": "single-audio", "word": "ulcer", "stimulus": "/static/audio/wordpool/ULCER.wav", "conditions": [18, 1200, "a", 18000], "internal_node_id": "0.0-22.0", "trial": 0, "time_elapsed": 251499, "serialpos": 10, "key_press": -1, "wordID": 1532, "type": "PRES_AUD", "trial_index": 31}, "uniqueid": "MTK1558:3GNA64GUZFBRZ4CCN2ZVSW7EYUM5QL", "dateTime": 1515969337831}, {"current_trial": 32, "trialdata": {"rt": -1000, "trial_type": "single-audio", "word": "lodge", "stimulus": "/static/audio/wordpool/LODGE.wav", "conditions": [18, 1200, "a", 18000], "internal_node_id": "0.0-23.0", "trial": 0, "time_elapsed": 253823, "serialpos": 11, "key_press": -1, "wordID": 838, "type": "PRES_AUD", "trial_index": 32}, "uniqueid": "MTK1558:3GNA64GUZFBRZ4CCN2ZVSW7EYUM5QL", "dateTime": 1515969340155}, {"current_trial": 33, "trialdata": {"rt": -1000, "trial_type": "single-audio", "word": "silk", "stimulus": "/static/audio/wordpool/SILK.wav", "conditions": [18, 1200, "a", 18000], "internal_node_id": "0.0-24.0", "trial": 0, "time_elapsed": 256003, "serialpos": 12, "key_press": -1, "wordID": 1306, "type": "PRES_AUD", "trial_index": 33}, "uniqueid": "MTK1558:3GNA64GUZFBRZ4CCN2ZVSW7EYUM5QL", "dateTime": 1515969342335}, {"current_trial": 34, "trialdata": {"rt": -1000, "trial_type": "single-audio", "word": "crab", "stimulus": "/static/audio/wordpool/CRAB.wav", "conditions": [18, 1200, "a", 18000], "internal_node_id": "0.0-25.0", "trial": 0, "time_elapsed": 258115, "serialpos": 13, "key_press": -1, "wordID": 396, "type": "PRES_AUD", "trial_index": 34}, "uniqueid": "MTK1558:3GNA64GUZFBRZ4CCN2ZVSW7EYUM5QL", "dateTime": 1515969344447}, {"current_trial": 35, "trialdata": {"rt": -1000, "trial_type": "single-audio", "word": "marrow", "stimulus": "/static/audio/wordpool/MARROW.wav", "conditions": [18, 1200, "a", 18000], "internal_node_id": "0.0-26.0", "trial": 0, "time_elapsed": 260266, "serialpos": 14, "key_press": -1, "wordID": 871, "type": "PRES_AUD", "trial_index": 35}, "uniqueid": "MTK1558:3GNA64GUZFBRZ4CCN2ZVSW7EYUM5QL", "dateTime": 1515969346598}, {"current_trial": 36, "trialdata": {"rt": -1000, "trial_type": "single-audio", "word": "europe", "stimulus": "/static/audio/wordpool/EUROPE.wav", "conditions": [18, 1200, "a", 18000], "internal_node_id": "0.0-27.0", "trial": 0, "time_elapsed": 262647, "serialpos": 15, "key_press": -1, "wordID": 540, "type": "PRES_AUD", "trial_index": 36}, "uniqueid": "MTK1558:3GNA64GUZFBRZ4CCN2ZVSW7EYUM5QL", "dateTime": 1515969348979}, {"current_trial": 37, "trialdata": {"rt": -1000, "trial_type": "single-audio", "word": "couch", "stimulus": "/static/audio/wordpool/COUCH.wav", "conditions": [18, 1200, "a", 18000], "internal_node_id": "0.0-28.0", "trial": 0, "time_elapsed": 264826, "serialpos": 16, "key_press": -1, "wordID": 385, "type": "PRES_AUD", "trial_index": 37}, "uniqueid": "MTK1558:3GNA64GUZFBRZ4CCN2ZVSW7EYUM5QL", "dateTime": 1515969351159}, {"current_trial": 38, "trialdata": {"rt": -1000, "trial_type": "single-audio", "word": "leopard", "stimulus": "/static/audio/wordpool/LEOPARD.wav", "conditions": [18, 1200, "a", 18000], "internal_node_id": "0.0-29.0", "trial": 0, "time_elapsed": 267165, "serialpos": 17, "key_press": -1, "wordID": 811, "type": "PRES_AUD", "trial_index": 38}, "uniqueid": "MTK1558:3GNA64GUZFBRZ4CCN2ZVSW7EYUM5QL", "dateTime": 1515969353497}, {"current_trial": 39, "trialdata": {"rt": -1, "trial_type": "single-stim", "stimulus": "", "internal_node_id": "0.0-30.0-0.0", "time_elapsed": 268416, "key_press": -1, "type": "PRE_RECALL_DELAY", "trial_index": 39}, "uniqueid": "MTK1558:3GNA64GUZFBRZ4CCN2ZVSW7EYUM5QL", "dateTime": 1515969354748}, {"current_trial": 40, "trialdata": {"rt": -1000, "trial_type": "single-audio", "stimulus": "/static/audio/400Hz.wav", "internal_node_id": "0.0-31.0", "time_elapsed": 268918, "key_press": -1, "type": "PRE_RECALL_ALERT", "trial_index": 40}, "uniqueid": "MTK1558:3GNA64GUZFBRZ4CCN2ZVSW7EYUM5QL", "dateTime": 1515969355250}, {"current_trial": 41, "trialdata": {"rt": [5903, 11685, 15871, 19141, 23913, 27228, 29748, 33372, 36545, 40442, 46011, 49208, 54128], "recwords": ["dorm", "actor", "shovel", "swamp", "blender", "label", "ulcer", "lodge", "silk", "crab", "europe", "couch", "leopard"], "key_times": [3783, 4151, 4489, 4749, 5903, 8227, 8552, 9991, 10250, 10417, 11685, 14174, 14405, 14660, 15033, 15364, 15590, 15871, 16709, 17020, 17278, 17433, 17677, 19141, 21560, 21772, 22169, 22597, 23072, 23305, 23595, 23913, 24686, 24904, 25309, 25663, 25836, 27228, 28206, 28555, 29097, 29369, 29578, 29748, 30435, 30660, 31202, 31708, 31881, 33372, 35152, 35381, 35649, 36199, 36545, 37001, 37250, 37937, 38163, 40442, 42866, 43221, 43836, 44125, 44340, 44614, 46011, 47717, 47917, 48149, 48456, 48617, 49208, 49921, 50698, 50927, 51134, 51501, 51974, 52513, 54128], "trial_type": "free-recall", "conditions": [18, 1200, "a", 18000], "internal_node_id": "0.0-32.0-0.0", "key_presses": [68, 79, 82, 77, 13, 65, 67, 84, 79, 82, 13, 83, 72, 79, 86, 69, 76, 13, 83, 87, 65, 77, 80, 13, 66, 76, 69, 78, 68, 69, 82, 32, 76, 65, 66, 69, 76, 13, 85, 76, 67, 69, 82, 32, 76, 79, 68, 71, 69, 13, 83, 73, 76, 75, 13, 67, 82, 65, 66, 13, 69, 85, 82, 79, 80, 69, 13, 67, 79, 85, 67, 72, 13, 76, 69, 79, 80, 65, 82, 68, 13], "trial": 0, "time_elapsed": 328921, "type": "FREE_RECALL", "trial_index": 41}, "uniqueid": "MTK1558:3GNA64GUZFBRZ4CCN2ZVSW7EYUM5QL", "dateTime": 1515969415256}, {"current_trial": 42, "trialdata": {"rt": 2556, "trial_type": "text", "internal_node_id": "0.0-33.0", "time_elapsed": 333480, "key_press": 13, "type": "INSTRUCTIONS", "trial_index": 42}, "uniqueid": "MTK1558:3GNA64GUZFBRZ4CCN2ZVSW7EYUM5QL", "dateTime": 1515969419812}, {"current_trial": 43, "trialdata": {"rt": [7150, 9700, 12884, 14584, 17601], "trial_type": "math-distractor", "key_times": [5120, 5365, 6356, 6899, 7150, 9220, 9409, 9700, 12471, 12650, 12884, 14211, 14336, 14584, 17142, 17299, 17601], "responses": ["13", "15", "10", "11", "16"], "num2": [3, 5, 6, 2, 5, 2], "num3": [4, 3, 3, 8, 2, 5], "conditions": [18, 1200, "a", 18000], "internal_node_id": "0.0-34.0", "key_presses": [97, 98, 8, 99, 13, 97, 101, 13, 97, 96, 13, 97, 97, 13, 97, 102, 13], "trial": 1, "time_elapsed": 353484, "type": "DISTRACTOR", "trial_index": 43, "num1": [6, 7, 1, 1, 9, 6]}, "uniqueid": "MTK1558:3GNA64GUZFBRZ4CCN2ZVSW7EYUM5QL", "dateTime": 1515969439817}, {"current_trial": 44, "trialdata": {"rt": -1, "trial_type": "single-stim", "stimulus": "<p id=\"stim\">10</p>", "internal_node_id": "0.0-35.0-0.0", "time_elapsed": 356488, "key_press": -1, "trial_index": 44}, "uniqueid": "MTK1558:3GNA64GUZFBRZ4CCN2ZVSW7EYUM5QL", "dateTime": 1515969442820}, {"current_trial": 45, "trialdata": {"rt": -1, "trial_type": "single-stim", "stimulus": "<p id=\"stim\">9</p>", "internal_node_id": "0.0-35.0-1.0", "time_elapsed": 357490, "key_press": -1, "trial_index": 45}, "uniqueid": "MTK1558:3GNA64GUZFBRZ4CCN2ZVSW7EYUM5QL", "dateTime": 1515969443822}, {"current_trial": 46, "trialdata": {"rt": -1, "trial_type": "single-stim", "stimulus": "<p id=\"stim\">8</p>", "internal_node_id": "0.0-35.0-2.0", "time_elapsed": 358491, "key_press": -1, "trial_index": 46}, "uniqueid": "MTK1558:3GNA64GUZFBRZ4CCN2ZVSW7EYUM5QL", "dateTime": 1515969444823}, {"current_trial": 47, "trialdata": {"rt": -1, "trial_type": "single-stim", "stimulus": "<p id=\"stim\">7</p>", "internal_node_id": "0.0-35.0-3.0", "time_elapsed": 359493, "key_press": -1, "trial_index": 47}, "uniqueid": "MTK1558:3GNA64GUZFBRZ4CCN2ZVSW7EYUM5QL", "dateTime": 1515969445825}, {"current_trial": 48, "trialdata": {"rt": -1, "trial_type": "single-stim", "stimulus": "<p id=\"stim\">6</p>", "internal_node_id": "0.0-35.0-4.0", "time_elapsed": 360495, "key_press": -1, "trial_index": 48}, "uniqueid": "MTK1558:3GNA64GUZFBRZ4CCN2ZVSW7EYUM5QL", "dateTime": 1515969446827}, {"current_trial": 49, "trialdata": {"rt": -1, "trial_type": "single-stim", "stimulus": "<p id=\"stim\">5</p>", "internal_node_id": "0.0-35.0-5.0", "time_elapsed": 361496, "key_press": -1, "trial_index": 49}, "uniqueid": "MTK1558:3GNA64GUZFBRZ4CCN2ZVSW7EYUM5QL", "dateTime": 1515969447829}, {"current_trial": 50, "trialdata": {"rt": -1, "trial_type": "single-stim", "stimulus": "<p id=\"stim\">4</p>", "internal_node_id": "0.0-35.0-6.0", "time_elapsed": 362500, "key_press": -1, "trial_index": 50}, "uniqueid": "MTK1558:3GNA64GUZFBRZ4CCN2ZVSW7EYUM5QL", "dateTime": 1515969448832}, {"current_trial": 51, "trialdata": {"rt": -1, "trial_type": "single-stim", "stimulus": "<p id=\"stim\">3</p>", "internal_node_id": "0.0-35.0-7.0", "time_elapsed": 363502, "key_press": -1, "trial_index": 51}, "uniqueid": "MTK1558:3GNA64GUZFBRZ4CCN2ZVSW7EYUM5QL", "dateTime": 1515969449834}, {"current_trial": 52, "trialdata": {"rt": -1, "trial_type": "single-stim", "stimulus": "<p id=\"stim\">2</p>", "internal_node_id": "0.0-35.0-8.0", "time_elapsed": 364504, "key_press": -1, "trial_index": 52}, "uniqueid": "MTK1558:3GNA64GUZFBRZ4CCN2ZVSW7EYUM5QL", "dateTime": 1515969450836}, {"current_trial": 53, "trialdata": {"rt": -1, "trial_type": "single-stim", "stimulus": "<p id=\"stim\">1</p>", "internal_node_id": "0.0-35.0-9.0", "time_elapsed": 365506, "key_press": -1, "trial_index": 53}, "uniqueid": "MTK1558:3GNA64GUZFBRZ4CCN2ZVSW7EYUM5QL", "dateTime": 1515969451838}, {"current_trial": 54, "trialdata": {"rt": -1, "trial_type": "single-stim", "stimulus": "<p id=\"stim\">+</p>", "internal_node_id": "0.0-36.0-0.0", "time_elapsed": 367008, "key_press": -1, "type": "FIXATION", "trial_index": 54}, "uniqueid": "MTK1558:3GNA64GUZFBRZ4CCN2ZVSW7EYUM5QL", "dateTime": 1515969453340}, {"current_trial": 55, "trialdata": {"rt": -1000, "trial_type": "single-audio", "word": "brother", "stimulus": "/static/audio/wordpool/BROTHER.wav", "conditions": [18, 1200, "a", 18000], "internal_node_id": "0.0-37.0", "trial": 1, "time_elapsed": 369257, "serialpos": 0, "key_press": -1, "wordID": 178, "type": "PRES_AUD", "trial_index": 55}, "uniqueid": "MTK1558:3GNA64GUZFBRZ4CCN2ZVSW7EYUM5QL", "dateTime": 1515969455590}, {"current_trial": 56, "trialdata": {"rt": -1000, "trial_type": "single-audio", "word": "message", "stimulus": "/static/audio/wordpool/MESSAGE.wav", "conditions": [18, 1200, "a", 18000], "internal_node_id": "0.0-38.0", "trial": 1, "time_elapsed": 371574, "serialpos": 1, "key_press": -1, "wordID": 887, "type": "PRES_AUD", "trial_index": 56}, "uniqueid": "MTK1558:3GNA64GUZFBRZ4CCN2ZVSW7EYUM5QL", "dateTime": 1515969457906}, {"current_trial": 57, "trialdata": {"rt": -1000, "trial_type": "single-audio", "word": "brook", "stimulus": "/static/audio/wordpool/BROOK.wav", "conditions": [18, 1200, "a", 18000], "internal_node_id": "0.0-39.0", "trial": 1, "time_elapsed": 373959, "serialpos": 2, "key_press": -1, "wordID": 176, "type": "PRES_AUD", "trial_index": 57}, "uniqueid": "MTK1558:3GNA64GUZFBRZ4CCN2ZVSW7EYUM5QL", "dateTime": 1515969460291}, {"current_trial": 58, "trialdata": {"rt": -1000, "trial_type": "single-audio", "word": "clamp", "stimulus": "/static/audio/wordpool/CLAMP.wav", "conditions": [18, 1200, "a", 18000], "internal_node_id": "0.0-40.0", "trial": 1, "time_elapsed": 376293, "serialpos": 3, "key_press": -1, "wordID": 315, "type": "PRES_AUD", "trial_index": 58}, "uniqueid": "MTK1558:3GNA64GUZFBRZ4CCN2ZVSW7EYUM5QL", "dateTime": 1515969462625}, {"current_trial": 59, "trialdata": {"rt": -1000, "trial_type": "single-audio", "word": "thief", "stimulus": "/static/audio/wordpool/THIEF.wav", "conditions": [18, 1200, "a", 18000], "internal_node_id": "0.0-41.0", "trial": 1, "time_elapsed": 378424, "serialpos": 4, "key_press": -1, "wordID": 1455, "type": "PRES_AUD", "trial_index": 59}, "uniqueid": "MTK1558:3GNA64GUZFBRZ4CCN2ZVSW7EYUM5QL", "dateTime": 1515969464757}, {"current_trial": 60, "trialdata": {"rt": -1000, "trial_type": "single-audio", "word": "buggy", "stimulus": "/static/audio/wordpool/BUGGY.wav", "conditions": [18, 1200, "a", 18000], "internal_node_id": "0.0-42.0", "trial": 1, "time_elapsed": 380493, "serialpos": 5, "key_press": -1, "wordID": 187, "type": "PRES_AUD", "trial_index": 60}, "uniqueid": "MTK1558:3GNA64GUZFBRZ4CCN2ZVSW7EYUM5QL", "dateTime": 1515969466825}, {"current_trial": 61, "trialdata": {"rt": -1000, "trial_type": "single-audio", "word": "office", "stimulus": "/static/audio/wordpool/OFFICE.wav", "conditions": [18, 1200, "a", 18000], "internal_node_id": "0.0-43.0", "trial": 1, "time_elapsed": 382763, "serialpos": 6, "key_press": -1, "wordID": 971, "type": "PRES_AUD", "trial_index": 61}, "uniqueid": "MTK1558:3GNA64GUZFBRZ4CCN2ZVSW7EYUM5QL", "dateTime": 1515969469095}, {"current_trial": 62, "trialdata": {"rt": -1000, "trial_type": "single-audio", "word": "rifle", "stimulus": "/static/audio/wordpool/RIFLE.wav", "conditions": [18, 1200, "a", 18000], "internal_node_id": "0.0-44.0", "trial": 1, "time_elapsed": 385030, "serialpos": 7, "key_press": -1, "wordID": 1191, "type": "PRES_AUD", "trial_index": 62}, "uniqueid": "MTK1558:3GNA64GUZFBRZ4CCN2ZVSW7EYUM5QL", "dateTime": 1515969471363}, {"current_trial": 63, "trialdata": {"rt": -1000, "trial_type": "single-audio", "word": "fireplace", "stimulus": "/static/audio/wordpool/FIREPLACE.wav", "conditions": [18, 1200, "a", 18000], "internal_node_id": "0.0-45.0", "trial": 1, "time_elapsed": 387111, "serialpos": 8, "key_press": -1, "wordID": 569, "type": "PRES_AUD", "trial_index": 63}, "uniqueid": "MTK1558:3GNA64GUZFBRZ4CCN2ZVSW7EYUM5QL", "dateTime": 1515969473444}, {"current_trial": 64, "trialdata": {"rt": -1000, "trial_type": "single-audio", "word": "onion", "stimulus": "/static/audio/wordpool/ONION.wav", "conditions": [18, 1200, "a", 18000], "internal_node_id": "0.0-46.0", "trial": 1, "time_elapsed": 389387, "serialpos": 9, "key_press": -1, "wordID": 976, "type": "PRES_AUD", "trial_index": 64}, "uniqueid": "MTK1558:3GNA64GUZFBRZ4CCN2ZVSW7EYUM5QL", "dateTime": 1515969475720}, {"current_trial": 65, "trialdata": {"rt": -1000, "trial_type": "single-audio", "word": "lagoon", "stimulus": "/static/audio/wordpool/LAGOON.wav", "conditions": [18, 1200, "a", 18000], "internal_node_id": "0.0-47.0", "trial": 1, "time_elapsed": 391537, "serialpos": 10, "key_press": -1, "wordID": 794, "type": "PRES_AUD", "trial_index": 65}, "uniqueid": "MTK1558:3GNA64GUZFBRZ4CCN2ZVSW7EYUM5QL", "dateTime": 1515969477869}, {"current_trial": 66, "trialdata": {"rt": -1000, "trial_type": "single-audio", "word": "playground", "stimulus": "/static/audio/wordpool/PLAYGROUND.wav", "conditions": [18, 1200, "a", 18000], "internal_node_id": "0.0-48.0", "trial": 1, "time_elapsed": 393787, "serialpos": 11, "key_press": -1, "wordID": 1086, "type": "PRES_AUD", "trial_index": 66}, "uniqueid": "MTK1558:3GNA64GUZFBRZ4CCN2ZVSW7EYUM5QL", "dateTime": 1515969480119}, {"current_trial": 67, "trialdata": {"rt": -1000, "trial_type": "single-audio", "word": "sausage", "stimulus": "/static/audio/wordpool/SAUSAGE.wav", "conditions": [18, 1200, "a", 18000], "internal_node_id": "0.0-49.0", "trial": 1, "time_elapsed": 395896, "serialpos": 12, "key_press": -1, "wordID": 1237, "type": "PRES_AUD", "trial_index": 67}, "uniqueid": "MTK1558:3GNA64GUZFBRZ4CCN2ZVSW7EYUM5QL", "dateTime": 1515969482228}, {"current_trial": 68, "trialdata": {"rt": -1000, "trial_type": "single-audio", "word": "racket", "stimulus": "/static/audio/wordpool/RACKET.wav", "conditions": [18, 1200, "a", 18000], "internal_node_id": "0.0-50.0", "trial": 1, "time_elapsed": 398224, "serialpos": 13, "key_press": -1, "wordID": 1154, "type": "PRES_AUD", "trial_index": 68}, "uniqueid": "MTK1558:3GNA64GUZFBRZ4CCN2ZVSW7EYUM5QL", "dateTime": 1515969484560}, {"current_trial": 69, "trialdata": {"rt": -1000, "trial_type": "single-audio", "word": "penguin", "stimulus": "/static/audio/wordpool/PENGUIN.wav", "conditions": [18, 1200, "a", 18000], "internal_node_id": "0.0-51.0", "trial": 1, "time_elapsed": 400607, "serialpos": 14, "key_press": -1, "wordID": 1043, "type": "PRES_AUD", "trial_index": 69}, "uniqueid": "MTK1558:3GNA64GUZFBRZ4CCN2ZVSW7EYUM5QL", "dateTime": 1515969486939}, {"current_trial": 70, "trialdata": {"rt": -1000, "trial_type": "single-audio", "word": "report", "stimulus": "/static/audio/wordpool/REPORT.wav", "conditions": [18, 1200, "a", 18000], "internal_node_id": "0.0-52.0", "trial": 1, "time_elapsed": 402747, "serialpos": 15, "key_press": -1, "wordID": 1183, "type": "PRES_AUD", "trial_index": 70}, "uniqueid": "MTK1558:3GNA64GUZFBRZ4CCN2ZVSW7EYUM5QL", "dateTime": 1515969489079}, {"current_trial": 71, "trialdata": {"rt": -1000, "trial_type": "single-audio", "word": "bike", "stimulus": "/static/audio/wordpool/BIKE.wav", "conditions": [18, 1200, "a", 18000], "internal_node_id": "0.0-53.0", "trial": 1, "time_elapsed": 404779, "serialpos": 16, "key_press": -1, "wordID": 124, "type": "PRES_AUD", "trial_index": 71}, "uniqueid": "MTK1558:3GNA64GUZFBRZ4CCN2ZVSW7EYUM5QL", "dateTime": 1515969491111}, {"current_trial": 72, "trialdata": {"rt": -1000, "trial_type": "single-audio", "word": "rocket", "stimulus": "/static/audio/wordpool/ROCKET.wav", "conditions": [18, 1200, "a", 18000], "internal_node_id": "0.0-54.0", "trial": 1, "time_elapsed": 407176, "serialpos": 17, "key_press": -1, "wordID": 1201, "type": "PRES_AUD", "trial_index": 72}, "uniqueid": "MTK1558:3GNA64GUZFBRZ4CCN2ZVSW7EYUM5QL", "dateTime": 1515969493508}, {"current_trial": 73, "trialdata": {"rt": -1, "trial_type": "single-stim", "stimulus": "", "internal_node_id": "0.0-55.0-0.0", "time_elapsed": 408557, "key_press": -1, "type": "PRE_RECALL_DELAY", "trial_index": 73}, "uniqueid": "MTK1558:3GNA64GUZFBRZ4CCN2ZVSW7EYUM5QL", "dateTime": 1515969494889}, {"current_trial": 74, "trialdata": {"rt": -1000, "trial_type": "single-audio", "stimulus": "/static/audio/400Hz.wav", "internal_node_id": "0.0-56.0", "time_elapsed": 409059, "key_press": -1, "type": "PRE_RECALL_ALERT", "trial_index": 74}, "uniqueid": "MTK1558:3GNA64GUZFBRZ4CCN2ZVSW7EYUM5QL", "dateTime": 1515969495391}], "currenttrial": 75, "condition": 1, "mode": "live"}