{"assignmentId": "30X31N5D64X0IQ36A2FHV7218W9SA4", "workerId": "MTK1559", "questiondata": {"avail_screen_height": 1040, "color_depth": 24, "screen_width": 1920, "pixel_depth": 24, "avail_screen_width": 1920, "screen_height": 1080}, "bonus": 0, "hitId": "3MXX6RQ9EVCMGP93JIWUYFF6CWE4PT", "counterbalance": 690, "useragent": "Mozilla/5.0 (Windows NT 10.0; Win64; x64) AppleWebKit/537.36 (KHTML, like Gecko) Chrome/63.0.3239.132 Safari/537.36", "eventdata": [{"eventtype": "initialized", "interval": 0, "value": null, "timestamp": 1515970365794}, {"eventtype": "window_resize", "interval": 0, "value": [1920, 1033], "timestamp": 1515970365794}, {"eventtype": "window_resize", "interval": 2055, "value": [1920, 950], "timestamp": 1515970367849}], "data": [{"current_trial": 0, "trialdata": {"rt": 3170, "trial_type": "text", "internal_node_id": "0.0-0.0", "time_elapsed": 3173, "key_press": 32, "type": "INSTRUCTIONS", "trial_index": 0}, "uniqueid": "MTK1559:30X31N5D64X0IQ36A2FHV7218W9SA4", "dateTime": 1515970370145}, {"current_trial": 1, "trialdata": {"rt": 19171, "trial_type": "text", "internal_node_id": "0.0-1.0", "time_elapsed": 22346, "key_press": 32, "type": "INSTRUCTIONS", "trial_index": 1}, "uniqueid": "MTK1559:30X31N5D64X0IQ36A2FHV7218W9SA4", "dateTime": 1515970389318}, {"current_trial": 2, "trialdata": {"rt": [11430], "trial_type": "audio-test", "responses": ["ocean"], "internal_node_id": "0.0-2.0", "time_elapsed": 33794, "type": "AUDIO_TEST", "trial_index": 2}, "uniqueid": "MTK1559:30X31N5D64X0IQ36A2FHV7218W9SA4", "dateTime": 1515970400765}, {"current_trial": 3, "trialdata": {"rt": [6991], "trial_type": "audio-test", "responses": ["crystal"], "internal_node_id": "0.0-3.0", "time_elapsed": 40793, "type": "AUDIO_TEST", "trial_index": 3}, "uniqueid": "MTK1559:30X31N5D64X0IQ36A2FHV7218W9SA4", "dateTime": 1515970407764}, {"current_trial": 4, "trialdata": {"rt": [5569], "trial_type": "audio-test", "responses": ["spice"], "internal_node_id": "0.0-4.0", "time_elapsed": 46369, "type": "AUDIO_TEST", "trial_index": 4}, "uniqueid": "MTK1559:30X31N5D64X0IQ36A2FHV7218W9SA4", "dateTime": 1515970413340}, {"current_trial": 5, "trialdata": {"rt": 33075, "trial_type": "survey-text", "responses": "{\"Q0\":\"2:00 am\",\"Q1\":\"10:00 am\",\"Q2\":\"5\"}", "internal_node_id": "0.0-5.0", "time_elapsed": 80199, "type": "SLEEP_SURVEY", "trial_index": 5}, "uniqueid": "MTK1559:30X31N5D64X0IQ36A2FHV7218W9SA4", "dateTime": 1515970447170}, {"current_trial": 6, "trialdata": {"rt": 45378, "trial_type": "text", "internal_node_id": "0.0-6.0", "time_elapsed": 126581, "key_press": 32, "type": "INSTRUCTIONS", "trial_index": 6}, "uniqueid": "MTK1559:30X31N5D64X0IQ36A2FHV7218W9SA4", "dateTime": 1515970493552}, {"current_trial": 7, "trialdata": {"rt": 15584, "trial_type": "text", "internal_node_id": "0.0-7.0", "time_elapsed": 142667, "key_press": 32, "type": "INSTRUCTIONS", "trial_index": 7}, "uniqueid": "MTK1559:30X31N5D64X0IQ36A2FHV7218W9SA4", "dateTime": 1515970509638}, {"current_trial": 8, "trialdata": {"rt": 10159, "trial_type": "text", "internal_node_id": "0.0-8.0", "time_elapsed": 153328, "key_press": 32, "type": "INSTRUCTIONS", "trial_index": 8}, "uniqueid": "MTK1559:30X31N5D64X0IQ36A2FHV7218W9SA4", "dateTime": 1515970520300}, {"current_trial": 9, "trialdata": {"rt": [3770, 6305, 8713, 14200], "trial_type": "math-distractor", "key_times": [3090, 3770, 5642, 5842, 6305, 8177, 8274, 8713, 13745, 13873, 14200, 17377, 17496], "responses": ["8", "18", "18", "22"], "num2": [4, 9, 6, 8, 5], "num3": [2, 8, 9, 9, 8], "conditions": [18, 1200, "v", 18000], "internal_node_id": "0.0-9.0", "key_presses": [104, 13, 97, 104, 13, 97, 104, 13, 98, 98, 13, 97, 100], "trial": 0, "time_elapsed": 172335, "type": "DISTRACTOR", "trial_index": 9, "num1": [2, 1, 3, 5, 1]}, "uniqueid": "MTK1559:30X31N5D64X0IQ36A2FHV7218W9SA4", "dateTime": 1515970539307}, {"current_trial": 10, "trialdata": {"rt": -1, "trial_type": "single-stim", "stimulus": "<p id=\"stim\">10</p>", "internal_node_id": "0.0-10.0-0.0", "time_elapsed": 175338, "key_press": -1, "trial_index": 10}, "uniqueid": "MTK1559:30X31N5D64X0IQ36A2FHV7218W9SA4", "dateTime": 1515970542309}, {"current_trial": 11, "trialdata": {"rt": -1, "trial_type": "single-stim", "stimulus": "<p id=\"stim\">9</p>", "internal_node_id": "0.0-10.0-1.0", "time_elapsed": 176340, "key_press": -1, "trial_index": 11}, "uniqueid": "MTK1559:30X31N5D64X0IQ36A2FHV7218W9SA4", "dateTime": 1515970543311}, {"current_trial": 12, "trialdata": {"rt": -1, "trial_type": "single-stim", "stimulus": "<p id=\"stim\">8</p>", "internal_node_id": "0.0-10.0-2.0", "time_elapsed": 177340, "key_press": -1, "trial_index": 12}, "uniqueid": "MTK1559:30X31N5D64X0IQ36A2FHV7218W9SA4", "dateTime": 1515970544311}, {"current_trial": 13, "trialdata": {"rt": -1, "trial_type": "single-stim", "stimulus": "<p id=\"stim\">7</p>", "internal_node_id": "0.0-10.0-3.0", "time_elapsed": 178340, "key_press": -1, "trial_index": 13}, "uniqueid": "MTK1559:30X31N5D64X0IQ36A2FHV7218W9SA4", "dateTime": 1515970545312}, {"current_trial": 14, "trialdata": {"rt": -1, "trial_type": "single-stim", "stimulus": "<p id=\"stim\">6</p>", "internal_node_id": "0.0-10.0-4.0", "time_elapsed": 179343, "key_press": -1, "trial_index": 14}, "uniqueid": "MTK1559:30X31N5D64X0IQ36A2FHV7218W9SA4", "dateTime": 1515970546314}, {"current_trial": 15, "trialdata": {"rt": -1, "trial_type": "single-stim", "stimulus": "<p id=\"stim\">5</p>", "internal_node_id": "0.0-10.0-5.0", "time_elapsed": 180345, "key_press": -1, "trial_index": 15}, "uniqueid": "MTK1559:30X31N5D64X0IQ36A2FHV7218W9SA4", "dateTime": 1515970547317}, {"current_trial": 16, "trialdata": {"rt": -1, "trial_type": "single-stim", "stimulus": "<p id=\"stim\">4</p>", "internal_node_id": "0.0-10.0-6.0", "time_elapsed": 181348, "key_press": -1, "trial_index": 16}, "uniqueid": "MTK1559:30X31N5D64X0IQ36A2FHV7218W9SA4", "dateTime": 1515970548319}, {"current_trial": 17, "trialdata": {"rt": -1, "trial_type": "single-stim", "stimulus": "<p id=\"stim\">3</p>", "internal_node_id": "0.0-10.0-7.0", "time_elapsed": 182351, "key_press": -1, "trial_index": 17}, "uniqueid": "MTK1559:30X31N5D64X0IQ36A2FHV7218W9SA4", "dateTime": 1515970549322}, {"current_trial": 18, "trialdata": {"rt": -1, "trial_type": "single-stim", "stimulus": "<p id=\"stim\">2</p>", "internal_node_id": "0.0-10.0-8.0", "time_elapsed": 183353, "key_press": -1, "trial_index": 18}, "uniqueid": "MTK1559:30X31N5D64X0IQ36A2FHV7218W9SA4", "dateTime": 1515970550324}, {"current_trial": 19, "trialdata": {"rt": -1, "trial_type": "single-stim", "stimulus": "<p id=\"stim\">1</p>", "internal_node_id": "0.0-10.0-9.0", "time_elapsed": 184353, "key_press": -1, "trial_index": 19}, "uniqueid": "MTK1559:30X31N5D64X0IQ36A2FHV7218W9SA4", "dateTime": 1515970551325}, {"current_trial": 20, "trialdata": {"rt": -1, "trial_type": "single-stim", "stimulus": "<p id=\"stim\">+</p>", "internal_node_id": "0.0-11.0-0.0", "time_elapsed": 185855, "key_press": -1, "type": "FIXATION", "trial_index": 20}, "uniqueid": "MTK1559:30X31N5D64X0IQ36A2FHV7218W9SA4", "dateTime": 1515970552826}, {"current_trial": 21, "trialdata": {"rt": -1, "trial_type": "single-stim", "word": "seagull", "stimulus": "<p id=\"stim\">SEAGULL</p>", "conditions": [18, 1200, "v", 18000], "internal_node_id": "0.0-12.0", "trial": 0, "time_elapsed": 187057, "serialpos": 0, "key_press": -1, "wordID": 1260, "type": "PRES_VIS", "trial_index": 21}, "uniqueid": "MTK1559:30X31N5D64X0IQ36A2FHV7218W9SA4", "dateTime": 1515970554028}, {"current_trial": 22, "trialdata": {"rt": -1, "trial_type": "single-stim", "word": "quarter", "stimulus": "<p id=\"stim\">QUARTER</p>", "conditions": [18, 1200, "v", 18000], "internal_node_id": "0.0-13.0", "trial": 0, "time_elapsed": 189342, "serialpos": 1, "key_press": -1, "wordID": 1147, "type": "PRES_VIS", "trial_index": 22}, "uniqueid": "MTK1559:30X31N5D64X0IQ36A2FHV7218W9SA4", "dateTime": 1515970556313}, {"current_trial": 23, "trialdata": {"rt": -1, "trial_type": "single-stim", "word": "chauffeur", "stimulus": "<p id=\"stim\">CHAUFFEUR</p>", "conditions": [18, 1200, "v", 18000], "internal_node_id": "0.0-14.0", "trial": 0, "time_elapsed": 191720, "serialpos": 2, "key_press": -1, "wordID": 282, "type": "PRES_VIS", "trial_index": 23}, "uniqueid": "MTK1559:30X31N5D64X0IQ36A2FHV7218W9SA4", "dateTime": 1515970558691}, {"current_trial": 24, "trialdata": {"rt": -1, "trial_type": "single-stim", "word": "keeper", "stimulus": "<p id=\"stim\">KEEPER</p>", "conditions": [18, 1200, "v", 18000], "internal_node_id": "0.0-15.0", "trial": 0, "time_elapsed": 193839, "serialpos": 3, "key_press": -1, "wordID": 768, "type": "PRES_VIS", "trial_index": 24}, "uniqueid": "MTK1559:30X31N5D64X0IQ36A2FHV7218W9SA4", "dateTime": 1515970560810}, {"current_trial": 25, "trialdata": {"rt": -1, "trial_type": "single-stim", "word": "viking", "stimulus": "<p id=\"stim\">VIKING</p>", "conditions": [18, 1200, "v", 18000], "internal_node_id": "0.0-16.0", "trial": 0, "time_elapsed": 195868, "serialpos": 4, "key_press": -1, "wordID": 1564, "type": "PRES_VIS", "trial_index": 25}, "uniqueid": "MTK1559:30X31N5D64X0IQ36A2FHV7218W9SA4", "dateTime": 1515970562839}, {"current_trial": 26, "trialdata": {"rt": -1, "trial_type": "single-stim", "word": "slide", "stimulus": "<p id=\"stim\">SLIDE</p>", "conditions": [18, 1200, "v", 18000], "internal_node_id": "0.0-17.0", "trial": 0, "time_elapsed": 198218, "serialpos": 5, "key_press": -1, "wordID": 1325, "type": "PRES_VIS", "trial_index": 26}, "uniqueid": "MTK1559:30X31N5D64X0IQ36A2FHV7218W9SA4", "dateTime": 1515970565189}, {"current_trial": 27, "trialdata": {"rt": -1, "trial_type": "single-stim", "word": "bubble", "stimulus": "<p id=\"stim\">BUBBLE</p>", "conditions": [18, 1200, "v", 18000], "internal_node_id": "0.0-18.0", "trial": 0, "time_elapsed": 200236, "serialpos": 6, "key_press": -1, "wordID": 182, "type": "PRES_VIS", "trial_index": 27}, "uniqueid": "MTK1559:30X31N5D64X0IQ36A2FHV7218W9SA4", "dateTime": 1515970567207}, {"current_trial": 28, "trialdata": {"rt": -1, "trial_type": "single-stim", "word": "baby", "stimulus": "<p id=\"stim\">BABY</p>", "conditions": [18, 1200, "v", 18000], "internal_node_id": "0.0-19.0", "trial": 0, "time_elapsed": 202579, "serialpos": 7, "key_press": -1, "wordID": 63, "type": "PRES_VIS", "trial_index": 28}, "uniqueid": "MTK1559:30X31N5D64X0IQ36A2FHV7218W9SA4", "dateTime": 1515970569550}, {"current_trial": 29, "trialdata": {"rt": -1, "trial_type": "single-stim", "word": "sparrow", "stimulus": "<p id=\"stim\">SPARROW</p>", "conditions": [18, 1200, "v", 18000], "internal_node_id": "0.0-20.0", "trial": 0, "time_elapsed": 204870, "serialpos": 8, "key_press": -1, "wordID": 1346, "type": "PRES_VIS", "trial_index": 29}, "uniqueid": "MTK1559:30X31N5D64X0IQ36A2FHV7218W9SA4", "dateTime": 1515970571841}, {"current_trial": 30, "trialdata": {"rt": -1, "trial_type": "single-stim", "word": "sketch", "stimulus": "<p id=\"stim\">SKETCH</p>", "conditions": [18, 1200, "v", 18000], "internal_node_id": "0.0-21.0", "trial": 0, "time_elapsed": 207224, "serialpos": 9, "key_press": -1, "wordID": 1314, "type": "PRES_VIS", "trial_index": 30}, "uniqueid": "MTK1559:30X31N5D64X0IQ36A2FHV7218W9SA4", "dateTime": 1515970574195}, {"current_trial": 31, "trialdata": {"rt": -1, "trial_type": "single-stim", "word": "egypt", "stimulus": "<p id=\"stim\">EGYPT</p>", "conditions": [18, 1200, "v", 18000], "internal_node_id": "0.0-22.0", "trial": 0, "time_elapsed": 209335, "serialpos": 10, "key_press": -1, "wordID": 518, "type": "PRES_VIS", "trial_index": 31}, "uniqueid": "MTK1559:30X31N5D64X0IQ36A2FHV7218W9SA4", "dateTime": 1515970576307}, {"current_trial": 32, "trialdata": {"rt": -1, "trial_type": "single-stim", "word": "tart", "stimulus": "<p id=\"stim\">TART</p>", "conditions": [18, 1200, "v", 18000], "internal_node_id": "0.0-23.0", "trial": 0, "time_elapsed": 211426, "serialpos": 11, "key_press": -1, "wordID": 1435, "type": "PRES_VIS", "trial_index": 32}, "uniqueid": "MTK1559:30X31N5D64X0IQ36A2FHV7218W9SA4", "dateTime": 1515970578397}, {"current_trial": 33, "trialdata": {"rt": -1, "trial_type": "single-stim", "word": "garbage", "stimulus": "<p id=\"stim\">GARBAGE</p>", "conditions": [18, 1200, "v", 18000], "internal_node_id": "0.0-24.0", "trial": 0, "time_elapsed": 213449, "serialpos": 12, "key_press": -1, "wordID": 621, "type": "PRES_VIS", "trial_index": 33}, "uniqueid": "MTK1559:30X31N5D64X0IQ36A2FHV7218W9SA4", "dateTime": 1515970580420}, {"current_trial": 34, "trialdata": {"rt": -1, "trial_type": "single-stim", "word": "snake", "stimulus": "<p id=\"stim\">SNAKE</p>", "conditions": [18, 1200, "v", 18000], "internal_node_id": "0.0-25.0", "trial": 0, "time_elapsed": 215479, "serialpos": 13, "key_press": -1, "wordID": 1332, "type": "PRES_VIS", "trial_index": 34}, "uniqueid": "MTK1559:30X31N5D64X0IQ36A2FHV7218W9SA4", "dateTime": 1515970582451}, {"current_trial": 35, "trialdata": {"rt": -1, "trial_type": "single-stim", "word": "salmon", "stimulus": "<p id=\"stim\">SALMON</p>", "conditions": [18, 1200, "v", 18000], "internal_node_id": "0.0-26.0", "trial": 0, "time_elapsed": 217509, "serialpos": 14, "key_press": -1, "wordID": 1226, "type": "PRES_VIS", "trial_index": 35}, "uniqueid": "MTK1559:30X31N5D64X0IQ36A2FHV7218W9SA4", "dateTime": 1515970584480}, {"current_trial": 36, "trialdata": {"rt": -1, "trial_type": "single-stim", "word": "outlaw", "stimulus": "<p id=\"stim\">OUTLAW</p>", "conditions": [18, 1200, "v", 18000], "internal_node_id": "0.0-27.0", "trial": 0, "time_elapsed": 219761, "serialpos": 15, "key_press": -1, "wordID": 988, "type": "PRES_VIS", "trial_index": 36}, "uniqueid": "MTK1559:30X31N5D64X0IQ36A2FHV7218W9SA4", "dateTime": 1515970586732}, {"current_trial": 37, "trialdata": {"rt": -1, "trial_type": "single-stim", "word": "lodge", "stimulus": "<p id=\"stim\">LODGE</p>", "conditions": [18, 1200, "v", 18000], "internal_node_id": "0.0-28.0", "trial": 0, "time_elapsed": 222100, "serialpos": 16, "key_press": -1, "wordID": 838, "type": "PRES_VIS", "trial_index": 37}, "uniqueid": "MTK1559:30X31N5D64X0IQ36A2FHV7218W9SA4", "dateTime": 1515970589072}, {"current_trial": 38, "trialdata": {"rt": -1, "trial_type": "single-stim", "word": "jello", "stimulus": "<p id=\"stim\">JELLO</p>", "conditions": [18, 1200, "v", 18000], "internal_node_id": "0.0-29.0", "trial": 0, "time_elapsed": 224393, "serialpos": 17, "key_press": -1, "wordID": 753, "type": "PRES_VIS", "trial_index": 38}, "uniqueid": "MTK1559:30X31N5D64X0IQ36A2FHV7218W9SA4", "dateTime": 1515970591364}, {"current_trial": 39, "trialdata": {"rt": -1, "trial_type": "single-stim", "stimulus": "", "internal_node_id": "0.0-30.0-0.0", "time_elapsed": 226706, "key_press": -1, "type": "PRE_RECALL_DELAY", "trial_index": 39}, "uniqueid": "MTK1559:30X31N5D64X0IQ36A2FHV7218W9SA4", "dateTime": 1515970593677}, {"current_trial": 40, "trialdata": {"rt": -1000, "trial_type": "single-audio", "stimulus": "/static/audio/400Hz.wav", "internal_node_id": "0.0-31.0", "time_elapsed": 227214, "key_press": -1, "type": "PRE_RECALL_ALERT", "trial_index": 40}, "uniqueid": "MTK1559:30X31N5D64X0IQ36A2FHV7218W9SA4", "dateTime": 1515970594185}, {"current_trial": 41, "trialdata": {"rt": [3518, 6069, 7508, 10308, 11867, 15684, 19219, 22722, 26402, 29377, 34104, 37592, 44207, 56693], "recwords": ["baby", "seagull", "viking", "quarter", "keeper", "outlaw", "egypt", "jello", "s", "slide", "bubble", "", "sketch", "garbage"], "key_times": [2751, 2846, 2869, 3038, 3518, 3868, 4069, 4245, 4436, 4909, 5060, 5268, 5708, 5853, 6069, 6380, 6580, 6804, 6964, 7076, 7285, 7508, 8468, 8660, 8980, 9340, 9436, 9644, 9835, 10012, 10164, 10308, 11100, 11227, 11371, 11500, 11627, 11763, 11867, 12932, 13164, 13531, 13667, 13867, 14147, 14251, 15267, 15346, 15539, 15684, 16867, 17115, 17507, 17658, 18162, 18451, 18579, 18867, 19027, 19219, 20890, 21283, 21738, 21875, 22090, 22258, 22474, 22722, 26283, 26402, 26610, 27098, 27242, 27377, 27993, 28082, 28282, 28472, 28617, 28753, 28953, 29016, 29193, 29377, 33096, 33224, 33401, 33545, 33696, 33833, 34104, 37592, 42663, 43144, 43224, 43359, 43487, 43679, 43895, 43982, 44207, 54095, 54141, 54358, 54525, 54934, 55166, 55277, 55685, 55806, 56142, 56278, 56381, 56518, 56693], "trial_type": "free-recall", "conditions": [18, 1200, "v", 18000], "internal_node_id": "0.0-32.0-0.0", "key_presses": [66, 65, 66, 89, 13, 83, 69, 65, 72, 8, 71, 85, 76, 76, 13, 86, 73, 75, 73, 78, 71, 13, 81, 85, 82, 8, 65, 82, 84, 69, 82, 13, 75, 69, 69, 80, 69, 82, 13, 80, 73, 8, 8, 79, 85, 84, 76, 65, 87, 13, 66, 79, 8, 8, 69, 71, 89, 80, 84, 13, 69, 8, 74, 69, 76, 76, 79, 13, 83, 186, 79, 8, 83, 76, 79, 68, 69, 8, 8, 8, 73, 68, 69, 13, 66, 85, 66, 66, 76, 69, 13, 13, 69, 8, 83, 75, 69, 84, 67, 72, 13, 71, 65, 82, 71, 8, 66, 65, 72, 69, 8, 8, 71, 69, 13], "trial": 0, "time_elapsed": 287217, "type": "FREE_RECALL", "trial_index": 41}, "uniqueid": "MTK1559:30X31N5D64X0IQ36A2FHV7218W9SA4", "dateTime": 1515970654192}, {"current_trial": 42, "trialdata": {"rt": 1896, "trial_type": "text", "internal_node_id": "0.0-33.0", "time_elapsed": 291118, "key_press": 32, "type": "INSTRUCTIONS", "trial_index": 42}, "uniqueid": "MTK1559:30X31N5D64X0IQ36A2FHV7218W9SA4", "dateTime": 1515970658090}, {"current_trial": 43, "trialdata": {"rt": [5450, 9890], "trial_type": "math-distractor", "key_times": [4555, 5450, 8882, 9034, 9890], "responses": ["8", "13"], "num2": [1, 1, 8], "num3": [3, 8, 9], "conditions": [18, 1200, "v", 18000], "internal_node_id": "0.0-34.0", "key_presses": [104, 13, 97, 99, 13], "trial": 1, "time_elapsed": 311125, "type": "DISTRACTOR", "trial_index": 43, "num1": [4, 4, 7]}, "uniqueid": "MTK1559:30X31N5D64X0IQ36A2FHV7218W9SA4", "dateTime": 1515970678096}, {"current_trial": 44, "trialdata": {"rt": -1, "trial_type": "single-stim", "stimulus": "<p id=\"stim\">10</p>", "internal_node_id": "0.0-35.0-0.0", "time_elapsed": 314126, "key_press": -1, "trial_index": 44}, "uniqueid": "MTK1559:30X31N5D64X0IQ36A2FHV7218W9SA4", "dateTime": 1515970681097}, {"current_trial": 45, "trialdata": {"rt": -1, "trial_type": "single-stim", "stimulus": "<p id=\"stim\">9</p>", "internal_node_id": "0.0-35.0-1.0", "time_elapsed": 315128, "key_press": -1, "trial_index": 45}, "uniqueid": "MTK1559:30X31N5D64X0IQ36A2FHV7218W9SA4", "dateTime": 1515970682100}, {"current_trial": 46, "trialdata": {"rt": -1, "trial_type": "single-stim", "stimulus": "<p id=\"stim\">8</p>", "internal_node_id": "0.0-35.0-2.0", "time_elapsed": 316131, "key_press": -1, "trial_index": 46}, "uniqueid": "MTK1559:30X31N5D64X0IQ36A2FHV7218W9SA4", "dateTime": 1515970683102}, {"current_trial": 47, "trialdata": {"rt": -1, "trial_type": "single-stim", "stimulus": "<p id=\"stim\">7</p>", "internal_node_id": "0.0-35.0-3.0", "time_elapsed": 317132, "key_press": -1, "trial_index": 47}, "uniqueid": "MTK1559:30X31N5D64X0IQ36A2FHV7218W9SA4", "dateTime": 1515970684103}, {"current_trial": 48, "trialdata": {"rt": -1, "trial_type": "single-stim", "stimulus": "<p id=\"stim\">6</p>", "internal_node_id": "0.0-35.0-4.0", "time_elapsed": 318135, "key_press": -1, "trial_index": 48}, "uniqueid": "MTK1559:30X31N5D64X0IQ36A2FHV7218W9SA4", "dateTime": 1515970685106}, {"current_trial": 49, "trialdata": {"rt": -1, "trial_type": "single-stim", "stimulus": "<p id=\"stim\">5</p>", "internal_node_id": "0.0-35.0-5.0", "time_elapsed": 319137, "key_press": -1, "trial_index": 49}, "uniqueid": "MTK1559:30X31N5D64X0IQ36A2FHV7218W9SA4", "dateTime": 1515970686109}, {"current_trial": 50, "trialdata": {"rt": -1, "trial_type": "single-stim", "stimulus": "<p id=\"stim\">4</p>", "internal_node_id": "0.0-35.0-6.0", "time_elapsed": 320140, "key_press": -1, "trial_index": 50}, "uniqueid": "MTK1559:30X31N5D64X0IQ36A2FHV7218W9SA4", "dateTime": 1515970687111}, {"current_trial": 51, "trialdata": {"rt": -1, "trial_type": "single-stim", "stimulus": "<p id=\"stim\">3</p>", "internal_node_id": "0.0-35.0-7.0", "time_elapsed": 321141, "key_press": -1, "trial_index": 51}, "uniqueid": "MTK1559:30X31N5D64X0IQ36A2FHV7218W9SA4", "dateTime": 1515970688113}, {"current_trial": 52, "trialdata": {"rt": -1, "trial_type": "single-stim", "stimulus": "<p id=\"stim\">2</p>", "internal_node_id": "0.0-35.0-8.0", "time_elapsed": 322144, "key_press": -1, "trial_index": 52}, "uniqueid": "MTK1559:30X31N5D64X0IQ36A2FHV7218W9SA4", "dateTime": 1515970689115}, {"current_trial": 53, "trialdata": {"rt": -1, "trial_type": "single-stim", "stimulus": "<p id=\"stim\">1</p>", "internal_node_id": "0.0-35.0-9.0", "time_elapsed": 323147, "key_press": -1, "trial_index": 53}, "uniqueid": "MTK1559:30X31N5D64X0IQ36A2FHV7218W9SA4", "dateTime": 1515970690118}, {"current_trial": 54, "trialdata": {"rt": -1, "trial_type": "single-stim", "stimulus": "<p id=\"stim\">+</p>", "internal_node_id": "0.0-36.0-0.0", "time_elapsed": 324649, "key_press": -1, "type": "FIXATION", "trial_index": 54}, "uniqueid": "MTK1559:30X31N5D64X0IQ36A2FHV7218W9SA4", "dateTime": 1515970691620}, {"current_trial": 55, "trialdata": {"rt": -1, "trial_type": "single-stim", "word": "clam", "stimulus": "<p id=\"stim\">CLAM</p>", "conditions": [18, 1200, "v", 18000], "internal_node_id": "0.0-37.0", "trial": 1, "time_elapsed": 325851, "serialpos": 0, "key_press": -1, "wordID": 314, "type": "PRES_VIS", "trial_index": 55}, "uniqueid": "MTK1559:30X31N5D64X0IQ36A2FHV7218W9SA4", "dateTime": 1515970692822}, {"current_trial": 56, "trialdata": {"rt": -1, "trial_type": "single-stim", "word": "jury", "stimulus": "<p id=\"stim\">JURY</p>", "conditions": [18, 1200, "v", 18000], "internal_node_id": "0.0-38.0", "trial": 1, "time_elapsed": 327939, "serialpos": 1, "key_press": -1, "wordID": 765, "type": "PRES_VIS", "trial_index": 56}, "uniqueid": "MTK1559:30X31N5D64X0IQ36A2FHV7218W9SA4", "dateTime": 1515970694910}, {"current_trial": 57, "trialdata": {"rt": -1, "trial_type": "single-stim", "word": "hero", "stimulus": "<p id=\"stim\">HERO</p>", "conditions": [18, 1200, "v", 18000], "internal_node_id": "0.0-39.0", "trial": 1, "time_elapsed": 329975, "serialpos": 2, "key_press": -1, "wordID": 705, "type": "PRES_VIS", "trial_index": 57}, "uniqueid": "MTK1559:30X31N5D64X0IQ36A2FHV7218W9SA4", "dateTime": 1515970696946}, {"current_trial": 58, "trialdata": {"rt": -1, "trial_type": "single-stim", "word": "virus", "stimulus": "<p id=\"stim\">VIRUS</p>", "conditions": [18, 1200, "v", 18000], "internal_node_id": "0.0-40.0", "trial": 1, "time_elapsed": 332124, "serialpos": 3, "key_press": -1, "wordID": 1571, "type": "PRES_VIS", "trial_index": 58}, "uniqueid": "MTK1559:30X31N5D64X0IQ36A2FHV7218W9SA4", "dateTime": 1515970699095}, {"current_trial": 59, "trialdata": {"rt": -1, "trial_type": "single-stim", "word": "author", "stimulus": "<p id=\"stim\">AUTHOR</p>", "conditions": [18, 1200, "v", 18000], "internal_node_id": "0.0-41.0", "trial": 1, "time_elapsed": 334482, "serialpos": 4, "key_press": -1, "wordID": 60, "type": "PRES_VIS", "trial_index": 59}, "uniqueid": "MTK1559:30X31N5D64X0IQ36A2FHV7218W9SA4", "dateTime": 1515970701453}, {"current_trial": 60, "trialdata": {"rt": -1, "trial_type": "single-stim", "word": "yarn", "stimulus": "<p id=\"stim\">YARN</p>", "conditions": [18, 1200, "v", 18000], "internal_node_id": "0.0-42.0", "trial": 1, "time_elapsed": 336856, "serialpos": 5, "key_press": -1, "wordID": 1630, "type": "PRES_VIS", "trial_index": 60}, "uniqueid": "MTK1559:30X31N5D64X0IQ36A2FHV7218W9SA4", "dateTime": 1515970703827}, {"current_trial": 61, "trialdata": {"rt": -1, "trial_type": "single-stim", "word": "child", "stimulus": "<p id=\"stim\">CHILD</p>", "conditions": [18, 1200, "v", 18000], "internal_node_id": "0.0-43.0", "trial": 1, "time_elapsed": 339180, "serialpos": 6, "key_press": -1, "wordID": 298, "type": "PRES_VIS", "trial_index": 61}, "uniqueid": "MTK1559:30X31N5D64X0IQ36A2FHV7218W9SA4", "dateTime": 1515970706151}, {"current_trial": 62, "trialdata": {"rt": -1, "trial_type": "single-stim", "word": "brook", "stimulus": "<p id=\"stim\">BROOK</p>", "conditions": [18, 1200, "v", 18000], "internal_node_id": "0.0-44.0", "trial": 1, "time_elapsed": 341347, "serialpos": 7, "key_press": -1, "wordID": 176, "type": "PRES_VIS", "trial_index": 62}, "uniqueid": "MTK1559:30X31N5D64X0IQ36A2FHV7218W9SA4", "dateTime": 1515970708319}, {"current_trial": 63, "trialdata": {"rt": -1, "trial_type": "single-stim", "word": "sibling", "stimulus": "<p id=\"stim\">SIBLING</p>", "conditions": [18, 1200, "v", 18000], "internal_node_id": "0.0-45.0", "trial": 1, "time_elapsed": 343675, "serialpos": 8, "key_press": -1, "wordID": 1300, "type": "PRES_VIS", "trial_index": 63}, "uniqueid": "MTK1559:30X31N5D64X0IQ36A2FHV7218W9SA4", "dateTime": 1515970710647}, {"current_trial": 64, "trialdata": {"rt": -1, "trial_type": "single-stim", "word": "foot", "stimulus": "<p id=\"stim\">FOOT</p>", "conditions": [18, 1200, "v", 18000], "internal_node_id": "0.0-46.0", "trial": 1, "time_elapsed": 345769, "serialpos": 9, "key_press": -1, "wordID": 589, "type": "PRES_VIS", "trial_index": 64}, "uniqueid": "MTK1559:30X31N5D64X0IQ36A2FHV7218W9SA4", "dateTime": 1515970712740}, {"current_trial": 65, "trialdata": {"rt": -1, "trial_type": "single-stim", "word": "cod", "stimulus": "<p id=\"stim\">COD</p>", "conditions": [18, 1200, "v", 18000], "internal_node_id": "0.0-47.0", "trial": 1, "time_elapsed": 348116, "serialpos": 10, "key_press": -1, "wordID": 339, "type": "PRES_VIS", "trial_index": 65}, "uniqueid": "MTK1559:30X31N5D64X0IQ36A2FHV7218W9SA4", "dateTime": 1515970715087}, {"current_trial": 66, "trialdata": {"rt": -1, "trial_type": "single-stim", "word": "grill", "stimulus": "<p id=\"stim\">GRILL</p>", "conditions": [18, 1200, "v", 18000], "internal_node_id": "0.0-48.0", "trial": 1, "time_elapsed": 350248, "serialpos": 11, "key_press": -1, "wordID": 660, "type": "PRES_VIS", "trial_index": 66}, "uniqueid": "MTK1559:30X31N5D64X0IQ36A2FHV7218W9SA4", "dateTime": 1515970717219}, {"current_trial": 67, "trialdata": {"rt": -1, "trial_type": "single-stim", "word": "bank", "stimulus": "<p id=\"stim\">BANK</p>", "conditions": [18, 1200, "v", 18000], "internal_node_id": "0.0-49.0", "trial": 1, "time_elapsed": 352437, "serialpos": 12, "key_press": -1, "wordID": 82, "type": "PRES_VIS", "trial_index": 67}, "uniqueid": "MTK1559:30X31N5D64X0IQ36A2FHV7218W9SA4", "dateTime": 1515970719408}, {"current_trial": 68, "trialdata": {"rt": -1, "trial_type": "single-stim", "word": "neutron", "stimulus": "<p id=\"stim\">NEUTRON</p>", "conditions": [18, 1200, "v", 18000], "internal_node_id": "0.0-50.0", "trial": 1, "time_elapsed": 354613, "serialpos": 13, "key_press": -1, "wordID": 946, "type": "PRES_VIS", "trial_index": 68}, "uniqueid": "MTK1559:30X31N5D64X0IQ36A2FHV7218W9SA4", "dateTime": 1515970721587}, {"current_trial": 69, "trialdata": {"rt": -1, "trial_type": "single-stim", "word": "actress", "stimulus": "<p id=\"stim\">ACTRESS</p>", "conditions": [18, 1200, "v", 18000], "internal_node_id": "0.0-51.0", "trial": 1, "time_elapsed": 356825, "serialpos": 14, "key_press": -1, "wordID": 5, "type": "PRES_VIS", "trial_index": 69}, "uniqueid": "MTK1559:30X31N5D64X0IQ36A2FHV7218W9SA4", "dateTime": 1515970723796}, {"current_trial": 70, "trialdata": {"rt": -1, "trial_type": "single-stim", "word": "student", "stimulus": "<p id=\"stim\">STUDENT</p>", "conditions": [18, 1200, "v", 18000], "internal_node_id": "0.0-52.0", "trial": 1, "time_elapsed": 359166, "serialpos": 15, "key_press": -1, "wordID": 1394, "type": "PRES_VIS", "trial_index": 70}, "uniqueid": "MTK1559:30X31N5D64X0IQ36A2FHV7218W9SA4", "dateTime": 1515970726137}, {"current_trial": 71, "trialdata": {"rt": -1, "trial_type": "single-stim", "word": "trombone", "stimulus": "<p id=\"stim\">TROMBONE</p>", "conditions": [18, 1200, "v", 18000], "internal_node_id": "0.0-53.0", "trial": 1, "time_elapsed": 361212, "serialpos": 16, "key_press": -1, "wordID": 1507, "type": "PRES_VIS", "trial_index": 71}, "uniqueid": "MTK1559:30X31N5D64X0IQ36A2FHV7218W9SA4", "dateTime": 1515970728183}, {"current_trial": 72, "trialdata": {"rt": -1, "trial_type": "single-stim", "word": "worker", "stimulus": "<p id=\"stim\">WORKER</p>", "conditions": [18, 1200, "v", 18000], "internal_node_id": "0.0-54.0", "trial": 1, "time_elapsed": 363573, "serialpos": 17, "key_press": -1, "wordID": 1620, "type": "PRES_VIS", "trial_index": 72}, "uniqueid": "MTK1559:30X31N5D64X0IQ36A2FHV7218W9SA4", "dateTime": 1515970730545}, {"current_trial": 73, "trialdata": {"rt": -1, "trial_type": "single-stim", "stimulus": "", "internal_node_id": "0.0-55.0-0.0", "time_elapsed": 365763, "key_press": -1, "type": "PRE_RECALL_DELAY", "trial_index": 73}, "uniqueid": "MTK1559:30X31N5D64X0IQ36A2FHV7218W9SA4", "dateTime": 1515970732734}, {"current_trial": 74, "trialdata": {"rt": -1000, "trial_type": "single-audio", "stimulus": "/static/audio/400Hz.wav", "internal_node_id": "0.0-56.0", "time_elapsed": 366268, "key_press": -1, "type": "PRE_RECALL_ALERT", "trial_index": 74}, "uniqueid": "MTK1559:30X31N5D64X0IQ36A2FHV7218W9SA4", "dateTime": 1515970733239}, {"current_trial": 75, "trialdata": {"rt": [1694, 4908, 5941, 21755], "recwords": ["clam", "author", "brook", "jury"], "key_times": [1061, 1222, 1342, 1477, 1694, 3396, 3596, 3780, 4269, 4373, 4500, 4604, 4692, 4908, 5148, 5300, 5469, 5604, 5741, 5941, 21075, 21251, 21403, 21467, 21755], "trial_type": "free-recall", "conditions": [18, 1200, "v", 18000], "internal_node_id": "0.0-57.0-0.0", "key_presses": [67, 76, 65, 77, 13, 65, 85, 82, 8, 84, 72, 79, 82, 13, 66, 82, 79, 79, 75, 13, 74, 85, 82, 89, 13], "trial": 1, "time_elapsed": 426271, "type": "FREE_RECALL", "trial_index": 75}, "uniqueid": "MTK1559:30X31N5D64X0IQ36A2FHV7218W9SA4", "dateTime": 1515970793245}, {"current_trial": 76, "trialdata": {"rt": 1793, "trial_type": "text", "internal_node_id": "0.0-58.0", "time_elapsed": 430069, "key_press": 32, "type": "INSTRUCTIONS", "trial_index": 76}, "uniqueid": "MTK1559:30X31N5D64X0IQ36A2FHV7218W9SA4", "dateTime": 1515970797040}, {"current_trial": 77, "trialdata": {"rt": [8186, 10762, 16553, 21664], "trial_type": "math-distractor", "key_times": [7850, 7873, 8186, 10378, 10482, 10762, 16008, 16177, 16553, 21248, 21320, 21664], "responses": ["21", "14", "26", "23"], "num2": [7, 2, 6, 5, 3], "num3": [6, 5, 9, 8, 7], "conditions": [24, 1600, "v", 24000], "internal_node_id": "0.0-59.0", "key_presses": [98, 97, 13, 97, 100, 13, 98, 102, 13, 98, 99, 13], "trial": 2, "time_elapsed": 455074, "type": "DISTRACTOR", "trial_index": 77, "num1": [8, 7, 6, 8, 6]}, "uniqueid": "MTK1559:30X31N5D64X0IQ36A2FHV7218W9SA4", "dateTime": 1515970822045}, {"current_trial": 78, "trialdata": {"rt": -1, "trial_type": "single-stim", "stimulus": "<p id=\"stim\">10</p>", "internal_node_id": "0.0-60.0-0.0", "time_elapsed": 458075, "key_press": -1, "trial_index": 78}, "uniqueid": "MTK1559:30X31N5D64X0IQ36A2FHV7218W9SA4", "dateTime": 1515970825046}, {"current_trial": 79, "trialdata": {"rt": -1, "trial_type": "single-stim", "stimulus": "<p id=\"stim\">9</p>", "internal_node_id": "0.0-60.0-1.0", "time_elapsed": 459077, "key_press": -1, "trial_index": 79}, "uniqueid": "MTK1559:30X31N5D64X0IQ36A2FHV7218W9SA4", "dateTime": 1515970826048}, {"current_trial": 80, "trialdata": {"rt": -1, "trial_type": "single-stim", "stimulus": "<p id=\"stim\">8</p>", "internal_node_id": "0.0-60.0-2.0", "time_elapsed": 460079, "key_press": -1, "trial_index": 80}, "uniqueid": "MTK1559:30X31N5D64X0IQ36A2FHV7218W9SA4", "dateTime": 1515970827050}, {"current_trial": 81, "trialdata": {"rt": -1, "trial_type": "single-stim", "stimulus": "<p id=\"stim\">7</p>", "internal_node_id": "0.0-60.0-3.0", "time_elapsed": 461082, "key_press": -1, "trial_index": 81}, "uniqueid": "MTK1559:30X31N5D64X0IQ36A2FHV7218W9SA4", "dateTime": 1515970828053}, {"current_trial": 82, "trialdata": {"rt": -1, "trial_type": "single-stim", "stimulus": "<p id=\"stim\">6</p>", "internal_node_id": "0.0-60.0-4.0", "time_elapsed": 462084, "key_press": -1, "trial_index": 82}, "uniqueid": "MTK1559:30X31N5D64X0IQ36A2FHV7218W9SA4", "dateTime": 1515970829055}, {"current_trial": 83, "trialdata": {"rt": -1, "trial_type": "single-stim", "stimulus": "<p id=\"stim\">5</p>", "internal_node_id": "0.0-60.0-5.0", "time_elapsed": 463086, "key_press": -1, "trial_index": 83}, "uniqueid": "MTK1559:30X31N5D64X0IQ36A2FHV7218W9SA4", "dateTime": 1515970830058}, {"current_trial": 84, "trialdata": {"rt": -1, "trial_type": "single-stim", "stimulus": "<p id=\"stim\">4</p>", "internal_node_id": "0.0-60.0-6.0", "time_elapsed": 464087, "key_press": -1, "trial_index": 84}, "uniqueid": "MTK1559:30X31N5D64X0IQ36A2FHV7218W9SA4", "dateTime": 1515970831059}, {"current_trial": 85, "trialdata": {"rt": -1, "trial_type": "single-stim", "stimulus": "<p id=\"stim\">3</p>", "internal_node_id": "0.0-60.0-7.0", "time_elapsed": 465089, "key_press": -1, "trial_index": 85}, "uniqueid": "MTK1559:30X31N5D64X0IQ36A2FHV7218W9SA4", "dateTime": 1515970832060}, {"current_trial": 86, "trialdata": {"rt": -1, "trial_type": "single-stim", "stimulus": "<p id=\"stim\">2</p>", "internal_node_id": "0.0-60.0-8.0", "time_elapsed": 466091, "key_press": -1, "trial_index": 86}, "uniqueid": "MTK1559:30X31N5D64X0IQ36A2FHV7218W9SA4", "dateTime": 1515970833062}, {"current_trial": 87, "trialdata": {"rt": -1, "trial_type": "single-stim", "stimulus": "<p id=\"stim\">1</p>", "internal_node_id": "0.0-60.0-9.0", "time_elapsed": 467094, "key_press": -1, "trial_index": 87}, "uniqueid": "MTK1559:30X31N5D64X0IQ36A2FHV7218W9SA4", "dateTime": 1515970834065}, {"current_trial": 88, "trialdata": {"rt": -1, "trial_type": "single-stim", "stimulus": "<p id=\"stim\">+</p>", "internal_node_id": "0.0-61.0-0.0", "time_elapsed": 468597, "key_press": -1, "type": "FIXATION", "trial_index": 88}, "uniqueid": "MTK1559:30X31N5D64X0IQ36A2FHV7218W9SA4", "dateTime": 1515970835568}, {"current_trial": 89, "trialdata": {"rt": -1, "trial_type": "single-stim", "word": "dolphin", "stimulus": "<p id=\"stim\">DOLPHIN</p>", "conditions": [24, 1600, "v", 24000], "internal_node_id": "0.0-62.0", "trial": 2, "time_elapsed": 470199, "serialpos": 0, "key_press": -1, "wordID": 482, "type": "PRES_VIS", "trial_index": 89}, "uniqueid": "MTK1559:30X31N5D64X0IQ36A2FHV7218W9SA4", "dateTime": 1515970837170}, {"current_trial": 90, "trialdata": {"rt": -1, "trial_type": "single-stim", "word": "stone", "stimulus": "<p id=\"stim\">STONE</p>", "conditions": [24, 1600, "v", 24000], "internal_node_id": "0.0-63.0", "trial": 2, "time_elapsed": 472953, "serialpos": 1, "key_press": -1, "wordID": 1384, "type": "PRES_VIS", "trial_index": 90}, "uniqueid": "MTK1559:30X31N5D64X0IQ36A2FHV7218W9SA4", "dateTime": 1515970839925}, {"current_trial": 91, "trialdata": {"rt": -1, "trial_type": "single-stim", "word": "supper", "stimulus": "<p id=\"stim\">SUPPER</p>", "conditions": [24, 1600, "v", 24000], "internal_node_id": "0.0-64.0", "trial": 2, "time_elapsed": 475732, "serialpos": 2, "key_press": -1, "wordID": 1410, "type": "PRES_VIS", "trial_index": 91}, "uniqueid": "MTK1559:30X31N5D64X0IQ36A2FHV7218W9SA4", "dateTime": 1515970842704}, {"current_trial": 92, "trialdata": {"rt": -1, "trial_type": "single-stim", "word": "cellar", "stimulus": "<p id=\"stim\">CELLAR</p>", "conditions": [24, 1600, "v", 24000], "internal_node_id": "0.0-65.0", "trial": 2, "time_elapsed": 478270, "serialpos": 3, "key_press": -1, "wordID": 266, "type": "PRES_VIS", "trial_index": 92}, "uniqueid": "MTK1559:30X31N5D64X0IQ36A2FHV7218W9SA4", "dateTime": 1515970845241}, {"current_trial": 93, "trialdata": {"rt": -1, "trial_type": "single-stim", "word": "uncle", "stimulus": "<p id=\"stim\">UNCLE</p>", "conditions": [24, 1600, "v", 24000], "internal_node_id": "0.0-66.0", "trial": 2, "time_elapsed": 480943, "serialpos": 4, "key_press": -1, "wordID": 1535, "type": "PRES_VIS", "trial_index": 93}, "uniqueid": "MTK1559:30X31N5D64X0IQ36A2FHV7218W9SA4", "dateTime": 1515970847914}, {"current_trial": 94, "trialdata": {"rt": -1, "trial_type": "single-stim", "word": "nightgown", "stimulus": "<p id=\"stim\">NIGHTGOWN</p>", "conditions": [24, 1600, "v", 24000], "internal_node_id": "0.0-67.0", "trial": 2, "time_elapsed": 483385, "serialpos": 5, "key_press": -1, "wordID": 952, "type": "PRES_VIS", "trial_index": 94}, "uniqueid": "MTK1559:30X31N5D64X0IQ36A2FHV7218W9SA4", "dateTime": 1515970850356}, {"current_trial": 95, "trialdata": {"rt": -1, "trial_type": "single-stim", "word": "guitar", "stimulus": "<p id=\"stim\">GUITAR</p>", "conditions": [24, 1600, "v", 24000], "internal_node_id": "0.0-68.0", "trial": 2, "time_elapsed": 486097, "serialpos": 6, "key_press": -1, "wordID": 669, "type": "PRES_VIS", "trial_index": 95}, "uniqueid": "MTK1559:30X31N5D64X0IQ36A2FHV7218W9SA4", "dateTime": 1515970853068}, {"current_trial": 96, "trialdata": {"rt": -1, "trial_type": "single-stim", "word": "dandruff", "stimulus": "<p id=\"stim\">DANDRUFF</p>", "conditions": [24, 1600, "v", 24000], "internal_node_id": "0.0-69.0", "trial": 2, "time_elapsed": 488506, "serialpos": 7, "key_press": -1, "wordID": 438, "type": "PRES_VIS", "trial_index": 96}, "uniqueid": "MTK1559:30X31N5D64X0IQ36A2FHV7218W9SA4", "dateTime": 1515970855477}, {"current_trial": 97, "trialdata": {"rt": -1, "trial_type": "single-stim", "word": "server", "stimulus": "<p id=\"stim\">SERVER</p>", "conditions": [24, 1600, "v", 24000], "internal_node_id": "0.0-70.0", "trial": 2, "time_elapsed": 491242, "serialpos": 8, "key_press": -1, "wordID": 1271, "type": "PRES_VIS", "trial_index": 97}, "uniqueid": "MTK1559:30X31N5D64X0IQ36A2FHV7218W9SA4", "dateTime": 1515970858213}, {"current_trial": 98, "trialdata": {"rt": -1, "trial_type": "single-stim", "word": "barley", "stimulus": "<p id=\"stim\">BARLEY</p>", "conditions": [24, 1600, "v", 24000], "internal_node_id": "0.0-71.0", "trial": 2, "time_elapsed": 493941, "serialpos": 9, "key_press": -1, "wordID": 87, "type": "PRES_VIS", "trial_index": 98}, "uniqueid": "MTK1559:30X31N5D64X0IQ36A2FHV7218W9SA4", "dateTime": 1515970860912}, {"current_trial": 99, "trialdata": {"rt": -1, "trial_type": "single-stim", "word": "grape", "stimulus": "<p id=\"stim\">GRAPE</p>", "conditions": [24, 1600, "v", 24000], "internal_node_id": "0.0-72.0", "trial": 2, "time_elapsed": 496593, "serialpos": 10, "key_press": -1, "wordID": 653, "type": "PRES_VIS", "trial_index": 99}, "uniqueid": "MTK1559:30X31N5D64X0IQ36A2FHV7218W9SA4", "dateTime": 1515970863564}, {"current_trial": 100, "trialdata": {"rt": -1, "trial_type": "single-stim", "word": "brick", "stimulus": "<p id=\"stim\">BRICK</p>", "conditions": [24, 1600, "v", 24000], "internal_node_id": "0.0-73.0", "trial": 2, "time_elapsed": 499348, "serialpos": 11, "key_press": -1, "wordID": 171, "type": "PRES_VIS", "trial_index": 100}, "uniqueid": "MTK1559:30X31N5D64X0IQ36A2FHV7218W9SA4", "dateTime": 1515970866319}, {"current_trial": 101, "trialdata": {"rt": -1, "trial_type": "single-stim", "word": "barrel", "stimulus": "<p id=\"stim\">BARREL</p>", "conditions": [24, 1600, "v", 24000], "internal_node_id": "0.0-74.0", "trial": 2, "time_elapsed": 501953, "serialpos": 12, "key_press": -1, "wordID": 90, "type": "PRES_VIS", "trial_index": 101}, "uniqueid": "MTK1559:30X31N5D64X0IQ36A2FHV7218W9SA4", "dateTime": 1515970868924}, {"current_trial": 102, "trialdata": {"rt": -1, "trial_type": "single-stim", "word": "gymnast", "stimulus": "<p id=\"stim\">GYMNAST</p>", "conditions": [24, 1600, "v", 24000], "internal_node_id": "0.0-75.0", "trial": 2, "time_elapsed": 504539, "serialpos": 13, "key_press": -1, "wordID": 674, "type": "PRES_VIS", "trial_index": 102}, "uniqueid": "MTK1559:30X31N5D64X0IQ36A2FHV7218W9SA4", "dateTime": 1515970871510}, {"current_trial": 103, "trialdata": {"rt": -1, "trial_type": "single-stim", "word": "sidewalk", "stimulus": "<p id=\"stim\">SIDEWALK</p>", "conditions": [24, 1600, "v", 24000], "internal_node_id": "0.0-76.0", "trial": 2, "time_elapsed": 507094, "serialpos": 14, "key_press": -1, "wordID": 1302, "type": "PRES_VIS", "trial_index": 103}, "uniqueid": "MTK1559:30X31N5D64X0IQ36A2FHV7218W9SA4", "dateTime": 1515970874065}, {"current_trial": 104, "trialdata": {"rt": -1, "trial_type": "single-stim", "word": "diver", "stimulus": "<p id=\"stim\">DIVER</p>", "conditions": [24, 1600, "v", 24000], "internal_node_id": "0.0-77.0", "trial": 2, "time_elapsed": 509751, "serialpos": 15, "key_press": -1, "wordID": 475, "type": "PRES_VIS", "trial_index": 104}, "uniqueid": "MTK1559:30X31N5D64X0IQ36A2FHV7218W9SA4", "dateTime": 1515970876722}, {"current_trial": 105, "trialdata": {"rt": -1, "trial_type": "single-stim", "word": "butcher", "stimulus": "<p id=\"stim\">BUTCHER</p>", "conditions": [24, 1600, "v", 24000], "internal_node_id": "0.0-78.0", "trial": 2, "time_elapsed": 512228, "serialpos": 16, "key_press": -1, "wordID": 202, "type": "PRES_VIS", "trial_index": 105}, "uniqueid": "MTK1559:30X31N5D64X0IQ36A2FHV7218W9SA4", "dateTime": 1515970879199}, {"current_trial": 106, "trialdata": {"rt": -1, "trial_type": "single-stim", "word": "parsley", "stimulus": "<p id=\"stim\">PARSLEY</p>", "conditions": [24, 1600, "v", 24000], "internal_node_id": "0.0-79.0", "trial": 2, "time_elapsed": 514756, "serialpos": 17, "key_press": -1, "wordID": 1015, "type": "PRES_VIS", "trial_index": 106}, "uniqueid": "MTK1559:30X31N5D64X0IQ36A2FHV7218W9SA4", "dateTime": 1515970881727}, {"current_trial": 107, "trialdata": {"rt": -1, "trial_type": "single-stim", "word": "pasta", "stimulus": "<p id=\"stim\">PASTA</p>", "conditions": [24, 1600, "v", 24000], "internal_node_id": "0.0-80.0", "trial": 2, "time_elapsed": 517263, "serialpos": 18, "key_press": -1, "wordID": 1020, "type": "PRES_VIS", "trial_index": 107}, "uniqueid": "MTK1559:30X31N5D64X0IQ36A2FHV7218W9SA4", "dateTime": 1515970884234}, {"current_trial": 108, "trialdata": {"rt": -1, "trial_type": "single-stim", "word": "gallon", "stimulus": "<p id=\"stim\">GALLON</p>", "conditions": [24, 1600, "v", 24000], "internal_node_id": "0.0-81.0", "trial": 2, "time_elapsed": 520036, "serialpos": 19, "key_press": -1, "wordID": 617, "type": "PRES_VIS", "trial_index": 108}, "uniqueid": "MTK1559:30X31N5D64X0IQ36A2FHV7218W9SA4", "dateTime": 1515970887007}, {"current_trial": 109, "trialdata": {"rt": -1, "trial_type": "single-stim", "word": "carriage", "stimulus": "<p id=\"stim\">CARRIAGE</p>", "conditions": [24, 1600, "v", 24000], "internal_node_id": "0.0-82.0", "trial": 2, "time_elapsed": 522478, "serialpos": 20, "key_press": -1, "wordID": 247, "type": "PRES_VIS", "trial_index": 109}, "uniqueid": "MTK1559:30X31N5D64X0IQ36A2FHV7218W9SA4", "dateTime": 1515970889449}, {"current_trial": 110, "trialdata": {"rt": -1, "trial_type": "single-stim", "word": "skillet", "stimulus": "<p id=\"stim\">SKILLET</p>", "conditions": [24, 1600, "v", 24000], "internal_node_id": "0.0-83.0", "trial": 2, "time_elapsed": 525270, "serialpos": 21, "key_press": -1, "wordID": 1316, "type": "PRES_VIS", "trial_index": 110}, "uniqueid": "MTK1559:30X31N5D64X0IQ36A2FHV7218W9SA4", "dateTime": 1515970892241}, {"current_trial": 111, "trialdata": {"rt": -1, "trial_type": "single-stim", "word": "chipmunk", "stimulus": "<p id=\"stim\">CHIPMUNK</p>", "conditions": [24, 1600, "v", 24000], "internal_node_id": "0.0-84.0", "trial": 2, "time_elapsed": 527734, "serialpos": 22, "key_press": -1, "wordID": 303, "type": "PRES_VIS", "trial_index": 111}, "uniqueid": "MTK1559:30X31N5D64X0IQ36A2FHV7218W9SA4", "dateTime": 1515970894705}, {"current_trial": 112, "trialdata": {"rt": -1, "trial_type": "single-stim", "word": "bathtub", "stimulus": "<p id=\"stim\">BATHTUB</p>", "conditions": [24, 1600, "v", 24000], "internal_node_id": "0.0-85.0", "trial": 2, "time_elapsed": 530296, "serialpos": 23, "key_press": -1, "wordID": 99, "type": "PRES_VIS", "trial_index": 112}, "uniqueid": "MTK1559:30X31N5D64X0IQ36A2FHV7218W9SA4", "dateTime": 1515970897267}, {"current_trial": 113, "trialdata": {"rt": -1, "trial_type": "single-stim", "stimulus": "", "internal_node_id": "0.0-86.0-0.0", "time_elapsed": 532751, "key_press": -1, "type": "PRE_RECALL_DELAY", "trial_index": 113}, "uniqueid": "MTK1559:30X31N5D64X0IQ36A2FHV7218W9SA4", "dateTime": 1515970899722}, {"current_trial": 114, "trialdata": {"rt": -1000, "trial_type": "single-audio", "stimulus": "/static/audio/400Hz.wav", "internal_node_id": "0.0-87.0", "time_elapsed": 533253, "key_press": -1, "type": "PRE_RECALL_ALERT", "trial_index": 114}, "uniqueid": "MTK1559:30X31N5D64X0IQ36A2FHV7218W9SA4", "dateTime": 1515970900224}], "currenttrial": 115, "condition": 0, "mode": "live"}