{"assignmentId": "3TAYZSBPLMFBDN82XNM2PPJ307F2S7", "workerId": "MTK2584", "questiondata": {"avail_screen_height": 824, "color_depth": 24, "screen_width": 1536, "pixel_depth": 24, "avail_screen_width": 1536, "screen_height": 864}, "bonus": 0, "hitId": "3F6045TU7DV2L8Z8JOWOTXQ7UKE994", "counterbalance": 238, "useragent": "Mozilla/5.0 (Windows NT 10.0; Win64; x64; rv:58.0) Gecko/20100101 Firefox/58.0", "eventdata": [{"eventtype": "initialized", "interval": 0, "value": null, "timestamp": 1519079768515}, {"eventtype": "window_resize", "interval": 0, "value": [1536, 764], "timestamp": 1519079768515}, {"eventtype": "window_resize", "interval": 3766, "value": [1522, 409], "timestamp": 1519079772281}, {"eventtype": "window_resize", "interval": 2468, "value": [1536, 764], "timestamp": 1519079774749}, {"eventtype": "window_resize", "interval": 25456, "value": [1522, 409], "timestamp": 1519079800205}, {"eventtype": "window_resize", "interval": 2857, "value": [1536, 764], "timestamp": 1519079803062}, {"eventtype": "focus", "interval": 18659, "value": "off", "timestamp": 1519079821721}, {"eventtype": "focus", "interval": 9453, "value": "on", "timestamp": 1519079831174}, {"eventtype": "focus", "interval": 233531, "value": "off", "timestamp": 1519080064705}, {"eventtype": "focus", "interval": 2463, "value": "on", "timestamp": 1519080067168}, {"eventtype": "window_resize", "interval": 3607, "value": [1522, 409], "timestamp": 1519080070775}, {"eventtype": "window_resize", "interval": 4839, "value": [1536, 764], "timestamp": 1519080075614}, {"eventtype": "focus", "interval": 406005, "value": "off", "timestamp": 1519080481619}, {"eventtype": "focus", "interval": 4209, "value": "on", "timestamp": 1519080485828}, {"eventtype": "window_resize", "interval": 22186, "value": [1522, 409], "timestamp": 1519080508014}, {"eventtype": "window_resize", "interval": 3991, "value": [1522, 609], "timestamp": 1519080512005}, {"eventtype": "window_resize", "interval": 325, "value": [1522, 629], "timestamp": 1519080512330}], "data": [{"current_trial": 0, "trialdata": {"rt": 40153, "trial_type": "text", "internal_node_id": "0.0-0.0", "time_elapsed": 40156, "key_press": 13, "type": "INSTRUCTIONS", "trial_index": 0}, "uniqueid": "MTK2584:3TAYZSBPLMFBDN82XNM2PPJ307F2S7", "dateTime": 1519079809062}, {"current_trial": 1, "trialdata": {"rt": 53218, "trial_type": "text", "internal_node_id": "0.0-1.0", "time_elapsed": 93377, "key_press": 13, "type": "INSTRUCTIONS", "trial_index": 1}, "uniqueid": "MTK2584:3TAYZSBPLMFBDN82XNM2PPJ307F2S7", "dateTime": 1519079862282}, {"current_trial": 2, "trialdata": {"rt": [5308], "trial_type": "audio-test", "responses": ["ocean"], "internal_node_id": "0.0-2.0", "time_elapsed": 98741, "type": "AUDIO_TEST", "trial_index": 2}, "uniqueid": "MTK2584:3TAYZSBPLMFBDN82XNM2PPJ307F2S7", "dateTime": 1519079867646}, {"current_trial": 3, "trialdata": {"rt": [4535], "trial_type": "audio-test", "responses": ["crystal"], "internal_node_id": "0.0-3.0", "time_elapsed": 103291, "type": "AUDIO_TEST", "trial_index": 3}, "uniqueid": "MTK2584:3TAYZSBPLMFBDN82XNM2PPJ307F2S7", "dateTime": 1519079872196}, {"current_trial": 4, "trialdata": {"rt": [3254], "trial_type": "audio-test", "responses": ["spice"], "internal_node_id": "0.0-4.0", "time_elapsed": 106561, "type": "AUDIO_TEST", "trial_index": 4}, "uniqueid": "MTK2584:3TAYZSBPLMFBDN82XNM2PPJ307F2S7", "dateTime": 1519079875466}, {"current_trial": 5, "trialdata": {"rt": 15661, "trial_type": "survey-text", "responses": "{\"Q0\":\"12:00 midnight\",\"Q1\":\"9:30 am\",\"Q2\":\"5\"}", "internal_node_id": "0.0-5.0", "time_elapsed": 122982, "type": "SLEEP_SURVEY", "trial_index": 5}, "uniqueid": "MTK2584:3TAYZSBPLMFBDN82XNM2PPJ307F2S7", "dateTime": 1519079891887}, {"current_trial": 6, "trialdata": {"rt": 23807, "trial_type": "text", "internal_node_id": "0.0-6.0", "time_elapsed": 147798, "key_press": 13, "type": "INSTRUCTIONS", "trial_index": 6}, "uniqueid": "MTK2584:3TAYZSBPLMFBDN82XNM2PPJ307F2S7", "dateTime": 1519079916703}, {"current_trial": 7, "trialdata": {"rt": 12678, "trial_type": "text", "internal_node_id": "0.0-7.0", "time_elapsed": 160985, "key_press": 13, "type": "INSTRUCTIONS", "trial_index": 7}, "uniqueid": "MTK2584:3TAYZSBPLMFBDN82XNM2PPJ307F2S7", "dateTime": 1519079929891}, {"current_trial": 8, "trialdata": {"rt": 7688, "trial_type": "text", "internal_node_id": "0.0-8.0", "time_elapsed": 169179, "key_press": 13, "type": "INSTRUCTIONS", "trial_index": 8}, "uniqueid": "MTK2584:3TAYZSBPLMFBDN82XNM2PPJ307F2S7", "dateTime": 1519079938085}, {"current_trial": 9, "trialdata": {"rt": [2309, 5014, 7290, 10260, 11785, 13762], "trial_type": "math-distractor", "key_times": [1965, 2058, 2309, 4342, 4413, 5014, 6955, 7053, 7290, 9795, 9907, 10260, 11506, 11623, 11785, 13465, 13577, 13762, 17767, 17922], "responses": ["18", "20", "12", "17", "14", "21"], "num2": [8, 9, 2, 7, 5, 7, 7], "num3": [1, 8, 6, 6, 5, 7, 9], "conditions": [18, 1200, "v", 18000], "internal_node_id": "0.0-9.0", "key_presses": [49, 56, 13, 50, 48, 13, 49, 50, 13, 49, 55, 13, 49, 52, 13, 50, 49, 13, 50, 50], "trial": 0, "time_elapsed": 188212, "type": "DISTRACTOR", "trial_index": 9, "num1": [9, 3, 4, 4, 4, 7, 6]}, "uniqueid": "MTK2584:3TAYZSBPLMFBDN82XNM2PPJ307F2S7", "dateTime": 1519079957117}, {"current_trial": 10, "trialdata": {"rt": -1, "trial_type": "single-stim", "stimulus": "<p id=\"stim\">10</p>", "internal_node_id": "0.0-10.0-0.0", "time_elapsed": 191227, "key_press": -1, "trial_index": 10}, "uniqueid": "MTK2584:3TAYZSBPLMFBDN82XNM2PPJ307F2S7", "dateTime": 1519079960133}, {"current_trial": 11, "trialdata": {"rt": -1, "trial_type": "single-stim", "stimulus": "<p id=\"stim\">9</p>", "internal_node_id": "0.0-10.0-1.0", "time_elapsed": 192232, "key_press": -1, "trial_index": 11}, "uniqueid": "MTK2584:3TAYZSBPLMFBDN82XNM2PPJ307F2S7", "dateTime": 1519079961138}, {"current_trial": 12, "trialdata": {"rt": -1, "trial_type": "single-stim", "stimulus": "<p id=\"stim\">8</p>", "internal_node_id": "0.0-10.0-2.0", "time_elapsed": 193237, "key_press": -1, "trial_index": 12}, "uniqueid": "MTK2584:3TAYZSBPLMFBDN82XNM2PPJ307F2S7", "dateTime": 1519079962142}, {"current_trial": 13, "trialdata": {"rt": -1, "trial_type": "single-stim", "stimulus": "<p id=\"stim\">7</p>", "internal_node_id": "0.0-10.0-3.0", "time_elapsed": 194242, "key_press": -1, "trial_index": 13}, "uniqueid": "MTK2584:3TAYZSBPLMFBDN82XNM2PPJ307F2S7", "dateTime": 1519079963147}, {"current_trial": 14, "trialdata": {"rt": -1, "trial_type": "single-stim", "stimulus": "<p id=\"stim\">6</p>", "internal_node_id": "0.0-10.0-4.0", "time_elapsed": 195247, "key_press": -1, "trial_index": 14}, "uniqueid": "MTK2584:3TAYZSBPLMFBDN82XNM2PPJ307F2S7", "dateTime": 1519079964152}, {"current_trial": 15, "trialdata": {"rt": -1, "trial_type": "single-stim", "stimulus": "<p id=\"stim\">5</p>", "internal_node_id": "0.0-10.0-5.0", "time_elapsed": 196252, "key_press": -1, "trial_index": 15}, "uniqueid": "MTK2584:3TAYZSBPLMFBDN82XNM2PPJ307F2S7", "dateTime": 1519079965158}, {"current_trial": 16, "trialdata": {"rt": -1, "trial_type": "single-stim", "stimulus": "<p id=\"stim\">4</p>", "internal_node_id": "0.0-10.0-6.0", "time_elapsed": 197256, "key_press": -1, "trial_index": 16}, "uniqueid": "MTK2584:3TAYZSBPLMFBDN82XNM2PPJ307F2S7", "dateTime": 1519079966161}, {"current_trial": 17, "trialdata": {"rt": -1, "trial_type": "single-stim", "stimulus": "<p id=\"stim\">3</p>", "internal_node_id": "0.0-10.0-7.0", "time_elapsed": 198257, "key_press": -1, "trial_index": 17}, "uniqueid": "MTK2584:3TAYZSBPLMFBDN82XNM2PPJ307F2S7", "dateTime": 1519079967163}, {"current_trial": 18, "trialdata": {"rt": -1, "trial_type": "single-stim", "stimulus": "<p id=\"stim\">2</p>", "internal_node_id": "0.0-10.0-8.0", "time_elapsed": 199262, "key_press": -1, "trial_index": 18}, "uniqueid": "MTK2584:3TAYZSBPLMFBDN82XNM2PPJ307F2S7", "dateTime": 1519079968167}, {"current_trial": 19, "trialdata": {"rt": -1, "trial_type": "single-stim", "stimulus": "<p id=\"stim\">1</p>", "internal_node_id": "0.0-10.0-9.0", "time_elapsed": 200268, "key_press": -1, "trial_index": 19}, "uniqueid": "MTK2584:3TAYZSBPLMFBDN82XNM2PPJ307F2S7", "dateTime": 1519079969173}, {"current_trial": 20, "trialdata": {"rt": -1, "trial_type": "single-stim", "stimulus": "<p id=\"stim\">+</p>", "internal_node_id": "0.0-11.0-0.0", "time_elapsed": 201770, "key_press": -1, "type": "FIXATION", "trial_index": 20}, "uniqueid": "MTK2584:3TAYZSBPLMFBDN82XNM2PPJ307F2S7", "dateTime": 1519079970676}, {"current_trial": 21, "trialdata": {"rt": -1, "trial_type": "single-stim", "word": "river", "stimulus": "<p id=\"stim\">RIVER</p>", "conditions": [18, 1200, "v", 18000], "internal_node_id": "0.0-12.0", "trial": 0, "time_elapsed": 202974, "serialpos": 0, "key_press": -1, "wordID": 1193, "type": "PRES_VIS", "trial_index": 21}, "uniqueid": "MTK2584:3TAYZSBPLMFBDN82XNM2PPJ307F2S7", "dateTime": 1519079971880}, {"current_trial": 22, "trialdata": {"rt": -1, "trial_type": "single-stim", "word": "padding", "stimulus": "<p id=\"stim\">PADDING</p>", "conditions": [18, 1200, "v", 18000], "internal_node_id": "0.0-13.0", "trial": 0, "time_elapsed": 205027, "serialpos": 1, "key_press": -1, "wordID": 998, "type": "PRES_VIS", "trial_index": 22}, "uniqueid": "MTK2584:3TAYZSBPLMFBDN82XNM2PPJ307F2S7", "dateTime": 1519079973933}, {"current_trial": 23, "trialdata": {"rt": -1, "trial_type": "single-stim", "word": "typist", "stimulus": "<p id=\"stim\">TYPIST</p>", "conditions": [18, 1200, "v", 18000], "internal_node_id": "0.0-14.0", "trial": 0, "time_elapsed": 207209, "serialpos": 2, "key_press": -1, "wordID": 1531, "type": "PRES_VIS", "trial_index": 23}, "uniqueid": "MTK2584:3TAYZSBPLMFBDN82XNM2PPJ307F2S7", "dateTime": 1519079976114}, {"current_trial": 24, "trialdata": {"rt": -1, "trial_type": "single-stim", "word": "europe", "stimulus": "<p id=\"stim\">EUROPE</p>", "conditions": [18, 1200, "v", 18000], "internal_node_id": "0.0-15.0", "trial": 0, "time_elapsed": 209246, "serialpos": 3, "key_press": -1, "wordID": 540, "type": "PRES_VIS", "trial_index": 24}, "uniqueid": "MTK2584:3TAYZSBPLMFBDN82XNM2PPJ307F2S7", "dateTime": 1519079978152}, {"current_trial": 25, "trialdata": {"rt": -1, "trial_type": "single-stim", "word": "turkey", "stimulus": "<p id=\"stim\">TURKEY</p>", "conditions": [18, 1200, "v", 18000], "internal_node_id": "0.0-16.0", "trial": 0, "time_elapsed": 211580, "serialpos": 4, "key_press": -1, "wordID": 1519, "type": "PRES_VIS", "trial_index": 25}, "uniqueid": "MTK2584:3TAYZSBPLMFBDN82XNM2PPJ307F2S7", "dateTime": 1519079980485}, {"current_trial": 26, "trialdata": {"rt": -1, "trial_type": "single-stim", "word": "tile", "stimulus": "<p id=\"stim\">TILE</p>", "conditions": [18, 1200, "v", 18000], "internal_node_id": "0.0-17.0", "trial": 0, "time_elapsed": 213710, "serialpos": 5, "key_press": -1, "wordID": 1467, "type": "PRES_VIS", "trial_index": 26}, "uniqueid": "MTK2584:3TAYZSBPLMFBDN82XNM2PPJ307F2S7", "dateTime": 1519079982615}, {"current_trial": 27, "trialdata": {"rt": -1, "trial_type": "single-stim", "word": "inmate", "stimulus": "<p id=\"stim\">INMATE</p>", "conditions": [18, 1200, "v", 18000], "internal_node_id": "0.0-18.0", "trial": 0, "time_elapsed": 215782, "serialpos": 6, "key_press": -1, "wordID": 737, "type": "PRES_VIS", "trial_index": 27}, "uniqueid": "MTK2584:3TAYZSBPLMFBDN82XNM2PPJ307F2S7", "dateTime": 1519079984688}, {"current_trial": 28, "trialdata": {"rt": -1, "trial_type": "single-stim", "word": "popcorn", "stimulus": "<p id=\"stim\">POPCORN</p>", "conditions": [18, 1200, "v", 18000], "internal_node_id": "0.0-19.0", "trial": 0, "time_elapsed": 217869, "serialpos": 7, "key_press": -1, "wordID": 1103, "type": "PRES_VIS", "trial_index": 28}, "uniqueid": "MTK2584:3TAYZSBPLMFBDN82XNM2PPJ307F2S7", "dateTime": 1519079986775}, {"current_trial": 29, "trialdata": {"rt": -1, "trial_type": "single-stim", "word": "lightning", "stimulus": "<p id=\"stim\">LIGHTNING</p>", "conditions": [18, 1200, "v", 18000], "internal_node_id": "0.0-20.0", "trial": 0, "time_elapsed": 219892, "serialpos": 8, "key_press": -1, "wordID": 819, "type": "PRES_VIS", "trial_index": 29}, "uniqueid": "MTK2584:3TAYZSBPLMFBDN82XNM2PPJ307F2S7", "dateTime": 1519079988797}, {"current_trial": 30, "trialdata": {"rt": -1, "trial_type": "single-stim", "word": "dragon", "stimulus": "<p id=\"stim\">DRAGON</p>", "conditions": [18, 1200, "v", 18000], "internal_node_id": "0.0-21.0", "trial": 0, "time_elapsed": 222005, "serialpos": 9, "key_press": -1, "wordID": 491, "type": "PRES_VIS", "trial_index": 30}, "uniqueid": "MTK2584:3TAYZSBPLMFBDN82XNM2PPJ307F2S7", "dateTime": 1519079990910}, {"current_trial": 31, "trialdata": {"rt": -1, "trial_type": "single-stim", "word": "fungus", "stimulus": "<p id=\"stim\">FUNGUS</p>", "conditions": [18, 1200, "v", 18000], "internal_node_id": "0.0-22.0", "trial": 0, "time_elapsed": 224154, "serialpos": 10, "key_press": -1, "wordID": 613, "type": "PRES_VIS", "trial_index": 31}, "uniqueid": "MTK2584:3TAYZSBPLMFBDN82XNM2PPJ307F2S7", "dateTime": 1519079993059}, {"current_trial": 32, "trialdata": {"rt": -1, "trial_type": "single-stim", "word": "egypt", "stimulus": "<p id=\"stim\">EGYPT</p>", "conditions": [18, 1200, "v", 18000], "internal_node_id": "0.0-23.0", "trial": 0, "time_elapsed": 226315, "serialpos": 11, "key_press": -1, "wordID": 518, "type": "PRES_VIS", "trial_index": 32}, "uniqueid": "MTK2584:3TAYZSBPLMFBDN82XNM2PPJ307F2S7", "dateTime": 1519079995220}, {"current_trial": 33, "trialdata": {"rt": -1, "trial_type": "single-stim", "word": "server", "stimulus": "<p id=\"stim\">SERVER</p>", "conditions": [18, 1200, "v", 18000], "internal_node_id": "0.0-24.0", "trial": 0, "time_elapsed": 228403, "serialpos": 12, "key_press": -1, "wordID": 1271, "type": "PRES_VIS", "trial_index": 33}, "uniqueid": "MTK2584:3TAYZSBPLMFBDN82XNM2PPJ307F2S7", "dateTime": 1519079997308}, {"current_trial": 34, "trialdata": {"rt": -1, "trial_type": "single-stim", "word": "crater", "stimulus": "<p id=\"stim\">CRATER</p>", "conditions": [18, 1200, "v", 18000], "internal_node_id": "0.0-25.0", "trial": 0, "time_elapsed": 230781, "serialpos": 13, "key_press": -1, "wordID": 399, "type": "PRES_VIS", "trial_index": 34}, "uniqueid": "MTK2584:3TAYZSBPLMFBDN82XNM2PPJ307F2S7", "dateTime": 1519079999686}, {"current_trial": 35, "trialdata": {"rt": -1, "trial_type": "single-stim", "word": "sunset", "stimulus": "<p id=\"stim\">SUNSET</p>", "conditions": [18, 1200, "v", 18000], "internal_node_id": "0.0-26.0", "trial": 0, "time_elapsed": 233158, "serialpos": 14, "key_press": -1, "wordID": 1407, "type": "PRES_VIS", "trial_index": 35}, "uniqueid": "MTK2584:3TAYZSBPLMFBDN82XNM2PPJ307F2S7", "dateTime": 1519080002064}, {"current_trial": 36, "trialdata": {"rt": -1, "trial_type": "single-stim", "word": "machine", "stimulus": "<p id=\"stim\">MACHINE</p>", "conditions": [18, 1200, "v", 18000], "internal_node_id": "0.0-27.0", "trial": 0, "time_elapsed": 235320, "serialpos": 15, "key_press": -1, "wordID": 851, "type": "PRES_VIS", "trial_index": 36}, "uniqueid": "MTK2584:3TAYZSBPLMFBDN82XNM2PPJ307F2S7", "dateTime": 1519080004225}, {"current_trial": 37, "trialdata": {"rt": -1, "trial_type": "single-stim", "word": "journal", "stimulus": "<p id=\"stim\">JOURNAL</p>", "conditions": [18, 1200, "v", 18000], "internal_node_id": "0.0-28.0", "trial": 0, "time_elapsed": 237484, "serialpos": 16, "key_press": -1, "wordID": 759, "type": "PRES_VIS", "trial_index": 37}, "uniqueid": "MTK2584:3TAYZSBPLMFBDN82XNM2PPJ307F2S7", "dateTime": 1519080006389}, {"current_trial": 38, "trialdata": {"rt": -1, "trial_type": "single-stim", "word": "lover", "stimulus": "<p id=\"stim\">LOVER</p>", "conditions": [18, 1200, "v", 18000], "internal_node_id": "0.0-29.0", "trial": 0, "time_elapsed": 239679, "serialpos": 17, "key_press": -1, "wordID": 845, "type": "PRES_VIS", "trial_index": 38}, "uniqueid": "MTK2584:3TAYZSBPLMFBDN82XNM2PPJ307F2S7", "dateTime": 1519080008585}, {"current_trial": 39, "trialdata": {"rt": -1, "trial_type": "single-stim", "stimulus": "", "internal_node_id": "0.0-30.0-0.0", "time_elapsed": 241874, "key_press": -1, "type": "PRE_RECALL_DELAY", "trial_index": 39}, "uniqueid": "MTK2584:3TAYZSBPLMFBDN82XNM2PPJ307F2S7", "dateTime": 1519080010779}, {"current_trial": 40, "trialdata": {"rt": -1000, "trial_type": "single-audio", "stimulus": "/static/audio/400Hz.wav", "internal_node_id": "0.0-31.0", "time_elapsed": 242385, "key_press": -1, "type": "PRE_RECALL_ALERT", "trial_index": 40}, "uniqueid": "MTK2584:3TAYZSBPLMFBDN82XNM2PPJ307F2S7", "dateTime": 1519080011290}, {"current_trial": 41, "trialdata": {"rt": [1719, 3116, 5136, 12553, 15318, 17083, 18219, 20762, 23114, 40950, 51423], "recwords": ["river", "padding", "typist", "europe", "inmate", "dragon", "fungus", "lightning", "crater", "egypt", ""], "key_times": [815, 961, 1070, 1301, 1365, 1719, 2271, 2371, 2514, 2666, 2787, 2839, 2976, 3116, 3454, 3537, 3727, 3790, 3972, 4213, 5136, 10138, 10248, 10414, 10894, 11054, 11245, 11430, 11544, 11743, 11921, 12553, 13705, 13827, 14077, 14206, 14347, 14463, 15318, 15854, 16193, 16315, 16525, 16668, 16737, 17083, 17345, 17423, 17618, 17796, 17909, 18096, 18219, 18509, 18550, 18700, 18866, 19199, 19667, 19852, 19937, 20096, 20762, 20946, 21162, 21268, 21393, 21563, 21699, 23114, 39589, 39900, 40031, 40228, 40356, 40950, 51423, 53401], "trial_type": "free-recall", "conditions": [18, 1200, "v", 18000], "internal_node_id": "0.0-32.0-0.0", "key_presses": [82, 73, 86, 69, 82, 13, 80, 65, 68, 68, 73, 78, 71, 13, 84, 89, 80, 73, 83, 84, 13, 69, 82, 85, 8, 8, 85, 82, 79, 80, 69, 13, 73, 78, 77, 65, 84, 69, 13, 68, 82, 65, 71, 79, 78, 13, 70, 85, 78, 71, 85, 83, 13, 76, 73, 71, 72, 84, 78, 73, 78, 71, 13, 67, 82, 65, 84, 69, 82, 13, 69, 71, 89, 80, 84, 13, 13, 9], "trial": 0, "time_elapsed": 302397, "type": "FREE_RECALL", "trial_index": 41}, "uniqueid": "MTK2584:3TAYZSBPLMFBDN82XNM2PPJ307F2S7", "dateTime": 1519080071309}, {"current_trial": 42, "trialdata": {"rt": 3222, "trial_type": "text", "internal_node_id": "0.0-33.0", "time_elapsed": 307642, "key_press": 13, "type": "INSTRUCTIONS", "trial_index": 42}, "uniqueid": "MTK2584:3TAYZSBPLMFBDN82XNM2PPJ307F2S7", "dateTime": 1519080076547}, {"current_trial": 43, "trialdata": {"rt": [5263, 7979, 10067, 12988, 16525], "trial_type": "math-distractor", "key_times": [4110, 4211, 5263, 7734, 7979, 9778, 9877, 10067, 12715, 12783, 12988, 16273, 16358, 16525], "responses": ["23", "7", "19", "18", "23"], "num2": [8, 2, 9, 7, 8, 4], "num3": [7, 4, 4, 4, 6, 1], "conditions": [18, 1200, "v", 18000], "internal_node_id": "0.0-34.0", "key_presses": [50, 51, 13, 55, 13, 49, 57, 13, 49, 56, 13, 50, 51, 13], "trial": 1, "time_elapsed": 327652, "type": "DISTRACTOR", "trial_index": 43, "num1": [8, 1, 6, 7, 9, 1]}, "uniqueid": "MTK2584:3TAYZSBPLMFBDN82XNM2PPJ307F2S7", "dateTime": 1519080096557}, {"current_trial": 44, "trialdata": {"rt": -1, "trial_type": "single-stim", "stimulus": "<p id=\"stim\">10</p>", "internal_node_id": "0.0-35.0-0.0", "time_elapsed": 330669, "key_press": -1, "trial_index": 44}, "uniqueid": "MTK2584:3TAYZSBPLMFBDN82XNM2PPJ307F2S7", "dateTime": 1519080099574}, {"current_trial": 45, "trialdata": {"rt": -1, "trial_type": "single-stim", "stimulus": "<p id=\"stim\">9</p>", "internal_node_id": "0.0-35.0-1.0", "time_elapsed": 331674, "key_press": -1, "trial_index": 45}, "uniqueid": "MTK2584:3TAYZSBPLMFBDN82XNM2PPJ307F2S7", "dateTime": 1519080100580}, {"current_trial": 46, "trialdata": {"rt": -1, "trial_type": "single-stim", "stimulus": "<p id=\"stim\">8</p>", "internal_node_id": "0.0-35.0-2.0", "time_elapsed": 332680, "key_press": -1, "trial_index": 46}, "uniqueid": "MTK2584:3TAYZSBPLMFBDN82XNM2PPJ307F2S7", "dateTime": 1519080101585}, {"current_trial": 47, "trialdata": {"rt": -1, "trial_type": "single-stim", "stimulus": "<p id=\"stim\">7</p>", "internal_node_id": "0.0-35.0-3.0", "time_elapsed": 333686, "key_press": -1, "trial_index": 47}, "uniqueid": "MTK2584:3TAYZSBPLMFBDN82XNM2PPJ307F2S7", "dateTime": 1519080102591}, {"current_trial": 48, "trialdata": {"rt": -1, "trial_type": "single-stim", "stimulus": "<p id=\"stim\">6</p>", "internal_node_id": "0.0-35.0-4.0", "time_elapsed": 334688, "key_press": -1, "trial_index": 48}, "uniqueid": "MTK2584:3TAYZSBPLMFBDN82XNM2PPJ307F2S7", "dateTime": 1519080103594}, {"current_trial": 49, "trialdata": {"rt": -1, "trial_type": "single-stim", "stimulus": "<p id=\"stim\">5</p>", "internal_node_id": "0.0-35.0-5.0", "time_elapsed": 335692, "key_press": -1, "trial_index": 49}, "uniqueid": "MTK2584:3TAYZSBPLMFBDN82XNM2PPJ307F2S7", "dateTime": 1519080104597}, {"current_trial": 50, "trialdata": {"rt": -1, "trial_type": "single-stim", "stimulus": "<p id=\"stim\">4</p>", "internal_node_id": "0.0-35.0-6.0", "time_elapsed": 336695, "key_press": -1, "trial_index": 50}, "uniqueid": "MTK2584:3TAYZSBPLMFBDN82XNM2PPJ307F2S7", "dateTime": 1519080105600}, {"current_trial": 51, "trialdata": {"rt": -1, "trial_type": "single-stim", "stimulus": "<p id=\"stim\">3</p>", "internal_node_id": "0.0-35.0-7.0", "time_elapsed": 337699, "key_press": -1, "trial_index": 51}, "uniqueid": "MTK2584:3TAYZSBPLMFBDN82XNM2PPJ307F2S7", "dateTime": 1519080106604}, {"current_trial": 52, "trialdata": {"rt": -1, "trial_type": "single-stim", "stimulus": "<p id=\"stim\">2</p>", "internal_node_id": "0.0-35.0-8.0", "time_elapsed": 338703, "key_press": -1, "trial_index": 52}, "uniqueid": "MTK2584:3TAYZSBPLMFBDN82XNM2PPJ307F2S7", "dateTime": 1519080107608}, {"current_trial": 53, "trialdata": {"rt": -1, "trial_type": "single-stim", "stimulus": "<p id=\"stim\">1</p>", "internal_node_id": "0.0-35.0-9.0", "time_elapsed": 339705, "key_press": -1, "trial_index": 53}, "uniqueid": "MTK2584:3TAYZSBPLMFBDN82XNM2PPJ307F2S7", "dateTime": 1519080108610}, {"current_trial": 54, "trialdata": {"rt": -1, "trial_type": "single-stim", "stimulus": "<p id=\"stim\">+</p>", "internal_node_id": "0.0-36.0-0.0", "time_elapsed": 341219, "key_press": -1, "type": "FIXATION", "trial_index": 54}, "uniqueid": "MTK2584:3TAYZSBPLMFBDN82XNM2PPJ307F2S7", "dateTime": 1519080110124}, {"current_trial": 55, "trialdata": {"rt": -1, "trial_type": "single-stim", "word": "pudding", "stimulus": "<p id=\"stim\">PUDDING</p>", "conditions": [18, 1200, "v", 18000], "internal_node_id": "0.0-37.0", "trial": 1, "time_elapsed": 342425, "serialpos": 0, "key_press": -1, "wordID": 1138, "type": "PRES_VIS", "trial_index": 55}, "uniqueid": "MTK2584:3TAYZSBPLMFBDN82XNM2PPJ307F2S7", "dateTime": 1519080111330}, {"current_trial": 56, "trialdata": {"rt": -1, "trial_type": "single-stim", "word": "sidewalk", "stimulus": "<p id=\"stim\">SIDEWALK</p>", "conditions": [18, 1200, "v", 18000], "internal_node_id": "0.0-38.0", "trial": 1, "time_elapsed": 344557, "serialpos": 1, "key_press": -1, "wordID": 1302, "type": "PRES_VIS", "trial_index": 56}, "uniqueid": "MTK2584:3TAYZSBPLMFBDN82XNM2PPJ307F2S7", "dateTime": 1519080113462}, {"current_trial": 57, "trialdata": {"rt": -1, "trial_type": "single-stim", "word": "bank", "stimulus": "<p id=\"stim\">BANK</p>", "conditions": [18, 1200, "v", 18000], "internal_node_id": "0.0-39.0", "trial": 1, "time_elapsed": 346888, "serialpos": 2, "key_press": -1, "wordID": 82, "type": "PRES_VIS", "trial_index": 57}, "uniqueid": "MTK2584:3TAYZSBPLMFBDN82XNM2PPJ307F2S7", "dateTime": 1519080115793}, {"current_trial": 58, "trialdata": {"rt": -1, "trial_type": "single-stim", "word": "apron", "stimulus": "<p id=\"stim\">APRON</p>", "conditions": [18, 1200, "v", 18000], "internal_node_id": "0.0-40.0", "trial": 1, "time_elapsed": 349193, "serialpos": 3, "key_press": -1, "wordID": 34, "type": "PRES_VIS", "trial_index": 58}, "uniqueid": "MTK2584:3TAYZSBPLMFBDN82XNM2PPJ307F2S7", "dateTime": 1519080118098}, {"current_trial": 59, "trialdata": {"rt": -1, "trial_type": "single-stim", "word": "possum", "stimulus": "<p id=\"stim\">POSSUM</p>", "conditions": [18, 1200, "v", 18000], "internal_node_id": "0.0-41.0", "trial": 1, "time_elapsed": 351440, "serialpos": 4, "key_press": -1, "wordID": 1111, "type": "PRES_VIS", "trial_index": 59}, "uniqueid": "MTK2584:3TAYZSBPLMFBDN82XNM2PPJ307F2S7", "dateTime": 1519080120345}, {"current_trial": 60, "trialdata": {"rt": -1, "trial_type": "single-stim", "word": "statue", "stimulus": "<p id=\"stim\">STATUE</p>", "conditions": [18, 1200, "v", 18000], "internal_node_id": "0.0-42.0", "trial": 1, "time_elapsed": 353742, "serialpos": 5, "key_press": -1, "wordID": 1373, "type": "PRES_VIS", "trial_index": 60}, "uniqueid": "MTK2584:3TAYZSBPLMFBDN82XNM2PPJ307F2S7", "dateTime": 1519080122647}, {"current_trial": 61, "trialdata": {"rt": -1, "trial_type": "single-stim", "word": "valley", "stimulus": "<p id=\"stim\">VALLEY</p>", "conditions": [18, 1200, "v", 18000], "internal_node_id": "0.0-43.0", "trial": 1, "time_elapsed": 355745, "serialpos": 6, "key_press": -1, "wordID": 1544, "type": "PRES_VIS", "trial_index": 61}, "uniqueid": "MTK2584:3TAYZSBPLMFBDN82XNM2PPJ307F2S7", "dateTime": 1519080124650}, {"current_trial": 62, "trialdata": {"rt": -1, "trial_type": "single-stim", "word": "bug", "stimulus": "<p id=\"stim\">BUG</p>", "conditions": [18, 1200, "v", 18000], "internal_node_id": "0.0-44.0", "trial": 1, "time_elapsed": 357762, "serialpos": 7, "key_press": -1, "wordID": 186, "type": "PRES_VIS", "trial_index": 62}, "uniqueid": "MTK2584:3TAYZSBPLMFBDN82XNM2PPJ307F2S7", "dateTime": 1519080126668}, {"current_trial": 63, "trialdata": {"rt": -1, "trial_type": "single-stim", "word": "cashier", "stimulus": "<p id=\"stim\">CASHIER</p>", "conditions": [18, 1200, "v", 18000], "internal_node_id": "0.0-45.0", "trial": 1, "time_elapsed": 359898, "serialpos": 8, "key_press": -1, "wordID": 253, "type": "PRES_VIS", "trial_index": 63}, "uniqueid": "MTK2584:3TAYZSBPLMFBDN82XNM2PPJ307F2S7", "dateTime": 1519080128804}, {"current_trial": 64, "trialdata": {"rt": -1, "trial_type": "single-stim", "word": "canyon", "stimulus": "<p id=\"stim\">CANYON</p>", "conditions": [18, 1200, "v", 18000], "internal_node_id": "0.0-46.0", "trial": 1, "time_elapsed": 362066, "serialpos": 9, "key_press": -1, "wordID": 234, "type": "PRES_VIS", "trial_index": 64}, "uniqueid": "MTK2584:3TAYZSBPLMFBDN82XNM2PPJ307F2S7", "dateTime": 1519080130971}, {"current_trial": 65, "trialdata": {"rt": -1, "trial_type": "single-stim", "word": "pizza", "stimulus": "<p id=\"stim\">PIZZA</p>", "conditions": [18, 1200, "v", 18000], "internal_node_id": "0.0-47.0", "trial": 1, "time_elapsed": 364350, "serialpos": 10, "key_press": -1, "wordID": 1078, "type": "PRES_VIS", "trial_index": 65}, "uniqueid": "MTK2584:3TAYZSBPLMFBDN82XNM2PPJ307F2S7", "dateTime": 1519080133255}, {"current_trial": 66, "trialdata": {"rt": -1, "trial_type": "single-stim", "word": "napkin", "stimulus": "<p id=\"stim\">NAPKIN</p>", "conditions": [18, 1200, "v", 18000], "internal_node_id": "0.0-48.0", "trial": 1, "time_elapsed": 366622, "serialpos": 11, "key_press": -1, "wordID": 936, "type": "PRES_VIS", "trial_index": 66}, "uniqueid": "MTK2584:3TAYZSBPLMFBDN82XNM2PPJ307F2S7", "dateTime": 1519080135527}, {"current_trial": 67, "trialdata": {"rt": -1, "trial_type": "single-stim", "word": "spouse", "stimulus": "<p id=\"stim\">SPOUSE</p>", "conditions": [18, 1200, "v", 18000], "internal_node_id": "0.0-49.0", "trial": 1, "time_elapsed": 368845, "serialpos": 12, "key_press": -1, "wordID": 1357, "type": "PRES_VIS", "trial_index": 67}, "uniqueid": "MTK2584:3TAYZSBPLMFBDN82XNM2PPJ307F2S7", "dateTime": 1519080137750}, {"current_trial": 68, "trialdata": {"rt": -1, "trial_type": "single-stim", "word": "preacher", "stimulus": "<p id=\"stim\">PREACHER</p>", "conditions": [18, 1200, "v", 18000], "internal_node_id": "0.0-50.0", "trial": 1, "time_elapsed": 371192, "serialpos": 13, "key_press": -1, "wordID": 1118, "type": "PRES_VIS", "trial_index": 68}, "uniqueid": "MTK2584:3TAYZSBPLMFBDN82XNM2PPJ307F2S7", "dateTime": 1519080140098}, {"current_trial": 69, "trialdata": {"rt": -1, "trial_type": "single-stim", "word": "orchid", "stimulus": "<p id=\"stim\">ORCHID</p>", "conditions": [18, 1200, "v", 18000], "internal_node_id": "0.0-51.0", "trial": 1, "time_elapsed": 373215, "serialpos": 14, "key_press": -1, "wordID": 981, "type": "PRES_VIS", "trial_index": 69}, "uniqueid": "MTK2584:3TAYZSBPLMFBDN82XNM2PPJ307F2S7", "dateTime": 1519080142120}, {"current_trial": 70, "trialdata": {"rt": -1, "trial_type": "single-stim", "word": "liver", "stimulus": "<p id=\"stim\">LIVER</p>", "conditions": [18, 1200, "v", 18000], "internal_node_id": "0.0-52.0", "trial": 1, "time_elapsed": 375237, "serialpos": 15, "key_press": -1, "wordID": 832, "type": "PRES_VIS", "trial_index": 70}, "uniqueid": "MTK2584:3TAYZSBPLMFBDN82XNM2PPJ307F2S7", "dateTime": 1519080144142}, {"current_trial": 71, "trialdata": {"rt": -1, "trial_type": "single-stim", "word": "sketch", "stimulus": "<p id=\"stim\">SKETCH</p>", "conditions": [18, 1200, "v", 18000], "internal_node_id": "0.0-53.0", "trial": 1, "time_elapsed": 377586, "serialpos": 16, "key_press": -1, "wordID": 1314, "type": "PRES_VIS", "trial_index": 71}, "uniqueid": "MTK2584:3TAYZSBPLMFBDN82XNM2PPJ307F2S7", "dateTime": 1519080146491}, {"current_trial": 72, "trialdata": {"rt": -1, "trial_type": "single-stim", "word": "paper", "stimulus": "<p id=\"stim\">PAPER</p>", "conditions": [18, 1200, "v", 18000], "internal_node_id": "0.0-54.0", "trial": 1, "time_elapsed": 379717, "serialpos": 17, "key_press": -1, "wordID": 1010, "type": "PRES_VIS", "trial_index": 72}, "uniqueid": "MTK2584:3TAYZSBPLMFBDN82XNM2PPJ307F2S7", "dateTime": 1519080148622}, {"current_trial": 73, "trialdata": {"rt": -1, "trial_type": "single-stim", "stimulus": "", "internal_node_id": "0.0-55.0-0.0", "time_elapsed": 381863, "key_press": -1, "type": "PRE_RECALL_DELAY", "trial_index": 73}, "uniqueid": "MTK2584:3TAYZSBPLMFBDN82XNM2PPJ307F2S7", "dateTime": 1519080150768}, {"current_trial": 74, "trialdata": {"rt": -1000, "trial_type": "single-audio", "stimulus": "/static/audio/400Hz.wav", "internal_node_id": "0.0-56.0", "time_elapsed": 382374, "key_press": -1, "type": "PRE_RECALL_ALERT", "trial_index": 74}, "uniqueid": "MTK2584:3TAYZSBPLMFBDN82XNM2PPJ307F2S7", "dateTime": 1519080151279}, {"current_trial": 75, "trialdata": {"rt": [1507, 3576, 5185, 6887, 9010, 10293, 12023, 13212, 15606, 19230, 30740, 33867], "recwords": ["paper", "napkin", "spouse", "pizza", "canyon", "pudding", "sidewalk", "bank", "cashier", "bug", "valley", "liver"], "key_times": [595, 737, 877, 1008, 1097, 1507, 2119, 2298, 2459, 2668, 2888, 2969, 3576, 3995, 4099, 4310, 4415, 4576, 4678, 5185, 5462, 5551, 5745, 5977, 6300, 6887, 7543, 7744, 7844, 8180, 8287, 8499, 9010, 9340, 9471, 9595, 9773, 9862, 9945, 10081, 10293, 10762, 10855, 10976, 11154, 11422, 11508, 11633, 11728, 12023, 12498, 12659, 12747, 12869, 13212, 13661, 13940, 14130, 14304, 14506, 14641, 14746, 15606, 16070, 16190, 16420, 19230, 29975, 30075, 30145, 30295, 30385, 30490, 30740, 33013, 33146, 33317, 33553, 33620, 33867], "trial_type": "free-recall", "conditions": [18, 1200, "v", 18000], "internal_node_id": "0.0-57.0-0.0", "key_presses": [80, 65, 80, 69, 82, 13, 78, 65, 80, 75, 73, 78, 13, 83, 80, 79, 85, 83, 69, 13, 80, 73, 90, 90, 65, 13, 67, 65, 78, 89, 79, 78, 13, 80, 85, 68, 68, 73, 78, 71, 13, 83, 73, 68, 69, 87, 65, 76, 75, 13, 66, 65, 78, 75, 13, 67, 65, 83, 72, 73, 69, 82, 13, 66, 85, 71, 13, 86, 65, 76, 76, 69, 89, 13, 76, 73, 86, 69, 82, 13], "trial": 1, "time_elapsed": 442381, "type": "FREE_RECALL", "trial_index": 75}, "uniqueid": "MTK2584:3TAYZSBPLMFBDN82XNM2PPJ307F2S7", "dateTime": 1519080211291}, {"current_trial": 76, "trialdata": {"rt": 3054, "trial_type": "text", "internal_node_id": "0.0-58.0", "time_elapsed": 447445, "key_press": 13, "type": "INSTRUCTIONS", "trial_index": 76}, "uniqueid": "MTK2584:3TAYZSBPLMFBDN82XNM2PPJ307F2S7", "dateTime": 1519080216350}, {"current_trial": 77, "trialdata": {"rt": [2959, 5410, 7382, 9028, 13406, 15893, 18348, 20730], "trial_type": "math-distractor", "key_times": [1994, 2778, 2959, 5102, 5160, 5410, 7123, 7193, 7382, 8756, 8813, 9028, 13140, 13297, 13406, 15634, 15714, 15893, 18076, 18133, 18348, 20459, 20730], "responses": ["20", "17", "10", "18", "22", "20", "19", "7"], "num2": [5, 1, 5, 8, 7, 9, 5, 4, 7], "num3": [6, 8, 1, 8, 9, 8, 7, 1, 4], "conditions": [24, 800, "v", 24000], "internal_node_id": "0.0-59.0", "key_presses": [50, 48, 13, 49, 55, 13, 49, 48, 13, 49, 56, 13, 50, 50, 13, 50, 48, 13, 49, 57, 13, 55, 13], "trial": 2, "time_elapsed": 472459, "type": "DISTRACTOR", "trial_index": 77, "num1": [9, 8, 4, 2, 6, 3, 7, 2, 8]}, "uniqueid": "MTK2584:3TAYZSBPLMFBDN82XNM2PPJ307F2S7", "dateTime": 1519080241364}, {"current_trial": 78, "trialdata": {"rt": -1, "trial_type": "single-stim", "stimulus": "<p id=\"stim\">10</p>", "internal_node_id": "0.0-60.0-0.0", "time_elapsed": 475474, "key_press": -1, "trial_index": 78}, "uniqueid": "MTK2584:3TAYZSBPLMFBDN82XNM2PPJ307F2S7", "dateTime": 1519080244379}, {"current_trial": 79, "trialdata": {"rt": -1, "trial_type": "single-stim", "stimulus": "<p id=\"stim\">9</p>", "internal_node_id": "0.0-60.0-1.0", "time_elapsed": 476479, "key_press": -1, "trial_index": 79}, "uniqueid": "MTK2584:3TAYZSBPLMFBDN82XNM2PPJ307F2S7", "dateTime": 1519080245385}, {"current_trial": 80, "trialdata": {"rt": -1, "trial_type": "single-stim", "stimulus": "<p id=\"stim\">8</p>", "internal_node_id": "0.0-60.0-2.0", "time_elapsed": 477485, "key_press": -1, "trial_index": 80}, "uniqueid": "MTK2584:3TAYZSBPLMFBDN82XNM2PPJ307F2S7", "dateTime": 1519080246390}, {"current_trial": 81, "trialdata": {"rt": -1, "trial_type": "single-stim", "stimulus": "<p id=\"stim\">7</p>", "internal_node_id": "0.0-60.0-3.0", "time_elapsed": 478488, "key_press": -1, "trial_index": 81}, "uniqueid": "MTK2584:3TAYZSBPLMFBDN82XNM2PPJ307F2S7", "dateTime": 1519080247393}, {"current_trial": 82, "trialdata": {"rt": -1, "trial_type": "single-stim", "stimulus": "<p id=\"stim\">6</p>", "internal_node_id": "0.0-60.0-4.0", "time_elapsed": 479491, "key_press": -1, "trial_index": 82}, "uniqueid": "MTK2584:3TAYZSBPLMFBDN82XNM2PPJ307F2S7", "dateTime": 1519080248396}, {"current_trial": 83, "trialdata": {"rt": -1, "trial_type": "single-stim", "stimulus": "<p id=\"stim\">5</p>", "internal_node_id": "0.0-60.0-5.0", "time_elapsed": 480495, "key_press": -1, "trial_index": 83}, "uniqueid": "MTK2584:3TAYZSBPLMFBDN82XNM2PPJ307F2S7", "dateTime": 1519080249400}, {"current_trial": 84, "trialdata": {"rt": -1, "trial_type": "single-stim", "stimulus": "<p id=\"stim\">4</p>", "internal_node_id": "0.0-60.0-6.0", "time_elapsed": 481511, "key_press": -1, "trial_index": 84}, "uniqueid": "MTK2584:3TAYZSBPLMFBDN82XNM2PPJ307F2S7", "dateTime": 1519080250416}, {"current_trial": 85, "trialdata": {"rt": -1, "trial_type": "single-stim", "stimulus": "<p id=\"stim\">3</p>", "internal_node_id": "0.0-60.0-7.0", "time_elapsed": 482515, "key_press": -1, "trial_index": 85}, "uniqueid": "MTK2584:3TAYZSBPLMFBDN82XNM2PPJ307F2S7", "dateTime": 1519080251420}, {"current_trial": 86, "trialdata": {"rt": -1, "trial_type": "single-stim", "stimulus": "<p id=\"stim\">2</p>", "internal_node_id": "0.0-60.0-8.0", "time_elapsed": 483519, "key_press": -1, "trial_index": 86}, "uniqueid": "MTK2584:3TAYZSBPLMFBDN82XNM2PPJ307F2S7", "dateTime": 1519080252425}, {"current_trial": 87, "trialdata": {"rt": -1, "trial_type": "single-stim", "stimulus": "<p id=\"stim\">1</p>", "internal_node_id": "0.0-60.0-9.0", "time_elapsed": 484524, "key_press": -1, "trial_index": 87}, "uniqueid": "MTK2584:3TAYZSBPLMFBDN82XNM2PPJ307F2S7", "dateTime": 1519080253429}, {"current_trial": 88, "trialdata": {"rt": -1, "trial_type": "single-stim", "stimulus": "<p id=\"stim\">+</p>", "internal_node_id": "0.0-61.0-0.0", "time_elapsed": 486039, "key_press": -1, "type": "FIXATION", "trial_index": 88}, "uniqueid": "MTK2584:3TAYZSBPLMFBDN82XNM2PPJ307F2S7", "dateTime": 1519080254944}, {"current_trial": 89, "trialdata": {"rt": -1, "trial_type": "single-stim", "word": "female", "stimulus": "<p id=\"stim\">FEMALE</p>", "conditions": [24, 800, "v", 24000], "internal_node_id": "0.0-62.0", "trial": 2, "time_elapsed": 486844, "serialpos": 0, "key_press": -1, "wordID": 558, "type": "PRES_VIS", "trial_index": 89}, "uniqueid": "MTK2584:3TAYZSBPLMFBDN82XNM2PPJ307F2S7", "dateTime": 1519080255749}, {"current_trial": 90, "trialdata": {"rt": -1, "trial_type": "single-stim", "word": "student", "stimulus": "<p id=\"stim\">STUDENT</p>", "conditions": [24, 800, "v", 24000], "internal_node_id": "0.0-63.0", "trial": 2, "time_elapsed": 488773, "serialpos": 1, "key_press": -1, "wordID": 1394, "type": "PRES_VIS", "trial_index": 90}, "uniqueid": "MTK2584:3TAYZSBPLMFBDN82XNM2PPJ307F2S7", "dateTime": 1519080257678}, {"current_trial": 91, "trialdata": {"rt": -1, "trial_type": "single-stim", "word": "handbag", "stimulus": "<p id=\"stim\">HANDBAG</p>", "conditions": [24, 800, "v", 24000], "internal_node_id": "0.0-64.0", "trial": 2, "time_elapsed": 490397, "serialpos": 2, "key_press": -1, "wordID": 683, "type": "PRES_VIS", "trial_index": 91}, "uniqueid": "MTK2584:3TAYZSBPLMFBDN82XNM2PPJ307F2S7", "dateTime": 1519080259302}, {"current_trial": 92, "trialdata": {"rt": -1, "trial_type": "single-stim", "word": "suitcase", "stimulus": "<p id=\"stim\">SUITCASE</p>", "conditions": [24, 800, "v", 24000], "internal_node_id": "0.0-65.0", "trial": 2, "time_elapsed": 492066, "serialpos": 3, "key_press": -1, "wordID": 1402, "type": "PRES_VIS", "trial_index": 92}, "uniqueid": "MTK2584:3TAYZSBPLMFBDN82XNM2PPJ307F2S7", "dateTime": 1519080260972}, {"current_trial": 93, "trialdata": {"rt": -1, "trial_type": "single-stim", "word": "lagoon", "stimulus": "<p id=\"stim\">LAGOON</p>", "conditions": [24, 800, "v", 24000], "internal_node_id": "0.0-66.0", "trial": 2, "time_elapsed": 493967, "serialpos": 4, "key_press": -1, "wordID": 794, "type": "PRES_VIS", "trial_index": 93}, "uniqueid": "MTK2584:3TAYZSBPLMFBDN82XNM2PPJ307F2S7", "dateTime": 1519080262873}, {"current_trial": 94, "trialdata": {"rt": -1, "trial_type": "single-stim", "word": "snail", "stimulus": "<p id=\"stim\">SNAIL</p>", "conditions": [24, 800, "v", 24000], "internal_node_id": "0.0-67.0", "trial": 2, "time_elapsed": 495868, "serialpos": 5, "key_press": -1, "wordID": 1331, "type": "PRES_VIS", "trial_index": 94}, "uniqueid": "MTK2584:3TAYZSBPLMFBDN82XNM2PPJ307F2S7", "dateTime": 1519080264773}, {"current_trial": 95, "trialdata": {"rt": -1, "trial_type": "single-stim", "word": "mailman", "stimulus": "<p id=\"stim\">MAILMAN</p>", "conditions": [24, 800, "v", 24000], "internal_node_id": "0.0-68.0", "trial": 2, "time_elapsed": 497754, "serialpos": 6, "key_press": -1, "wordID": 857, "type": "PRES_VIS", "trial_index": 95}, "uniqueid": "MTK2584:3TAYZSBPLMFBDN82XNM2PPJ307F2S7", "dateTime": 1519080266659}, {"current_trial": 96, "trialdata": {"rt": -1, "trial_type": "single-stim", "word": "wardrobe", "stimulus": "<p id=\"stim\">WARDROBE</p>", "conditions": [24, 800, "v", 24000], "internal_node_id": "0.0-69.0", "trial": 2, "time_elapsed": 499448, "serialpos": 7, "key_press": -1, "wordID": 1586, "type": "PRES_VIS", "trial_index": 96}, "uniqueid": "MTK2584:3TAYZSBPLMFBDN82XNM2PPJ307F2S7", "dateTime": 1519080268353}, {"current_trial": 97, "trialdata": {"rt": -1, "trial_type": "single-stim", "word": "girl", "stimulus": "<p id=\"stim\">GIRL</p>", "conditions": [24, 800, "v", 24000], "internal_node_id": "0.0-70.0", "trial": 2, "time_elapsed": 501257, "serialpos": 8, "key_press": -1, "wordID": 636, "type": "PRES_VIS", "trial_index": 97}, "uniqueid": "MTK2584:3TAYZSBPLMFBDN82XNM2PPJ307F2S7", "dateTime": 1519080270163}, {"current_trial": 98, "trialdata": {"rt": -1, "trial_type": "single-stim", "word": "cocoon", "stimulus": "<p id=\"stim\">COCOON</p>", "conditions": [24, 800, "v", 24000], "internal_node_id": "0.0-71.0", "trial": 2, "time_elapsed": 502928, "serialpos": 9, "key_press": -1, "wordID": 338, "type": "PRES_VIS", "trial_index": 98}, "uniqueid": "MTK2584:3TAYZSBPLMFBDN82XNM2PPJ307F2S7", "dateTime": 1519080271833}, {"current_trial": 99, "trialdata": {"rt": -1, "trial_type": "single-stim", "word": "venus", "stimulus": "<p id=\"stim\">VENUS</p>", "conditions": [24, 800, "v", 24000], "internal_node_id": "0.0-72.0", "trial": 2, "time_elapsed": 504594, "serialpos": 10, "key_press": -1, "wordID": 1556, "type": "PRES_VIS", "trial_index": 99}, "uniqueid": "MTK2584:3TAYZSBPLMFBDN82XNM2PPJ307F2S7", "dateTime": 1519080273500}, {"current_trial": 100, "trialdata": {"rt": -1, "trial_type": "single-stim", "word": "blouse", "stimulus": "<p id=\"stim\">BLOUSE</p>", "conditions": [24, 800, "v", 24000], "internal_node_id": "0.0-73.0", "trial": 2, "time_elapsed": 506402, "serialpos": 11, "key_press": -1, "wordID": 138, "type": "PRES_VIS", "trial_index": 100}, "uniqueid": "MTK2584:3TAYZSBPLMFBDN82XNM2PPJ307F2S7", "dateTime": 1519080275307}, {"current_trial": 101, "trialdata": {"rt": -1, "trial_type": "single-stim", "word": "rust", "stimulus": "<p id=\"stim\">RUST</p>", "conditions": [24, 800, "v", 24000], "internal_node_id": "0.0-74.0", "trial": 2, "time_elapsed": 508133, "serialpos": 12, "key_press": -1, "wordID": 1218, "type": "PRES_VIS", "trial_index": 101}, "uniqueid": "MTK2584:3TAYZSBPLMFBDN82XNM2PPJ307F2S7", "dateTime": 1519080277038}, {"current_trial": 102, "trialdata": {"rt": -1, "trial_type": "single-stim", "word": "dustpan", "stimulus": "<p id=\"stim\">DUSTPAN</p>", "conditions": [24, 800, "v", 24000], "internal_node_id": "0.0-75.0", "trial": 2, "time_elapsed": 510136, "serialpos": 13, "key_press": -1, "wordID": 508, "type": "PRES_VIS", "trial_index": 102}, "uniqueid": "MTK2584:3TAYZSBPLMFBDN82XNM2PPJ307F2S7", "dateTime": 1519080279041}, {"current_trial": 103, "trialdata": {"rt": -1, "trial_type": "single-stim", "word": "onion", "stimulus": "<p id=\"stim\">ONION</p>", "conditions": [24, 800, "v", 24000], "internal_node_id": "0.0-76.0", "trial": 2, "time_elapsed": 511834, "serialpos": 14, "key_press": -1, "wordID": 976, "type": "PRES_VIS", "trial_index": 103}, "uniqueid": "MTK2584:3TAYZSBPLMFBDN82XNM2PPJ307F2S7", "dateTime": 1519080280740}, {"current_trial": 104, "trialdata": {"rt": -1, "trial_type": "single-stim", "word": "piston", "stimulus": "<p id=\"stim\">PISTON</p>", "conditions": [24, 800, "v", 24000], "internal_node_id": "0.0-77.0", "trial": 2, "time_elapsed": 513736, "serialpos": 15, "key_press": -1, "wordID": 1075, "type": "PRES_VIS", "trial_index": 104}, "uniqueid": "MTK2584:3TAYZSBPLMFBDN82XNM2PPJ307F2S7", "dateTime": 1519080282642}, {"current_trial": 105, "trialdata": {"rt": -1, "trial_type": "single-stim", "word": "doughnut", "stimulus": "<p id=\"stim\">DOUGHNUT</p>", "conditions": [24, 800, "v", 24000], "internal_node_id": "0.0-78.0", "trial": 2, "time_elapsed": 515555, "serialpos": 16, "key_press": -1, "wordID": 489, "type": "PRES_VIS", "trial_index": 105}, "uniqueid": "MTK2584:3TAYZSBPLMFBDN82XNM2PPJ307F2S7", "dateTime": 1519080284460}, {"current_trial": 106, "trialdata": {"rt": -1, "trial_type": "single-stim", "word": "termite", "stimulus": "<p id=\"stim\">TERMITE</p>", "conditions": [24, 800, "v", 24000], "internal_node_id": "0.0-79.0", "trial": 2, "time_elapsed": 517254, "serialpos": 17, "key_press": -1, "wordID": 1450, "type": "PRES_VIS", "trial_index": 106}, "uniqueid": "MTK2584:3TAYZSBPLMFBDN82XNM2PPJ307F2S7", "dateTime": 1519080286159}, {"current_trial": 107, "trialdata": {"rt": -1, "trial_type": "single-stim", "word": "dolphin", "stimulus": "<p id=\"stim\">DOLPHIN</p>", "conditions": [24, 800, "v", 24000], "internal_node_id": "0.0-80.0", "trial": 2, "time_elapsed": 519065, "serialpos": 18, "key_press": -1, "wordID": 482, "type": "PRES_VIS", "trial_index": 107}, "uniqueid": "MTK2584:3TAYZSBPLMFBDN82XNM2PPJ307F2S7", "dateTime": 1519080287970}, {"current_trial": 108, "trialdata": {"rt": -1, "trial_type": "single-stim", "word": "film", "stimulus": "<p id=\"stim\">FILM</p>", "conditions": [24, 800, "v", 24000], "internal_node_id": "0.0-81.0", "trial": 2, "time_elapsed": 520860, "serialpos": 19, "key_press": -1, "wordID": 564, "type": "PRES_VIS", "trial_index": 108}, "uniqueid": "MTK2584:3TAYZSBPLMFBDN82XNM2PPJ307F2S7", "dateTime": 1519080289765}, {"current_trial": 109, "trialdata": {"rt": -1, "trial_type": "single-stim", "word": "custard", "stimulus": "<p id=\"stim\">CUSTARD</p>", "conditions": [24, 800, "v", 24000], "internal_node_id": "0.0-82.0", "trial": 2, "time_elapsed": 522590, "serialpos": 20, "key_press": -1, "wordID": 428, "type": "PRES_VIS", "trial_index": 109}, "uniqueid": "MTK2584:3TAYZSBPLMFBDN82XNM2PPJ307F2S7", "dateTime": 1519080291495}, {"current_trial": 110, "trialdata": {"rt": -1, "trial_type": "single-stim", "word": "omelet", "stimulus": "<p id=\"stim\">OMELET</p>", "conditions": [24, 800, "v", 24000], "internal_node_id": "0.0-83.0", "trial": 2, "time_elapsed": 524318, "serialpos": 21, "key_press": -1, "wordID": 975, "type": "PRES_VIS", "trial_index": 110}, "uniqueid": "MTK2584:3TAYZSBPLMFBDN82XNM2PPJ307F2S7", "dateTime": 1519080293224}, {"current_trial": 111, "trialdata": {"rt": -1, "trial_type": "single-stim", "word": "scarf", "stimulus": "<p id=\"stim\">SCARF</p>", "conditions": [24, 800, "v", 24000], "internal_node_id": "0.0-84.0", "trial": 2, "time_elapsed": 526293, "serialpos": 22, "key_press": -1, "wordID": 1245, "type": "PRES_VIS", "trial_index": 111}, "uniqueid": "MTK2584:3TAYZSBPLMFBDN82XNM2PPJ307F2S7", "dateTime": 1519080295199}, {"current_trial": 112, "trialdata": {"rt": -1, "trial_type": "single-stim", "word": "actor", "stimulus": "<p id=\"stim\">ACTOR</p>", "conditions": [24, 800, "v", 24000], "internal_node_id": "0.0-85.0", "trial": 2, "time_elapsed": 528303, "serialpos": 23, "key_press": -1, "wordID": 4, "type": "PRES_VIS", "trial_index": 112}, "uniqueid": "MTK2584:3TAYZSBPLMFBDN82XNM2PPJ307F2S7", "dateTime": 1519080297208}, {"current_trial": 113, "trialdata": {"rt": -1, "trial_type": "single-stim", "stimulus": "", "internal_node_id": "0.0-86.0-0.0", "time_elapsed": 530512, "key_press": -1, "type": "PRE_RECALL_DELAY", "trial_index": 113}, "uniqueid": "MTK2584:3TAYZSBPLMFBDN82XNM2PPJ307F2S7", "dateTime": 1519080299417}, {"current_trial": 114, "trialdata": {"rt": -1000, "trial_type": "single-audio", "stimulus": "/static/audio/400Hz.wav", "internal_node_id": "0.0-87.0", "time_elapsed": 531021, "key_press": -1, "type": "PRE_RECALL_ALERT", "trial_index": 114}, "uniqueid": "MTK2584:3TAYZSBPLMFBDN82XNM2PPJ307F2S7", "dateTime": 1519080299926}, {"current_trial": 115, "trialdata": {"rt": [1831, 3352, 5414, 6575, 8471, 10722, 12390, 13592, 14923, 16635, 19442, 21750, 23161, 24634], "recwords": ["scarf", "blouse", "wardrobe", "piston", "actor", "cocoon", "venus", "female", "girl", "student", "film", "dolphin", "custard", "omelet"], "key_times": [495, 711, 896, 994, 1230, 1831, 2352, 2463, 2622, 2716, 2866, 2957, 3352, 3674, 3768, 3863, 4089, 4659, 4804, 4924, 5095, 5414, 5730, 5800, 5945, 6135, 6230, 6301, 6575, 7076, 7289, 7516, 7611, 7729, 8471, 8756, 8873, 9081, 9238, 9403, 9547, 10722, 11085, 11315, 11495, 11678, 11919, 12390, 12706, 12787, 12927, 13071, 13182, 13362, 13592, 14053, 14181, 14503, 14619, 14923, 15167, 15322, 15434, 15664, 15844, 15979, 16135, 16635, 17228, 17336, 17622, 18097, 19442, 19734, 19859, 20130, 20353, 20559, 20625, 20904, 21750, 22017, 22116, 22211, 22371, 22522, 22587, 22818, 23161, 23484, 23573, 23726, 23916, 24034, 24214, 24634], "trial_type": "free-recall", "conditions": [24, 800, "v", 24000], "internal_node_id": "0.0-88.0-0.0", "key_presses": [83, 67, 65, 82, 70, 13, 66, 76, 79, 85, 83, 69, 13, 87, 65, 82, 68, 82, 79, 66, 69, 13, 80, 73, 83, 84, 79, 78, 13, 65, 67, 84, 79, 82, 13, 67, 79, 67, 79, 79, 78, 13, 86, 69, 78, 85, 83, 13, 70, 69, 77, 65, 76, 69, 13, 71, 73, 82, 76, 13, 83, 84, 85, 68, 69, 78, 84, 13, 70, 73, 76, 77, 13, 68, 79, 76, 80, 72, 73, 78, 13, 67, 85, 83, 84, 65, 82, 68, 13, 79, 77, 69, 76, 69, 84, 13], "trial": 2, "time_elapsed": 591038, "type": "FREE_RECALL", "trial_index": 115}, "uniqueid": "MTK2584:3TAYZSBPLMFBDN82XNM2PPJ307F2S7", "dateTime": 1519080359948}, {"current_trial": 116, "trialdata": {"rt": 1214, "trial_type": "text", "internal_node_id": "0.0-89.0", "time_elapsed": 594268, "key_press": 13, "type": "INSTRUCTIONS", "trial_index": 116}, "uniqueid": "MTK2584:3TAYZSBPLMFBDN82XNM2PPJ307F2S7", "dateTime": 1519080363173}, {"current_trial": 117, "trialdata": {"rt": [2779, 4378, 7604, 9532, 12836, 17841, 22201], "trial_type": "math-distractor", "key_times": [2380, 2779, 3961, 4182, 4378, 7254, 7438, 7604, 9247, 9367, 9532, 12506, 12680, 12836, 17251, 17356, 17841, 21698, 21804, 22201, 23902], "responses": ["9", "16", "15", "15", "25", "21", "21"], "num2": [2, 8, 4, 6, 9, 7, 9, 9], "num3": [6, 6, 8, 4, 8, 8, 5, 2], "conditions": [24, 800, "v", 24000], "internal_node_id": "0.0-90.0", "key_presses": [57, 13, 49, 54, 13, 49, 53, 13, 49, 53, 13, 50, 53, 13, 50, 49, 13, 50, 49, 13, 49], "trial": 3, "time_elapsed": 620285, "type": "DISTRACTOR", "trial_index": 117, "num1": [1, 2, 3, 5, 8, 6, 7, 8]}, "uniqueid": "MTK2584:3TAYZSBPLMFBDN82XNM2PPJ307F2S7", "dateTime": 1519080389190}, {"current_trial": 118, "trialdata": {"rt": -1, "trial_type": "single-stim", "stimulus": "<p id=\"stim\">10</p>", "internal_node_id": "0.0-91.0-0.0", "time_elapsed": 623294, "key_press": -1, "trial_index": 118}, "uniqueid": "MTK2584:3TAYZSBPLMFBDN82XNM2PPJ307F2S7", "dateTime": 1519080392200}, {"current_trial": 119, "trialdata": {"rt": -1, "trial_type": "single-stim", "stimulus": "<p id=\"stim\">9</p>", "internal_node_id": "0.0-91.0-1.0", "time_elapsed": 624299, "key_press": -1, "trial_index": 119}, "uniqueid": "MTK2584:3TAYZSBPLMFBDN82XNM2PPJ307F2S7", "dateTime": 1519080393204}, {"current_trial": 120, "trialdata": {"rt": -1, "trial_type": "single-stim", "stimulus": "<p id=\"stim\">8</p>", "internal_node_id": "0.0-91.0-2.0", "time_elapsed": 625304, "key_press": -1, "trial_index": 120}, "uniqueid": "MTK2584:3TAYZSBPLMFBDN82XNM2PPJ307F2S7", "dateTime": 1519080394210}, {"current_trial": 121, "trialdata": {"rt": -1, "trial_type": "single-stim", "stimulus": "<p id=\"stim\">7</p>", "internal_node_id": "0.0-91.0-3.0", "time_elapsed": 626310, "key_press": -1, "trial_index": 121}, "uniqueid": "MTK2584:3TAYZSBPLMFBDN82XNM2PPJ307F2S7", "dateTime": 1519080395215}, {"current_trial": 122, "trialdata": {"rt": -1, "trial_type": "single-stim", "stimulus": "<p id=\"stim\">6</p>", "internal_node_id": "0.0-91.0-4.0", "time_elapsed": 627316, "key_press": -1, "trial_index": 122}, "uniqueid": "MTK2584:3TAYZSBPLMFBDN82XNM2PPJ307F2S7", "dateTime": 1519080396221}, {"current_trial": 123, "trialdata": {"rt": -1, "trial_type": "single-stim", "stimulus": "<p id=\"stim\">5</p>", "internal_node_id": "0.0-91.0-5.0", "time_elapsed": 628319, "key_press": -1, "trial_index": 123}, "uniqueid": "MTK2584:3TAYZSBPLMFBDN82XNM2PPJ307F2S7", "dateTime": 1519080397225}, {"current_trial": 124, "trialdata": {"rt": -1, "trial_type": "single-stim", "stimulus": "<p id=\"stim\">4</p>", "internal_node_id": "0.0-91.0-6.0", "time_elapsed": 629325, "key_press": -1, "trial_index": 124}, "uniqueid": "MTK2584:3TAYZSBPLMFBDN82XNM2PPJ307F2S7", "dateTime": 1519080398230}, {"current_trial": 125, "trialdata": {"rt": -1, "trial_type": "single-stim", "stimulus": "<p id=\"stim\">3</p>", "internal_node_id": "0.0-91.0-7.0", "time_elapsed": 630332, "key_press": -1, "trial_index": 125}, "uniqueid": "MTK2584:3TAYZSBPLMFBDN82XNM2PPJ307F2S7", "dateTime": 1519080399237}, {"current_trial": 126, "trialdata": {"rt": -1, "trial_type": "single-stim", "stimulus": "<p id=\"stim\">2</p>", "internal_node_id": "0.0-91.0-8.0", "time_elapsed": 631338, "key_press": -1, "trial_index": 126}, "uniqueid": "MTK2584:3TAYZSBPLMFBDN82XNM2PPJ307F2S7", "dateTime": 1519080400243}, {"current_trial": 127, "trialdata": {"rt": -1, "trial_type": "single-stim", "stimulus": "<p id=\"stim\">1</p>", "internal_node_id": "0.0-91.0-9.0", "time_elapsed": 632345, "key_press": -1, "trial_index": 127}, "uniqueid": "MTK2584:3TAYZSBPLMFBDN82XNM2PPJ307F2S7", "dateTime": 1519080401251}, {"current_trial": 128, "trialdata": {"rt": -1, "trial_type": "single-stim", "stimulus": "<p id=\"stim\">+</p>", "internal_node_id": "0.0-92.0-0.0", "time_elapsed": 633861, "key_press": -1, "type": "FIXATION", "trial_index": 128}, "uniqueid": "MTK2584:3TAYZSBPLMFBDN82XNM2PPJ307F2S7", "dateTime": 1519080402766}, {"current_trial": 129, "trialdata": {"rt": -1, "trial_type": "single-stim", "word": "woman", "stimulus": "<p id=\"stim\">WOMAN</p>", "conditions": [24, 800, "v", 24000], "internal_node_id": "0.0-93.0", "trial": 3, "time_elapsed": 634666, "serialpos": 0, "key_press": -1, "wordID": 1619, "type": "PRES_VIS", "trial_index": 129}, "uniqueid": "MTK2584:3TAYZSBPLMFBDN82XNM2PPJ307F2S7", "dateTime": 1519080403571}, {"current_trial": 130, "trialdata": {"rt": -1, "trial_type": "single-stim", "word": "stove", "stimulus": "<p id=\"stim\">STOVE</p>", "conditions": [24, 800, "v", 24000], "internal_node_id": "0.0-94.0", "trial": 3, "time_elapsed": 636535, "serialpos": 1, "key_press": -1, "wordID": 1387, "type": "PRES_VIS", "trial_index": 130}, "uniqueid": "MTK2584:3TAYZSBPLMFBDN82XNM2PPJ307F2S7", "dateTime": 1519080405440}, {"current_trial": 131, "trialdata": {"rt": -1, "trial_type": "single-stim", "word": "pork", "stimulus": "<p id=\"stim\">PORK</p>", "conditions": [24, 800, "v", 24000], "internal_node_id": "0.0-95.0", "trial": 3, "time_elapsed": 638279, "serialpos": 2, "key_press": -1, "wordID": 1107, "type": "PRES_VIS", "trial_index": 131}, "uniqueid": "MTK2584:3TAYZSBPLMFBDN82XNM2PPJ307F2S7", "dateTime": 1519080407185}, {"current_trial": 132, "trialdata": {"rt": -1, "trial_type": "single-stim", "word": "beef", "stimulus": "<p id=\"stim\">BEEF</p>", "conditions": [24, 800, "v", 24000], "internal_node_id": "0.0-96.0", "trial": 3, "time_elapsed": 640026, "serialpos": 3, "key_press": -1, "wordID": 112, "type": "PRES_VIS", "trial_index": 132}, "uniqueid": "MTK2584:3TAYZSBPLMFBDN82XNM2PPJ307F2S7", "dateTime": 1519080408932}, {"current_trial": 133, "trialdata": {"rt": -1, "trial_type": "single-stim", "word": "bunny", "stimulus": "<p id=\"stim\">BUNNY</p>", "conditions": [24, 800, "v", 24000], "internal_node_id": "0.0-97.0", "trial": 3, "time_elapsed": 641929, "serialpos": 4, "key_press": -1, "wordID": 197, "type": "PRES_VIS", "trial_index": 133}, "uniqueid": "MTK2584:3TAYZSBPLMFBDN82XNM2PPJ307F2S7", "dateTime": 1519080410834}, {"current_trial": 134, "trialdata": {"rt": -1, "trial_type": "single-stim", "word": "motor", "stimulus": "<p id=\"stim\">MOTOR</p>", "conditions": [24, 800, "v", 24000], "internal_node_id": "0.0-98.0", "trial": 3, "time_elapsed": 643766, "serialpos": 5, "key_press": -1, "wordID": 921, "type": "PRES_VIS", "trial_index": 134}, "uniqueid": "MTK2584:3TAYZSBPLMFBDN82XNM2PPJ307F2S7", "dateTime": 1519080412672}, {"current_trial": 135, "trialdata": {"rt": -1, "trial_type": "single-stim", "word": "atlas", "stimulus": "<p id=\"stim\">ATLAS</p>", "conditions": [24, 800, "v", 24000], "internal_node_id": "0.0-99.0", "trial": 3, "time_elapsed": 645560, "serialpos": 6, "key_press": -1, "wordID": 52, "type": "PRES_VIS", "trial_index": 135}, "uniqueid": "MTK2584:3TAYZSBPLMFBDN82XNM2PPJ307F2S7", "dateTime": 1519080414465}, {"current_trial": 136, "trialdata": {"rt": -1, "trial_type": "single-stim", "word": "survey", "stimulus": "<p id=\"stim\">SURVEY</p>", "conditions": [24, 800, "v", 24000], "internal_node_id": "0.0-100.0", "trial": 3, "time_elapsed": 647494, "serialpos": 7, "key_press": -1, "wordID": 1413, "type": "PRES_VIS", "trial_index": 136}, "uniqueid": "MTK2584:3TAYZSBPLMFBDN82XNM2PPJ307F2S7", "dateTime": 1519080416400}, {"current_trial": 137, "trialdata": {"rt": -1, "trial_type": "single-stim", "word": "robin", "stimulus": "<p id=\"stim\">ROBIN</p>", "conditions": [24, 800, "v", 24000], "internal_node_id": "0.0-101.0", "trial": 3, "time_elapsed": 649425, "serialpos": 8, "key_press": -1, "wordID": 1198, "type": "PRES_VIS", "trial_index": 137}, "uniqueid": "MTK2584:3TAYZSBPLMFBDN82XNM2PPJ307F2S7", "dateTime": 1519080418330}, {"current_trial": 138, "trialdata": {"rt": -1, "trial_type": "single-stim", "word": "curtain", "stimulus": "<p id=\"stim\">CURTAIN</p>", "conditions": [24, 800, "v", 24000], "internal_node_id": "0.0-102.0", "trial": 3, "time_elapsed": 651156, "serialpos": 9, "key_press": -1, "wordID": 426, "type": "PRES_VIS", "trial_index": 138}, "uniqueid": "MTK2584:3TAYZSBPLMFBDN82XNM2PPJ307F2S7", "dateTime": 1519080420061}, {"current_trial": 139, "trialdata": {"rt": -1, "trial_type": "single-stim", "word": "vagrant", "stimulus": "<p id=\"stim\">VAGRANT</p>", "conditions": [24, 800, "v", 24000], "internal_node_id": "0.0-103.0", "trial": 3, "time_elapsed": 652918, "serialpos": 10, "key_press": -1, "wordID": 1543, "type": "PRES_VIS", "trial_index": 139}, "uniqueid": "MTK2584:3TAYZSBPLMFBDN82XNM2PPJ307F2S7", "dateTime": 1519080421823}, {"current_trial": 140, "trialdata": {"rt": -1, "trial_type": "single-stim", "word": "toaster", "stimulus": "<p id=\"stim\">TOASTER</p>", "conditions": [24, 800, "v", 24000], "internal_node_id": "0.0-104.0", "trial": 3, "time_elapsed": 654835, "serialpos": 11, "key_press": -1, "wordID": 1471, "type": "PRES_VIS", "trial_index": 140}, "uniqueid": "MTK2584:3TAYZSBPLMFBDN82XNM2PPJ307F2S7", "dateTime": 1519080423740}, {"current_trial": 141, "trialdata": {"rt": -1, "trial_type": "single-stim", "word": "marrow", "stimulus": "<p id=\"stim\">MARROW</p>", "conditions": [24, 800, "v", 24000], "internal_node_id": "0.0-105.0", "trial": 3, "time_elapsed": 656489, "serialpos": 12, "key_press": -1, "wordID": 871, "type": "PRES_VIS", "trial_index": 141}, "uniqueid": "MTK2584:3TAYZSBPLMFBDN82XNM2PPJ307F2S7", "dateTime": 1519080425395}, {"current_trial": 142, "trialdata": {"rt": -1, "trial_type": "single-stim", "word": "sculpture", "stimulus": "<p id=\"stim\">SCULPTURE</p>", "conditions": [24, 800, "v", 24000], "internal_node_id": "0.0-106.0", "trial": 3, "time_elapsed": 658297, "serialpos": 13, "key_press": -1, "wordID": 1257, "type": "PRES_VIS", "trial_index": 142}, "uniqueid": "MTK2584:3TAYZSBPLMFBDN82XNM2PPJ307F2S7", "dateTime": 1519080427202}, {"current_trial": 143, "trialdata": {"rt": -1, "trial_type": "single-stim", "word": "husband", "stimulus": "<p id=\"stim\">HUSBAND</p>", "conditions": [24, 800, "v", 24000], "internal_node_id": "0.0-107.0", "trial": 3, "time_elapsed": 660276, "serialpos": 14, "key_press": -1, "wordID": 727, "type": "PRES_VIS", "trial_index": 143}, "uniqueid": "MTK2584:3TAYZSBPLMFBDN82XNM2PPJ307F2S7", "dateTime": 1519080429182}, {"current_trial": 144, "trialdata": {"rt": -1, "trial_type": "single-stim", "word": "seagull", "stimulus": "<p id=\"stim\">SEAGULL</p>", "conditions": [24, 800, "v", 24000], "internal_node_id": "0.0-108.0", "trial": 3, "time_elapsed": 662145, "serialpos": 15, "key_press": -1, "wordID": 1260, "type": "PRES_VIS", "trial_index": 144}, "uniqueid": "MTK2584:3TAYZSBPLMFBDN82XNM2PPJ307F2S7", "dateTime": 1519080431050}, {"current_trial": 145, "trialdata": {"rt": -1, "trial_type": "single-stim", "word": "airplane", "stimulus": "<p id=\"stim\">AIRPLANE</p>", "conditions": [24, 800, "v", 24000], "internal_node_id": "0.0-109.0", "trial": 3, "time_elapsed": 663972, "serialpos": 16, "key_press": -1, "wordID": 11, "type": "PRES_VIS", "trial_index": 145}, "uniqueid": "MTK2584:3TAYZSBPLMFBDN82XNM2PPJ307F2S7", "dateTime": 1519080432877}, {"current_trial": 146, "trialdata": {"rt": -1, "trial_type": "single-stim", "word": "helmet", "stimulus": "<p id=\"stim\">HELMET</p>", "conditions": [24, 800, "v", 24000], "internal_node_id": "0.0-110.0", "trial": 3, "time_elapsed": 665732, "serialpos": 17, "key_press": -1, "wordID": 701, "type": "PRES_VIS", "trial_index": 146}, "uniqueid": "MTK2584:3TAYZSBPLMFBDN82XNM2PPJ307F2S7", "dateTime": 1519080434638}, {"current_trial": 147, "trialdata": {"rt": -1, "trial_type": "single-stim", "word": "passage", "stimulus": "<p id=\"stim\">PASSAGE</p>", "conditions": [24, 800, "v", 24000], "internal_node_id": "0.0-111.0", "trial": 3, "time_elapsed": 667464, "serialpos": 18, "key_press": -1, "wordID": 1018, "type": "PRES_VIS", "trial_index": 147}, "uniqueid": "MTK2584:3TAYZSBPLMFBDN82XNM2PPJ307F2S7", "dateTime": 1519080436370}, {"current_trial": 148, "trialdata": {"rt": -1, "trial_type": "single-stim", "word": "bike", "stimulus": "<p id=\"stim\">BIKE</p>", "conditions": [24, 800, "v", 24000], "internal_node_id": "0.0-112.0", "trial": 3, "time_elapsed": 669335, "serialpos": 19, "key_press": -1, "wordID": 124, "type": "PRES_VIS", "trial_index": 148}, "uniqueid": "MTK2584:3TAYZSBPLMFBDN82XNM2PPJ307F2S7", "dateTime": 1519080438240}, {"current_trial": 149, "trialdata": {"rt": -1, "trial_type": "single-stim", "word": "dress", "stimulus": "<p id=\"stim\">DRESS</p>", "conditions": [24, 800, "v", 24000], "internal_node_id": "0.0-113.0", "trial": 3, "time_elapsed": 671281, "serialpos": 20, "key_press": -1, "wordID": 494, "type": "PRES_VIS", "trial_index": 149}, "uniqueid": "MTK2584:3TAYZSBPLMFBDN82XNM2PPJ307F2S7", "dateTime": 1519080440186}, {"current_trial": 150, "trialdata": {"rt": -1, "trial_type": "single-stim", "word": "lace", "stimulus": "<p id=\"stim\">LACE</p>", "conditions": [24, 800, "v", 24000], "internal_node_id": "0.0-114.0", "trial": 3, "time_elapsed": 672949, "serialpos": 21, "key_press": -1, "wordID": 791, "type": "PRES_VIS", "trial_index": 150}, "uniqueid": "MTK2584:3TAYZSBPLMFBDN82XNM2PPJ307F2S7", "dateTime": 1519080441854}, {"current_trial": 151, "trialdata": {"rt": -1, "trial_type": "single-stim", "word": "garlic", "stimulus": "<p id=\"stim\">GARLIC</p>", "conditions": [24, 800, "v", 24000], "internal_node_id": "0.0-115.0", "trial": 3, "time_elapsed": 674801, "serialpos": 22, "key_press": -1, "wordID": 623, "type": "PRES_VIS", "trial_index": 151}, "uniqueid": "MTK2584:3TAYZSBPLMFBDN82XNM2PPJ307F2S7", "dateTime": 1519080443707}, {"current_trial": 152, "trialdata": {"rt": -1, "trial_type": "single-stim", "word": "cousin", "stimulus": "<p id=\"stim\">COUSIN</p>", "conditions": [24, 800, "v", 24000], "internal_node_id": "0.0-116.0", "trial": 3, "time_elapsed": 676610, "serialpos": 23, "key_press": -1, "wordID": 391, "type": "PRES_VIS", "trial_index": 152}, "uniqueid": "MTK2584:3TAYZSBPLMFBDN82XNM2PPJ307F2S7", "dateTime": 1519080445516}, {"current_trial": 153, "trialdata": {"rt": -1, "trial_type": "single-stim", "stimulus": "", "internal_node_id": "0.0-117.0-0.0", "time_elapsed": 678867, "key_press": -1, "type": "PRE_RECALL_DELAY", "trial_index": 153}, "uniqueid": "MTK2584:3TAYZSBPLMFBDN82XNM2PPJ307F2S7", "dateTime": 1519080447772}, {"current_trial": 154, "trialdata": {"rt": -1000, "trial_type": "single-audio", "stimulus": "/static/audio/400Hz.wav", "internal_node_id": "0.0-118.0", "time_elapsed": 679378, "key_press": -1, "type": "PRE_RECALL_ALERT", "trial_index": 154}, "uniqueid": "MTK2584:3TAYZSBPLMFBDN82XNM2PPJ307F2S7", "dateTime": 1519080448283}, {"current_trial": 155, "trialdata": {"rt": [1076, 2489, 4548, 6063, 7522, 11816, 13844, 15460, 17206, 18977, 20579, 22597, 26942, 30020], "recwords": ["lace", "garlic", "cousin", "marrow", "beef", "pork", "stove", "husband", "airplane", "seagull", "robin", "curtain", "atlas", "passenger"], "key_times": [405, 454, 645, 834, 1076, 1245, 1463, 1539, 1731, 1844, 2006, 2489, 3101, 3216, 3312, 3518, 3678, 3783, 4548, 4870, 4980, 5075, 5245, 5370, 5595, 6063, 6552, 6772, 6955, 7147, 7522, 7893, 8108, 8279, 8619, 8779, 8953, 9435, 9620, 9820, 9991, 11816, 12493, 12733, 12858, 13043, 13219, 13844, 14110, 14289, 14359, 14594, 14954, 15091, 15300, 15460, 15891, 15985, 16143, 16246, 16426, 16521, 16624, 16786, 17206, 17527, 17630, 17892, 18156, 18248, 18478, 18633, 18977, 19362, 19472, 19664, 19814, 19909, 20579, 20996, 21106, 21256, 21451, 21597, 21741, 21817, 22597, 22878, 23022, 23148, 23323, 24104, 24612, 24644, 24679, 24709, 24743, 24774, 24807, 24839, 24872, 24904, 24975, 25054, 25158, 25315, 25705, 26942, 28295, 28350, 28469, 28636, 28836, 28936, 29071, 29267, 29350, 30020], "trial_type": "free-recall", "conditions": [24, 800, "v", 24000], "internal_node_id": "0.0-119.0-0.0", "key_presses": [76, 65, 67, 69, 13, 71, 65, 82, 76, 73, 67, 13, 67, 79, 85, 83, 73, 78, 13, 77, 65, 82, 82, 79, 87, 13, 66, 69, 69, 70, 13, 79, 82, 75, 8, 8, 8, 80, 79, 82, 75, 13, 83, 84, 79, 86, 69, 13, 72, 85, 83, 66, 65, 78, 68, 13, 65, 73, 82, 80, 76, 65, 78, 69, 13, 83, 69, 65, 71, 85, 76, 76, 13, 82, 79, 66, 73, 78, 13, 67, 85, 82, 84, 65, 73, 78, 13, 80, 65, 83, 83, 8, 8, 8, 8, 8, 8, 8, 8, 8, 8, 8, 65, 84, 76, 65, 83, 13, 80, 65, 83, 83, 69, 78, 71, 69, 82, 13], "trial": 3, "time_elapsed": 739389, "type": "FREE_RECALL", "trial_index": 155}, "uniqueid": "MTK2584:3TAYZSBPLMFBDN82XNM2PPJ307F2S7", "dateTime": 1519080508300}, {"current_trial": 156, "trialdata": {"rt": 3131, "trial_type": "text", "internal_node_id": "0.0-120.0", "time_elapsed": 744528, "key_press": 13, "type": "INSTRUCTIONS", "trial_index": 156}, "uniqueid": "MTK2584:3TAYZSBPLMFBDN82XNM2PPJ307F2S7", "dateTime": 1519080513434}, {"current_trial": 157, "trialdata": {"rt": [2255, 7221, 9109, 10806, 12684, 14138, 17634, 20746, 23145], "trial_type": "math-distractor", "key_times": [1940, 2043, 2255, 5450, 5595, 7221, 8854, 9109, 10421, 10627, 10806, 12392, 12514, 12684, 13863, 13941, 14138, 17333, 17369, 17634, 20052, 20459, 20746, 22795, 22955, 23145], "responses": ["14", "22", "4", "13", "14", "19", "17", "16", "15"], "num2": [2, 5, 2, 7, 6, 5, 4, 3, 2, 6], "num3": [8, 9, 1, 3, 5, 9, 4, 7, 6, 3], "conditions": [24, 1600, "v", 24000], "internal_node_id": "0.0-121.0", "key_presses": [49, 52, 13, 50, 50, 13, 52, 13, 49, 51, 13, 49, 52, 13, 49, 57, 13, 49, 55, 13, 49, 54, 13, 49, 53, 13], "trial": 4, "time_elapsed": 770543, "type": "DISTRACTOR", "trial_index": 157, "num1": [4, 8, 1, 3, 3, 5, 9, 6, 7, 3]}, "uniqueid": "MTK2584:3TAYZSBPLMFBDN82XNM2PPJ307F2S7", "dateTime": 1519080539449}, {"current_trial": 158, "trialdata": {"rt": -1, "trial_type": "single-stim", "stimulus": "<p id=\"stim\">10</p>", "internal_node_id": "0.0-122.0-0.0", "time_elapsed": 773558, "key_press": -1, "trial_index": 158}, "uniqueid": "MTK2584:3TAYZSBPLMFBDN82XNM2PPJ307F2S7", "dateTime": 1519080542463}, {"current_trial": 159, "trialdata": {"rt": -1, "trial_type": "single-stim", "stimulus": "<p id=\"stim\">9</p>", "internal_node_id": "0.0-122.0-1.0", "time_elapsed": 774563, "key_press": -1, "trial_index": 159}, "uniqueid": "MTK2584:3TAYZSBPLMFBDN82XNM2PPJ307F2S7", "dateTime": 1519080543468}, {"current_trial": 160, "trialdata": {"rt": -1, "trial_type": "single-stim", "stimulus": "<p id=\"stim\">8</p>", "internal_node_id": "0.0-122.0-2.0", "time_elapsed": 775567, "key_press": -1, "trial_index": 160}, "uniqueid": "MTK2584:3TAYZSBPLMFBDN82XNM2PPJ307F2S7", "dateTime": 1519080544472}, {"current_trial": 161, "trialdata": {"rt": -1, "trial_type": "single-stim", "stimulus": "<p id=\"stim\">7</p>", "internal_node_id": "0.0-122.0-3.0", "time_elapsed": 776570, "key_press": -1, "trial_index": 161}, "uniqueid": "MTK2584:3TAYZSBPLMFBDN82XNM2PPJ307F2S7", "dateTime": 1519080545476}, {"current_trial": 162, "trialdata": {"rt": -1, "trial_type": "single-stim", "stimulus": "<p id=\"stim\">6</p>", "internal_node_id": "0.0-122.0-4.0", "time_elapsed": 777573, "key_press": -1, "trial_index": 162}, "uniqueid": "MTK2584:3TAYZSBPLMFBDN82XNM2PPJ307F2S7", "dateTime": 1519080546479}, {"current_trial": 163, "trialdata": {"rt": -1, "trial_type": "single-stim", "stimulus": "<p id=\"stim\">5</p>", "internal_node_id": "0.0-122.0-5.0", "time_elapsed": 778576, "key_press": -1, "trial_index": 163}, "uniqueid": "MTK2584:3TAYZSBPLMFBDN82XNM2PPJ307F2S7", "dateTime": 1519080547481}, {"current_trial": 164, "trialdata": {"rt": -1, "trial_type": "single-stim", "stimulus": "<p id=\"stim\">4</p>", "internal_node_id": "0.0-122.0-6.0", "time_elapsed": 779580, "key_press": -1, "trial_index": 164}, "uniqueid": "MTK2584:3TAYZSBPLMFBDN82XNM2PPJ307F2S7", "dateTime": 1519080548486}, {"current_trial": 165, "trialdata": {"rt": -1, "trial_type": "single-stim", "stimulus": "<p id=\"stim\">3</p>", "internal_node_id": "0.0-122.0-7.0", "time_elapsed": 780583, "key_press": -1, "trial_index": 165}, "uniqueid": "MTK2584:3TAYZSBPLMFBDN82XNM2PPJ307F2S7", "dateTime": 1519080549488}, {"current_trial": 166, "trialdata": {"rt": -1, "trial_type": "single-stim", "stimulus": "<p id=\"stim\">2</p>", "internal_node_id": "0.0-122.0-8.0", "time_elapsed": 781587, "key_press": -1, "trial_index": 166}, "uniqueid": "MTK2584:3TAYZSBPLMFBDN82XNM2PPJ307F2S7", "dateTime": 1519080550492}, {"current_trial": 167, "trialdata": {"rt": -1, "trial_type": "single-stim", "stimulus": "<p id=\"stim\">1</p>", "internal_node_id": "0.0-122.0-9.0", "time_elapsed": 782591, "key_press": -1, "trial_index": 167}, "uniqueid": "MTK2584:3TAYZSBPLMFBDN82XNM2PPJ307F2S7", "dateTime": 1519080551496}, {"current_trial": 168, "trialdata": {"rt": -1, "trial_type": "single-stim", "stimulus": "<p id=\"stim\">+</p>", "internal_node_id": "0.0-123.0-0.0", "time_elapsed": 784107, "key_press": -1, "type": "FIXATION", "trial_index": 168}, "uniqueid": "MTK2584:3TAYZSBPLMFBDN82XNM2PPJ307F2S7", "dateTime": 1519080553012}, {"current_trial": 169, "trialdata": {"rt": -1, "trial_type": "single-stim", "word": "scotch", "stimulus": "<p id=\"stim\">SCOTCH</p>", "conditions": [24, 1600, "v", 24000], "internal_node_id": "0.0-124.0", "trial": 4, "time_elapsed": 785713, "serialpos": 0, "key_press": -1, "wordID": 1250, "type": "PRES_VIS", "trial_index": 169}, "uniqueid": "MTK2584:3TAYZSBPLMFBDN82XNM2PPJ307F2S7", "dateTime": 1519080554618}, {"current_trial": 170, "trialdata": {"rt": -1, "trial_type": "single-stim", "word": "stone", "stimulus": "<p id=\"stim\">STONE</p>", "conditions": [24, 1600, "v", 24000], "internal_node_id": "0.0-125.0", "trial": 4, "time_elapsed": 788278, "serialpos": 1, "key_press": -1, "wordID": 1384, "type": "PRES_VIS", "trial_index": 170}, "uniqueid": "MTK2584:3TAYZSBPLMFBDN82XNM2PPJ307F2S7", "dateTime": 1519080557183}, {"current_trial": 171, "trialdata": {"rt": -1, "trial_type": "single-stim", "word": "tuba", "stimulus": "<p id=\"stim\">TUBA</p>", "conditions": [24, 1600, "v", 24000], "internal_node_id": "0.0-126.0", "trial": 4, "time_elapsed": 790824, "serialpos": 2, "key_press": -1, "wordID": 1514, "type": "PRES_VIS", "trial_index": 171}, "uniqueid": "MTK2584:3TAYZSBPLMFBDN82XNM2PPJ307F2S7", "dateTime": 1519080559730}, {"current_trial": 172, "trialdata": {"rt": -1, "trial_type": "single-stim", "word": "stamp", "stimulus": "<p id=\"stim\">STAMP</p>", "conditions": [24, 1600, "v", 24000], "internal_node_id": "0.0-127.0", "trial": 4, "time_elapsed": 793418, "serialpos": 3, "key_press": -1, "wordID": 1369, "type": "PRES_VIS", "trial_index": 172}, "uniqueid": "MTK2584:3TAYZSBPLMFBDN82XNM2PPJ307F2S7", "dateTime": 1519080562323}, {"current_trial": 173, "trialdata": {"rt": -1, "trial_type": "single-stim", "word": "backbone", "stimulus": "<p id=\"stim\">BACKBONE</p>", "conditions": [24, 1600, "v", 24000], "internal_node_id": "0.0-128.0", "trial": 4, "time_elapsed": 796101, "serialpos": 4, "key_press": -1, "wordID": 65, "type": "PRES_VIS", "trial_index": 173}, "uniqueid": "MTK2584:3TAYZSBPLMFBDN82XNM2PPJ307F2S7", "dateTime": 1519080565006}, {"current_trial": 174, "trialdata": {"rt": -1, "trial_type": "single-stim", "word": "flesh", "stimulus": "<p id=\"stim\">FLESH</p>", "conditions": [24, 1600, "v", 24000], "internal_node_id": "0.0-129.0", "trial": 4, "time_elapsed": 798556, "serialpos": 5, "key_press": -1, "wordID": 578, "type": "PRES_VIS", "trial_index": 174}, "uniqueid": "MTK2584:3TAYZSBPLMFBDN82XNM2PPJ307F2S7", "dateTime": 1519080567461}, {"current_trial": 175, "trialdata": {"rt": -1, "trial_type": "single-stim", "word": "diner", "stimulus": "<p id=\"stim\">DINER</p>", "conditions": [24, 1600, "v", 24000], "internal_node_id": "0.0-130.0", "trial": 4, "time_elapsed": 801000, "serialpos": 6, "key_press": -1, "wordID": 466, "type": "PRES_VIS", "trial_index": 175}, "uniqueid": "MTK2584:3TAYZSBPLMFBDN82XNM2PPJ307F2S7", "dateTime": 1519080569906}, {"current_trial": 176, "trialdata": {"rt": -1, "trial_type": "single-stim", "word": "queen", "stimulus": "<p id=\"stim\">QUEEN</p>", "conditions": [24, 1600, "v", 24000], "internal_node_id": "0.0-131.0", "trial": 4, "time_elapsed": 803442, "serialpos": 7, "key_press": -1, "wordID": 1148, "type": "PRES_VIS", "trial_index": 176}, "uniqueid": "MTK2584:3TAYZSBPLMFBDN82XNM2PPJ307F2S7", "dateTime": 1519080572347}, {"current_trial": 177, "trialdata": {"rt": -1, "trial_type": "single-stim", "word": "princess", "stimulus": "<p id=\"stim\">PRINCESS</p>", "conditions": [24, 1600, "v", 24000], "internal_node_id": "0.0-132.0", "trial": 4, "time_elapsed": 806113, "serialpos": 8, "key_press": -1, "wordID": 1124, "type": "PRES_VIS", "trial_index": 177}, "uniqueid": "MTK2584:3TAYZSBPLMFBDN82XNM2PPJ307F2S7", "dateTime": 1519080575019}, {"current_trial": 178, "trialdata": {"rt": -1, "trial_type": "single-stim", "word": "brick", "stimulus": "<p id=\"stim\">BRICK</p>", "conditions": [24, 1600, "v", 24000], "internal_node_id": "0.0-133.0", "trial": 4, "time_elapsed": 808845, "serialpos": 9, "key_press": -1, "wordID": 171, "type": "PRES_VIS", "trial_index": 178}, "uniqueid": "MTK2584:3TAYZSBPLMFBDN82XNM2PPJ307F2S7", "dateTime": 1519080577750}, {"current_trial": 179, "trialdata": {"rt": -1, "trial_type": "single-stim", "word": "buggy", "stimulus": "<p id=\"stim\">BUGGY</p>", "conditions": [24, 1600, "v", 24000], "internal_node_id": "0.0-134.0", "trial": 4, "time_elapsed": 811647, "serialpos": 10, "key_press": -1, "wordID": 187, "type": "PRES_VIS", "trial_index": 179}, "uniqueid": "MTK2584:3TAYZSBPLMFBDN82XNM2PPJ307F2S7", "dateTime": 1519080580553}, {"current_trial": 180, "trialdata": {"rt": -1, "trial_type": "single-stim", "word": "candy", "stimulus": "<p id=\"stim\">CANDY</p>", "conditions": [24, 1600, "v", 24000], "internal_node_id": "0.0-135.0", "trial": 4, "time_elapsed": 814284, "serialpos": 11, "key_press": -1, "wordID": 229, "type": "PRES_VIS", "trial_index": 180}, "uniqueid": "MTK2584:3TAYZSBPLMFBDN82XNM2PPJ307F2S7", "dateTime": 1519080583189}, {"current_trial": 181, "trialdata": {"rt": -1, "trial_type": "single-stim", "word": "eagle", "stimulus": "<p id=\"stim\">EAGLE</p>", "conditions": [24, 1600, "v", 24000], "internal_node_id": "0.0-136.0", "trial": 4, "time_elapsed": 816898, "serialpos": 12, "key_press": -1, "wordID": 511, "type": "PRES_VIS", "trial_index": 181}, "uniqueid": "MTK2584:3TAYZSBPLMFBDN82XNM2PPJ307F2S7", "dateTime": 1519080585804}, {"current_trial": 182, "trialdata": {"rt": -1, "trial_type": "single-stim", "word": "climber", "stimulus": "<p id=\"stim\">CLIMBER</p>", "conditions": [24, 1600, "v", 24000], "internal_node_id": "0.0-137.0", "trial": 4, "time_elapsed": 819470, "serialpos": 13, "key_press": -1, "wordID": 322, "type": "PRES_VIS", "trial_index": 182}, "uniqueid": "MTK2584:3TAYZSBPLMFBDN82XNM2PPJ307F2S7", "dateTime": 1519080588375}, {"current_trial": 183, "trialdata": {"rt": -1, "trial_type": "single-stim", "word": "racket", "stimulus": "<p id=\"stim\">RACKET</p>", "conditions": [24, 1600, "v", 24000], "internal_node_id": "0.0-138.0", "trial": 4, "time_elapsed": 822154, "serialpos": 14, "key_press": -1, "wordID": 1154, "type": "PRES_VIS", "trial_index": 183}, "uniqueid": "MTK2584:3TAYZSBPLMFBDN82XNM2PPJ307F2S7", "dateTime": 1519080591059}, {"current_trial": 184, "trialdata": {"rt": -1, "trial_type": "single-stim", "word": "transplant", "stimulus": "<p id=\"stim\">TRANSPLANT</p>", "conditions": [24, 1600, "v", 24000], "internal_node_id": "0.0-139.0", "trial": 4, "time_elapsed": 824828, "serialpos": 15, "key_press": -1, "wordID": 1495, "type": "PRES_VIS", "trial_index": 184}, "uniqueid": "MTK2584:3TAYZSBPLMFBDN82XNM2PPJ307F2S7", "dateTime": 1519080593733}, {"current_trial": 185, "trialdata": {"rt": -1, "trial_type": "single-stim", "word": "hiker", "stimulus": "<p id=\"stim\">HIKER</p>", "conditions": [24, 1600, "v", 24000], "internal_node_id": "0.0-140.0", "trial": 4, "time_elapsed": 827422, "serialpos": 16, "key_press": -1, "wordID": 707, "type": "PRES_VIS", "trial_index": 185}, "uniqueid": "MTK2584:3TAYZSBPLMFBDN82XNM2PPJ307F2S7", "dateTime": 1519080596328}, {"current_trial": 186, "trialdata": {"rt": -1, "trial_type": "single-stim", "word": "gravel", "stimulus": "<p id=\"stim\">GRAVEL</p>", "conditions": [24, 1600, "v", 24000], "internal_node_id": "0.0-141.0", "trial": 4, "time_elapsed": 829986, "serialpos": 17, "key_press": -1, "wordID": 658, "type": "PRES_VIS", "trial_index": 186}, "uniqueid": "MTK2584:3TAYZSBPLMFBDN82XNM2PPJ307F2S7", "dateTime": 1519080598892}, {"current_trial": 187, "trialdata": {"rt": -1, "trial_type": "single-stim", "word": "kleenex", "stimulus": "<p id=\"stim\">KLEENEX</p>", "conditions": [24, 1600, "v", 24000], "internal_node_id": "0.0-142.0", "trial": 4, "time_elapsed": 832440, "serialpos": 18, "key_press": -1, "wordID": 781, "type": "PRES_VIS", "trial_index": 187}, "uniqueid": "MTK2584:3TAYZSBPLMFBDN82XNM2PPJ307F2S7", "dateTime": 1519080601345}, {"current_trial": 188, "trialdata": {"rt": -1, "trial_type": "single-stim", "word": "freckle", "stimulus": "<p id=\"stim\">FRECKLE</p>", "conditions": [24, 1600, "v", 24000], "internal_node_id": "0.0-143.0", "trial": 4, "time_elapsed": 835206, "serialpos": 19, "key_press": -1, "wordID": 601, "type": "PRES_VIS", "trial_index": 188}, "uniqueid": "MTK2584:3TAYZSBPLMFBDN82XNM2PPJ307F2S7", "dateTime": 1519080604111}, {"current_trial": 189, "trialdata": {"rt": -1, "trial_type": "single-stim", "word": "turnip", "stimulus": "<p id=\"stim\">TURNIP</p>", "conditions": [24, 1600, "v", 24000], "internal_node_id": "0.0-144.0", "trial": 4, "time_elapsed": 837828, "serialpos": 20, "key_press": -1, "wordID": 1520, "type": "PRES_VIS", "trial_index": 189}, "uniqueid": "MTK2584:3TAYZSBPLMFBDN82XNM2PPJ307F2S7", "dateTime": 1519080606734}, {"current_trial": 190, "trialdata": {"rt": -1, "trial_type": "single-stim", "word": "cabbage", "stimulus": "<p id=\"stim\">CABBAGE</p>", "conditions": [24, 1600, "v", 24000], "internal_node_id": "0.0-145.0", "trial": 4, "time_elapsed": 840640, "serialpos": 21, "key_press": -1, "wordID": 209, "type": "PRES_VIS", "trial_index": 190}, "uniqueid": "MTK2584:3TAYZSBPLMFBDN82XNM2PPJ307F2S7", "dateTime": 1519080609545}, {"current_trial": 191, "trialdata": {"rt": -1, "trial_type": "single-stim", "word": "oyster", "stimulus": "<p id=\"stim\">OYSTER</p>", "conditions": [24, 1600, "v", 24000], "internal_node_id": "0.0-146.0", "trial": 4, "time_elapsed": 843437, "serialpos": 22, "key_press": -1, "wordID": 994, "type": "PRES_VIS", "trial_index": 191}, "uniqueid": "MTK2584:3TAYZSBPLMFBDN82XNM2PPJ307F2S7", "dateTime": 1519080612343}, {"current_trial": 192, "trialdata": {"rt": -1, "trial_type": "single-stim", "word": "staple", "stimulus": "<p id=\"stim\">STAPLE</p>", "conditions": [24, 1600, "v", 24000], "internal_node_id": "0.0-147.0", "trial": 4, "time_elapsed": 845969, "serialpos": 23, "key_press": -1, "wordID": 1370, "type": "PRES_VIS", "trial_index": 192}, "uniqueid": "MTK2584:3TAYZSBPLMFBDN82XNM2PPJ307F2S7", "dateTime": 1519080614874}, {"current_trial": 193, "trialdata": {"rt": -1, "trial_type": "single-stim", "stimulus": "", "internal_node_id": "0.0-148.0-0.0", "time_elapsed": 848164, "key_press": -1, "type": "PRE_RECALL_DELAY", "trial_index": 193}, "uniqueid": "MTK2584:3TAYZSBPLMFBDN82XNM2PPJ307F2S7", "dateTime": 1519080617069}, {"current_trial": 194, "trialdata": {"rt": -1000, "trial_type": "single-audio", "stimulus": "/static/audio/400Hz.wav", "internal_node_id": "0.0-149.0", "time_elapsed": 848675, "key_press": -1, "type": "PRE_RECALL_ALERT", "trial_index": 194}, "uniqueid": "MTK2584:3TAYZSBPLMFBDN82XNM2PPJ307F2S7", "dateTime": 1519080617580}, {"current_trial": 195, "trialdata": {"rt": [2665, 4562, 6010, 9460, 10611, 11757, 13209, 15162, 18427, 20730, 22597, 25053, 26877, 28212, 29835, 33213, 37793, 49675, 51775], "recwords": ["turnip", "cabbage", "stamp", "scotch", "stone", "brick", "gravel", "flesh", "climber", "hiker", "kleenex", "transplant", "racket", "oyster", "eagle", "backbone", "stamp", "queen", "princess"], "key_times": [944, 1203, 1442, 1616, 1904, 2086, 2665, 2975, 3142, 3362, 3521, 3712, 3920, 4188, 4562, 4773, 4923, 5324, 5429, 5723, 6010, 6356, 6609, 6847, 6961, 7202, 7357, 7787, 7953, 8118, 8273, 8477, 8584, 8778, 8884, 9460, 9629, 9790, 9905, 9993, 10175, 10611, 10792, 11012, 11170, 11372, 11518, 11757, 12083, 12274, 12389, 12619, 12804, 12975, 13209, 13626, 13864, 14122, 14356, 14596, 15162, 15518, 15649, 15912, 16288, 16959, 17772, 17906, 18427, 18993, 19238, 19453, 19533, 19744, 19893, 20330, 20730, 20981, 21184, 21262, 21436, 21662, 21872, 22252, 22597, 22783, 22908, 23058, 23264, 23620, 23819, 24007, 24168, 24258, 24519, 25053, 25474, 25601, 25836, 26037, 26231, 26461, 26877, 27177, 27326, 27393, 27553, 27716, 27818, 28212, 28482, 28620, 28680, 29024, 29160, 29274, 29400, 29835, 30036, 30276, 30626, 30709, 31087, 31347, 31502, 31592, 31837, 32027, 32103, 32238, 33213, 37083, 37201, 37322, 37399, 37584, 37793, 48967, 49121, 49242, 49403, 49473, 49675, 49888, 50003, 50097, 50163, 50238, 50459, 50638, 50798, 51775], "trial_type": "free-recall", "conditions": [24, 1600, "v", 24000], "internal_node_id": "0.0-150.0-0.0", "key_presses": [84, 85, 82, 78, 73, 80, 13, 67, 65, 66, 66, 65, 71, 69, 13, 83, 84, 65, 77, 80, 13, 83, 67, 84, 79, 67, 72, 8, 8, 8, 8, 79, 84, 67, 72, 13, 83, 84, 79, 78, 69, 13, 66, 82, 73, 67, 75, 13, 71, 82, 65, 86, 69, 76, 13, 70, 76, 69, 83, 72, 13, 67, 76, 73, 77, 66, 69, 82, 13, 75, 8, 72, 73, 75, 69, 82, 13, 75, 76, 69, 69, 78, 69, 88, 13, 84, 82, 65, 78, 83, 80, 76, 65, 78, 84, 13, 82, 65, 67, 75, 69, 84, 13, 79, 89, 83, 84, 69, 82, 13, 69, 65, 83, 8, 71, 76, 69, 13, 66, 75, 8, 65, 75, 8, 67, 75, 66, 79, 78, 69, 13, 83, 84, 65, 77, 80, 13, 81, 85, 69, 69, 78, 13, 80, 82, 73, 78, 67, 69, 83, 83, 13], "trial": 4, "time_elapsed": 908682, "type": "FREE_RECALL", "trial_index": 195}, "uniqueid": "MTK2584:3TAYZSBPLMFBDN82XNM2PPJ307F2S7", "dateTime": 1519080677593}, {"current_trial": 196, "trialdata": {"rt": 874, "trial_type": "text", "internal_node_id": "0.0-151.0", "time_elapsed": 911565, "key_press": 13, "type": "INSTRUCTIONS", "trial_index": 196}, "uniqueid": "MTK2584:3TAYZSBPLMFBDN82XNM2PPJ307F2S7", "dateTime": 1519080680471}, {"current_trial": 197, "trialdata": {"rt": [2976, 6322, 8518, 10247, 12262, 14047, 16796, 18863, 21235], "trial_type": "math-distractor", "key_times": [2283, 2381, 2976, 6003, 6068, 6322, 7938, 8005, 8518, 9918, 10072, 10247, 11600, 11910, 12262, 13605, 13840, 14047, 16350, 16506, 16796, 18519, 18630, 18863, 20887, 20986, 21235, 23467, 23559], "responses": ["10", "17", "14", "11", "16", "10", "14", "19", "18"], "num2": [4, 8, 5, 1, 9, 2, 3, 9, 8, 7], "num3": [4, 4, 1, 7, 1, 5, 5, 4, 1, 4], "conditions": [12, 800, "v", 24000], "internal_node_id": "0.0-152.0", "key_presses": [49, 48, 13, 49, 55, 13, 49, 52, 13, 49, 49, 13, 49, 54, 13, 49, 48, 13, 49, 52, 13, 49, 57, 13, 49, 56, 13, 49, 57], "trial": 5, "time_elapsed": 937598, "type": "DISTRACTOR", "trial_index": 197, "num1": [2, 5, 8, 3, 6, 3, 6, 6, 9, 8]}, "uniqueid": "MTK2584:3TAYZSBPLMFBDN82XNM2PPJ307F2S7", "dateTime": 1519080706503}, {"current_trial": 198, "trialdata": {"rt": -1, "trial_type": "single-stim", "stimulus": "<p id=\"stim\">10</p>", "internal_node_id": "0.0-153.0-0.0", "time_elapsed": 940608, "key_press": -1, "trial_index": 198}, "uniqueid": "MTK2584:3TAYZSBPLMFBDN82XNM2PPJ307F2S7", "dateTime": 1519080709513}, {"current_trial": 199, "trialdata": {"rt": -1, "trial_type": "single-stim", "stimulus": "<p id=\"stim\">9</p>", "internal_node_id": "0.0-153.0-1.0", "time_elapsed": 941614, "key_press": -1, "trial_index": 199}, "uniqueid": "MTK2584:3TAYZSBPLMFBDN82XNM2PPJ307F2S7", "dateTime": 1519080710519}, {"current_trial": 200, "trialdata": {"rt": -1, "trial_type": "single-stim", "stimulus": "<p id=\"stim\">8</p>", "internal_node_id": "0.0-153.0-2.0", "time_elapsed": 942619, "key_press": -1, "trial_index": 200}, "uniqueid": "MTK2584:3TAYZSBPLMFBDN82XNM2PPJ307F2S7", "dateTime": 1519080711525}, {"current_trial": 201, "trialdata": {"rt": -1, "trial_type": "single-stim", "stimulus": "<p id=\"stim\">7</p>", "internal_node_id": "0.0-153.0-3.0", "time_elapsed": 943625, "key_press": -1, "trial_index": 201}, "uniqueid": "MTK2584:3TAYZSBPLMFBDN82XNM2PPJ307F2S7", "dateTime": 1519080712530}, {"current_trial": 202, "trialdata": {"rt": -1, "trial_type": "single-stim", "stimulus": "<p id=\"stim\">6</p>", "internal_node_id": "0.0-153.0-4.0", "time_elapsed": 944630, "key_press": -1, "trial_index": 202}, "uniqueid": "MTK2584:3TAYZSBPLMFBDN82XNM2PPJ307F2S7", "dateTime": 1519080713535}, {"current_trial": 203, "trialdata": {"rt": -1, "trial_type": "single-stim", "stimulus": "<p id=\"stim\">5</p>", "internal_node_id": "0.0-153.0-5.0", "time_elapsed": 945635, "key_press": -1, "trial_index": 203}, "uniqueid": "MTK2584:3TAYZSBPLMFBDN82XNM2PPJ307F2S7", "dateTime": 1519080714540}, {"current_trial": 204, "trialdata": {"rt": -1, "trial_type": "single-stim", "stimulus": "<p id=\"stim\">4</p>", "internal_node_id": "0.0-153.0-6.0", "time_elapsed": 946639, "key_press": -1, "trial_index": 204}, "uniqueid": "MTK2584:3TAYZSBPLMFBDN82XNM2PPJ307F2S7", "dateTime": 1519080715544}, {"current_trial": 205, "trialdata": {"rt": -1, "trial_type": "single-stim", "stimulus": "<p id=\"stim\">3</p>", "internal_node_id": "0.0-153.0-7.0", "time_elapsed": 947644, "key_press": -1, "trial_index": 205}, "uniqueid": "MTK2584:3TAYZSBPLMFBDN82XNM2PPJ307F2S7", "dateTime": 1519080716549}, {"current_trial": 206, "trialdata": {"rt": -1, "trial_type": "single-stim", "stimulus": "<p id=\"stim\">2</p>", "internal_node_id": "0.0-153.0-8.0", "time_elapsed": 948647, "key_press": -1, "trial_index": 206}, "uniqueid": "MTK2584:3TAYZSBPLMFBDN82XNM2PPJ307F2S7", "dateTime": 1519080717552}, {"current_trial": 207, "trialdata": {"rt": -1, "trial_type": "single-stim", "stimulus": "<p id=\"stim\">1</p>", "internal_node_id": "0.0-153.0-9.0", "time_elapsed": 949652, "key_press": -1, "trial_index": 207}, "uniqueid": "MTK2584:3TAYZSBPLMFBDN82XNM2PPJ307F2S7", "dateTime": 1519080718557}, {"current_trial": 208, "trialdata": {"rt": -1, "trial_type": "single-stim", "stimulus": "<p id=\"stim\">+</p>", "internal_node_id": "0.0-154.0-0.0", "time_elapsed": 951168, "key_press": -1, "type": "FIXATION", "trial_index": 208}, "uniqueid": "MTK2584:3TAYZSBPLMFBDN82XNM2PPJ307F2S7", "dateTime": 1519080720073}, {"current_trial": 209, "trialdata": {"rt": -1, "trial_type": "single-stim", "word": "leader", "stimulus": "<p id=\"stim\">LEADER</p>", "conditions": [12, 800, "v", 24000], "internal_node_id": "0.0-155.0", "trial": 5, "time_elapsed": 951969, "serialpos": 0, "key_press": -1, "wordID": 806, "type": "PRES_VIS", "trial_index": 209}, "uniqueid": "MTK2584:3TAYZSBPLMFBDN82XNM2PPJ307F2S7", "dateTime": 1519080720874}, {"current_trial": 210, "trialdata": {"rt": -1, "trial_type": "single-stim", "word": "finger", "stimulus": "<p id=\"stim\">FINGER</p>", "conditions": [12, 800, "v", 24000], "internal_node_id": "0.0-156.0", "trial": 5, "time_elapsed": 953701, "serialpos": 1, "key_press": -1, "wordID": 566, "type": "PRES_VIS", "trial_index": 210}, "uniqueid": "MTK2584:3TAYZSBPLMFBDN82XNM2PPJ307F2S7", "dateTime": 1519080722606}, {"current_trial": 211, "trialdata": {"rt": -1, "trial_type": "single-stim", "word": "flower", "stimulus": "<p id=\"stim\">FLOWER</p>", "conditions": [12, 800, "v", 24000], "internal_node_id": "0.0-157.0", "trial": 5, "time_elapsed": 955649, "serialpos": 2, "key_press": -1, "wordID": 583, "type": "PRES_VIS", "trial_index": 211}, "uniqueid": "MTK2584:3TAYZSBPLMFBDN82XNM2PPJ307F2S7", "dateTime": 1519080724554}, {"current_trial": 212, "trialdata": {"rt": -1, "trial_type": "single-stim", "word": "headband", "stimulus": "<p id=\"stim\">HEADBAND</p>", "conditions": [12, 800, "v", 24000], "internal_node_id": "0.0-158.0", "trial": 5, "time_elapsed": 957567, "serialpos": 3, "key_press": -1, "wordID": 695, "type": "PRES_VIS", "trial_index": 212}, "uniqueid": "MTK2584:3TAYZSBPLMFBDN82XNM2PPJ307F2S7", "dateTime": 1519080726473}, {"current_trial": 213, "trialdata": {"rt": -1, "trial_type": "single-stim", "word": "harp", "stimulus": "<p id=\"stim\">HARP</p>", "conditions": [12, 800, "v", 24000], "internal_node_id": "0.0-159.0", "trial": 5, "time_elapsed": 959547, "serialpos": 4, "key_press": -1, "wordID": 688, "type": "PRES_VIS", "trial_index": 213}, "uniqueid": "MTK2584:3TAYZSBPLMFBDN82XNM2PPJ307F2S7", "dateTime": 1519080728452}, {"current_trial": 214, "trialdata": {"rt": -1, "trial_type": "single-stim", "word": "thread", "stimulus": "<p id=\"stim\">THREAD</p>", "conditions": [12, 800, "v", 24000], "internal_node_id": "0.0-160.0", "trial": 5, "time_elapsed": 961294, "serialpos": 5, "key_press": -1, "wordID": 1459, "type": "PRES_VIS", "trial_index": 214}, "uniqueid": "MTK2584:3TAYZSBPLMFBDN82XNM2PPJ307F2S7", "dateTime": 1519080730199}, {"current_trial": 215, "trialdata": {"rt": -1, "trial_type": "single-stim", "word": "wrist", "stimulus": "<p id=\"stim\">WRIST</p>", "conditions": [12, 800, "v", 24000], "internal_node_id": "0.0-161.0", "trial": 5, "time_elapsed": 963088, "serialpos": 6, "key_press": -1, "wordID": 1625, "type": "PRES_VIS", "trial_index": 215}, "uniqueid": "MTK2584:3TAYZSBPLMFBDN82XNM2PPJ307F2S7", "dateTime": 1519080731993}, {"current_trial": 216, "trialdata": {"rt": -1, "trial_type": "single-stim", "word": "contract", "stimulus": "<p id=\"stim\">CONTRACT</p>", "conditions": [12, 800, "v", 24000], "internal_node_id": "0.0-162.0", "trial": 5, "time_elapsed": 964819, "serialpos": 7, "key_press": -1, "wordID": 367, "type": "PRES_VIS", "trial_index": 216}, "uniqueid": "MTK2584:3TAYZSBPLMFBDN82XNM2PPJ307F2S7", "dateTime": 1519080733724}, {"current_trial": 217, "trialdata": {"rt": -1, "trial_type": "single-stim", "word": "concert", "stimulus": "<p id=\"stim\">CONCERT</p>", "conditions": [12, 800, "v", 24000], "internal_node_id": "0.0-163.0", "trial": 5, "time_elapsed": 966518, "serialpos": 8, "key_press": -1, "wordID": 359, "type": "PRES_VIS", "trial_index": 217}, "uniqueid": "MTK2584:3TAYZSBPLMFBDN82XNM2PPJ307F2S7", "dateTime": 1519080735423}, {"current_trial": 218, "trialdata": {"rt": -1, "trial_type": "single-stim", "word": "parsley", "stimulus": "<p id=\"stim\">PARSLEY</p>", "conditions": [12, 800, "v", 24000], "internal_node_id": "0.0-164.0", "trial": 5, "time_elapsed": 968415, "serialpos": 9, "key_press": -1, "wordID": 1015, "type": "PRES_VIS", "trial_index": 218}, "uniqueid": "MTK2584:3TAYZSBPLMFBDN82XNM2PPJ307F2S7", "dateTime": 1519080737321}, {"current_trial": 219, "trialdata": {"rt": -1, "trial_type": "single-stim", "word": "salad", "stimulus": "<p id=\"stim\">SALAD</p>", "conditions": [12, 800, "v", 24000], "internal_node_id": "0.0-165.0", "trial": 5, "time_elapsed": 970409, "serialpos": 10, "key_press": -1, "wordID": 1223, "type": "PRES_VIS", "trial_index": 219}, "uniqueid": "MTK2584:3TAYZSBPLMFBDN82XNM2PPJ307F2S7", "dateTime": 1519080739315}, {"current_trial": 220, "trialdata": {"rt": -1, "trial_type": "single-stim", "word": "agent", "stimulus": "<p id=\"stim\">AGENT</p>", "conditions": [12, 800, "v", 24000], "internal_node_id": "0.0-166.0", "trial": 5, "time_elapsed": 972061, "serialpos": 11, "key_press": -1, "wordID": 9, "type": "PRES_VIS", "trial_index": 220}, "uniqueid": "MTK2584:3TAYZSBPLMFBDN82XNM2PPJ307F2S7", "dateTime": 1519080740966}, {"current_trial": 221, "trialdata": {"rt": -1, "trial_type": "single-stim", "stimulus": "", "internal_node_id": "0.0-167.0-0.0", "time_elapsed": 974272, "key_press": -1, "type": "PRE_RECALL_DELAY", "trial_index": 221}, "uniqueid": "MTK2584:3TAYZSBPLMFBDN82XNM2PPJ307F2S7", "dateTime": 1519080743178}, {"current_trial": 222, "trialdata": {"rt": -1000, "trial_type": "single-audio", "stimulus": "/static/audio/400Hz.wav", "internal_node_id": "0.0-168.0", "time_elapsed": 974783, "key_press": -1, "type": "PRE_RECALL_ALERT", "trial_index": 222}, "uniqueid": "MTK2584:3TAYZSBPLMFBDN82XNM2PPJ307F2S7", "dateTime": 1519080743689}, {"current_trial": 223, "trialdata": {"rt": [2441, 3713, 5549, 9023, 11214, 13411, 16945, 22026, 25012, 30593], "recwords": ["parsley", "salad", "agent", "contract", "finger", "headband", "leader", "wrist", "finger", "agent"], "key_times": [643, 748, 945, 1379, 1484, 1686, 1871, 2441, 2585, 2737, 2885, 2985, 3181, 3713, 4163, 4385, 4530, 4670, 4910, 5549, 6021, 6122, 6197, 6402, 6571, 6727, 7032, 7419, 9023, 9660, 9797, 9833, 9967, 10277, 10528, 11214, 11503, 11604, 11690, 11910, 12239, 12509, 12636, 12841, 13411, 13878, 14012, 14143, 14408, 14785, 14932, 16945, 20277, 20376, 20526, 20671, 20781, 22026, 24166, 24281, 24373, 24452, 24620, 24687, 25012, 29207, 29413, 29558, 29643, 29790, 30593], "trial_type": "free-recall", "conditions": [12, 800, "v", 24000], "internal_node_id": "0.0-169.0-0.0", "key_presses": [80, 65, 82, 83, 76, 69, 89, 13, 83, 65, 76, 65, 68, 13, 65, 71, 69, 78, 84, 13, 67, 79, 78, 84, 82, 65, 67, 84, 13, 70, 73, 78, 71, 69, 82, 13, 72, 69, 65, 68, 66, 65, 78, 68, 13, 76, 69, 65, 68, 69, 82, 13, 87, 82, 73, 83, 84, 13, 70, 73, 78, 71, 69, 82, 13, 65, 71, 69, 78, 84, 13], "trial": 5, "time_elapsed": 1034796, "type": "FREE_RECALL", "trial_index": 223}, "uniqueid": "MTK2584:3TAYZSBPLMFBDN82XNM2PPJ307F2S7", "dateTime": 1519080803708}, {"current_trial": 224, "trialdata": {"rt": 2987, "trial_type": "text", "internal_node_id": "0.0-170.0", "time_elapsed": 1039791, "key_press": 13, "type": "INSTRUCTIONS", "trial_index": 224}, "uniqueid": "MTK2584:3TAYZSBPLMFBDN82XNM2PPJ307F2S7", "dateTime": 1519080808696}, {"current_trial": 225, "trialdata": {"rt": [2683, 5623, 10238], "trial_type": "math-distractor", "key_times": [2370, 2490, 2683, 5228, 5271, 5623, 9796, 10013, 10238], "responses": ["15", "17", "26"], "num2": [4, 5, 8, 6], "num3": [7, 6, 9, 3], "conditions": [12, 800, "v", 12000], "internal_node_id": "0.0-171.0", "key_presses": [49, 53, 13, 49, 55, 13, 50, 54, 13], "trial": 6, "time_elapsed": 1053803, "type": "DISTRACTOR", "trial_index": 225, "num1": [4, 6, 9, 6]}, "uniqueid": "MTK2584:3TAYZSBPLMFBDN82XNM2PPJ307F2S7", "dateTime": 1519080822709}, {"current_trial": 226, "trialdata": {"rt": -1, "trial_type": "single-stim", "stimulus": "<p id=\"stim\">10</p>", "internal_node_id": "0.0-172.0-0.0", "time_elapsed": 1056814, "key_press": -1, "trial_index": 226}, "uniqueid": "MTK2584:3TAYZSBPLMFBDN82XNM2PPJ307F2S7", "dateTime": 1519080825720}, {"current_trial": 227, "trialdata": {"rt": -1, "trial_type": "single-stim", "stimulus": "<p id=\"stim\">9</p>", "internal_node_id": "0.0-172.0-1.0", "time_elapsed": 1057818, "key_press": -1, "trial_index": 227}, "uniqueid": "MTK2584:3TAYZSBPLMFBDN82XNM2PPJ307F2S7", "dateTime": 1519080826724}, {"current_trial": 228, "trialdata": {"rt": -1, "trial_type": "single-stim", "stimulus": "<p id=\"stim\">8</p>", "internal_node_id": "0.0-172.0-2.0", "time_elapsed": 1058822, "key_press": -1, "trial_index": 228}, "uniqueid": "MTK2584:3TAYZSBPLMFBDN82XNM2PPJ307F2S7", "dateTime": 1519080827727}, {"current_trial": 229, "trialdata": {"rt": -1, "trial_type": "single-stim", "stimulus": "<p id=\"stim\">7</p>", "internal_node_id": "0.0-172.0-3.0", "time_elapsed": 1059825, "key_press": -1, "trial_index": 229}, "uniqueid": "MTK2584:3TAYZSBPLMFBDN82XNM2PPJ307F2S7", "dateTime": 1519080828730}, {"current_trial": 230, "trialdata": {"rt": -1, "trial_type": "single-stim", "stimulus": "<p id=\"stim\">6</p>", "internal_node_id": "0.0-172.0-4.0", "time_elapsed": 1060829, "key_press": -1, "trial_index": 230}, "uniqueid": "MTK2584:3TAYZSBPLMFBDN82XNM2PPJ307F2S7", "dateTime": 1519080829735}, {"current_trial": 231, "trialdata": {"rt": -1, "trial_type": "single-stim", "stimulus": "<p id=\"stim\">5</p>", "internal_node_id": "0.0-172.0-5.0", "time_elapsed": 1061835, "key_press": -1, "trial_index": 231}, "uniqueid": "MTK2584:3TAYZSBPLMFBDN82XNM2PPJ307F2S7", "dateTime": 1519080830740}, {"current_trial": 232, "trialdata": {"rt": -1, "trial_type": "single-stim", "stimulus": "<p id=\"stim\">4</p>", "internal_node_id": "0.0-172.0-6.0", "time_elapsed": 1062841, "key_press": -1, "trial_index": 232}, "uniqueid": "MTK2584:3TAYZSBPLMFBDN82XNM2PPJ307F2S7", "dateTime": 1519080831747}, {"current_trial": 233, "trialdata": {"rt": -1, "trial_type": "single-stim", "stimulus": "<p id=\"stim\">3</p>", "internal_node_id": "0.0-172.0-7.0", "time_elapsed": 1063847, "key_press": -1, "trial_index": 233}, "uniqueid": "MTK2584:3TAYZSBPLMFBDN82XNM2PPJ307F2S7", "dateTime": 1519080832752}, {"current_trial": 234, "trialdata": {"rt": -1, "trial_type": "single-stim", "stimulus": "<p id=\"stim\">2</p>", "internal_node_id": "0.0-172.0-8.0", "time_elapsed": 1064851, "key_press": -1, "trial_index": 234}, "uniqueid": "MTK2584:3TAYZSBPLMFBDN82XNM2PPJ307F2S7", "dateTime": 1519080833756}, {"current_trial": 235, "trialdata": {"rt": -1, "trial_type": "single-stim", "stimulus": "<p id=\"stim\">1</p>", "internal_node_id": "0.0-172.0-9.0", "time_elapsed": 1065856, "key_press": -1, "trial_index": 235}, "uniqueid": "MTK2584:3TAYZSBPLMFBDN82XNM2PPJ307F2S7", "dateTime": 1519080834761}, {"current_trial": 236, "trialdata": {"rt": -1, "trial_type": "single-stim", "stimulus": "<p id=\"stim\">+</p>", "internal_node_id": "0.0-173.0-0.0", "time_elapsed": 1067357, "key_press": -1, "type": "FIXATION", "trial_index": 236}, "uniqueid": "MTK2584:3TAYZSBPLMFBDN82XNM2PPJ307F2S7", "dateTime": 1519080836263}, {"current_trial": 237, "trialdata": {"rt": -1, "trial_type": "single-stim", "word": "office", "stimulus": "<p id=\"stim\">OFFICE</p>", "conditions": [12, 800, "v", 12000], "internal_node_id": "0.0-174.0", "trial": 6, "time_elapsed": 1068172, "serialpos": 0, "key_press": -1, "wordID": 971, "type": "PRES_VIS", "trial_index": 237}, "uniqueid": "MTK2584:3TAYZSBPLMFBDN82XNM2PPJ307F2S7", "dateTime": 1519080837077}, {"current_trial": 238, "trialdata": {"rt": -1, "trial_type": "single-stim", "word": "sphinx", "stimulus": "<p id=\"stim\">SPHINX</p>", "conditions": [12, 800, "v", 12000], "internal_node_id": "0.0-175.0", "trial": 6, "time_elapsed": 1070116, "serialpos": 1, "key_press": -1, "wordID": 1348, "type": "PRES_VIS", "trial_index": 238}, "uniqueid": "MTK2584:3TAYZSBPLMFBDN82XNM2PPJ307F2S7", "dateTime": 1519080839022}, {"current_trial": 239, "trialdata": {"rt": -1, "trial_type": "single-stim", "word": "patient", "stimulus": "<p id=\"stim\">PATIENT</p>", "conditions": [12, 800, "v", 12000], "internal_node_id": "0.0-176.0", "trial": 6, "time_elapsed": 1071926, "serialpos": 2, "key_press": -1, "wordID": 1023, "type": "PRES_VIS", "trial_index": 239}, "uniqueid": "MTK2584:3TAYZSBPLMFBDN82XNM2PPJ307F2S7", "dateTime": 1519080840832}, {"current_trial": 240, "trialdata": {"rt": -1, "trial_type": "single-stim", "word": "outfit", "stimulus": "<p id=\"stim\">OUTFIT</p>", "conditions": [12, 800, "v", 12000], "internal_node_id": "0.0-177.0", "trial": 6, "time_elapsed": 1073855, "serialpos": 3, "key_press": -1, "wordID": 987, "type": "PRES_VIS", "trial_index": 240}, "uniqueid": "MTK2584:3TAYZSBPLMFBDN82XNM2PPJ307F2S7", "dateTime": 1519080842761}, {"current_trial": 241, "trialdata": {"rt": -1, "trial_type": "single-stim", "word": "mars", "stimulus": "<p id=\"stim\">MARS</p>", "conditions": [12, 800, "v", 12000], "internal_node_id": "0.0-178.0", "trial": 6, "time_elapsed": 1075770, "serialpos": 4, "key_press": -1, "wordID": 872, "type": "PRES_VIS", "trial_index": 241}, "uniqueid": "MTK2584:3TAYZSBPLMFBDN82XNM2PPJ307F2S7", "dateTime": 1519080844676}, {"current_trial": 242, "trialdata": {"rt": -1, "trial_type": "single-stim", "word": "pocket", "stimulus": "<p id=\"stim\">POCKET</p>", "conditions": [12, 800, "v", 12000], "internal_node_id": "0.0-179.0", "trial": 6, "time_elapsed": 1077407, "serialpos": 5, "key_press": -1, "wordID": 1092, "type": "PRES_VIS", "trial_index": 242}, "uniqueid": "MTK2584:3TAYZSBPLMFBDN82XNM2PPJ307F2S7", "dateTime": 1519080846312}, {"current_trial": 243, "trialdata": {"rt": -1, "trial_type": "single-stim", "word": "hood", "stimulus": "<p id=\"stim\">HOOD</p>", "conditions": [12, 800, "v", 12000], "internal_node_id": "0.0-180.0", "trial": 6, "time_elapsed": 1079218, "serialpos": 6, "key_press": -1, "wordID": 713, "type": "PRES_VIS", "trial_index": 243}, "uniqueid": "MTK2584:3TAYZSBPLMFBDN82XNM2PPJ307F2S7", "dateTime": 1519080848123}, {"current_trial": 244, "trialdata": {"rt": -1, "trial_type": "single-stim", "word": "nurse", "stimulus": "<p id=\"stim\">NURSE</p>", "conditions": [12, 800, "v", 1