{"assignmentId": "30LB5CDZNDH1IPR2DSCW2UNROBDZ0F", "workerId": "MTK2066", "questiondata": {"avail_screen_height": 824, "color_depth": 24, "screen_width": 1536, "pixel_depth": 24, "avail_screen_width": 1536, "screen_height": 864}, "bonus": 0, "hitId": "34OWYT6U3WOVW9SBNI216QPADL4I9L", "counterbalance": 1801, "useragent": "Mozilla/5.0 (Windows NT 10.0; Win64; x64) AppleWebKit/537.36 (KHTML, like Gecko) Chrome/63.0.3239.132 Safari/537.36", "eventdata": [{"eventtype": "initialized", "interval": 0, "value": null, "timestamp": 1516668840141}, {"eventtype": "window_resize", "interval": 0, "value": [1540, 816], "timestamp": 1516668840141}, {"eventtype": "focus", "interval": 2899, "value": "off", "timestamp": 1516668843040}, {"eventtype": "focus", "interval": 5081, "value": "on", "timestamp": 1516668848121}, {"eventtype": "focus", "interval": 1890, "value": "off", "timestamp": 1516668850011}, {"eventtype": "focus", "interval": 40321, "value": "on", "timestamp": 1516668890332}, {"eventtype": "focus", "interval": 8472, "value": "off", "timestamp": 1516668898804}, {"eventtype": "focus", "interval": 2475, "value": "on", "timestamp": 1516668901279}, {"eventtype": "focus", "interval": 3319, "value": "off", "timestamp": 1516668904598}, {"eventtype": "focus", "interval": 2247, "value": "on", "timestamp": 1516668906845}, {"eventtype": "focus", "interval": 10940, "value": "off", "timestamp": 1516668917785}, {"eventtype": "focus", "interval": 1, "value": "on", "timestamp": 1516668917786}, {"eventtype": "focus", "interval": 61902, "value": "off", "timestamp": 1516668979688}, {"eventtype": "focus", "interval": 34032, "value": "on", "timestamp": 1516669013720}, {"eventtype": "focus", "interval": 13738, "value": "off", "timestamp": 1516669027458}, {"eventtype": "focus", "interval": 44076, "value": "on", "timestamp": 1516669071534}], "data": [{"current_trial": 0, "trialdata": {"rt": 38261, "trial_type": "text", "internal_node_id": "0.0-0.0", "time_elapsed": 38263, "key_press": 32, "type": "INSTRUCTIONS", "trial_index": 0}, "uniqueid": "MTK2066:30LB5CDZNDH1IPR2DSCW2UNROBDZ0F", "dateTime": 1516668891541}, {"current_trial": 1, "trialdata": {"rt": 4765, "trial_type": "text", "internal_node_id": "0.0-1.0", "time_elapsed": 43028, "key_press": 32, "type": "INSTRUCTIONS", "trial_index": 1}, "uniqueid": "MTK2066:30LB5CDZNDH1IPR2DSCW2UNROBDZ0F", "dateTime": 1516668896306}, {"current_trial": 2, "trialdata": {"rt": [14562], "trial_type": "audio-test", "responses": ["ocean"], "internal_node_id": "0.0-2.0", "time_elapsed": 57596, "type": "AUDIO_TEST", "trial_index": 2}, "uniqueid": "MTK2066:30LB5CDZNDH1IPR2DSCW2UNROBDZ0F", "dateTime": 1516668910874}, {"current_trial": 3, "trialdata": {"rt": [4869], "trial_type": "audio-test", "responses": ["crystal"], "internal_node_id": "0.0-3.0", "time_elapsed": 62468, "type": "AUDIO_TEST", "trial_index": 3}, "uniqueid": "MTK2066:30LB5CDZNDH1IPR2DSCW2UNROBDZ0F", "dateTime": 1516668915746}, {"current_trial": 4, "trialdata": {"rt": [345, 5930], "trial_type": "audio-test", "responses": ["", "spice"], "internal_node_id": "0.0-4.0", "time_elapsed": 68401, "type": "AUDIO_TEST", "trial_index": 4}, "uniqueid": "MTK2066:30LB5CDZNDH1IPR2DSCW2UNROBDZ0F", "dateTime": 1516668921679}, {"current_trial": 5, "trialdata": {"rt": 11618, "trial_type": "survey-text", "responses": "{\"Q0\":\"12am\",\"Q1\":\"6am\",\"Q2\":\"4\"}", "internal_node_id": "0.0-5.0", "time_elapsed": 80772, "type": "SLEEP_SURVEY", "trial_index": 5}, "uniqueid": "MTK2066:30LB5CDZNDH1IPR2DSCW2UNROBDZ0F", "dateTime": 1516668934050}, {"current_trial": 6, "trialdata": {"rt": 1449, "trial_type": "text", "internal_node_id": "0.0-6.0", "time_elapsed": 83222, "key_press": 32, "type": "INSTRUCTIONS", "trial_index": 6}, "uniqueid": "MTK2066:30LB5CDZNDH1IPR2DSCW2UNROBDZ0F", "dateTime": 1516668936500}, {"current_trial": 7, "trialdata": {"rt": 629, "trial_type": "text", "internal_node_id": "0.0-7.0", "time_elapsed": 84351, "key_press": 32, "type": "INSTRUCTIONS", "trial_index": 7}, "uniqueid": "MTK2066:30LB5CDZNDH1IPR2DSCW2UNROBDZ0F", "dateTime": 1516668937629}, {"current_trial": 8, "trialdata": {"rt": 450, "trial_type": "text", "internal_node_id": "0.0-8.0", "time_elapsed": 85303, "key_press": 32, "type": "INSTRUCTIONS", "trial_index": 8}, "uniqueid": "MTK2066:30LB5CDZNDH1IPR2DSCW2UNROBDZ0F", "dateTime": 1516668938582}, {"current_trial": 9, "trialdata": {"rt": [3496, 6879, 10961], "trial_type": "math-distractor", "key_times": [2976, 3175, 3496, 6481, 6627, 6879, 10494, 10657, 10961, 17874], "responses": ["17", "16", "16"], "num2": [8, 9, 7, 6], "num3": [1, 2, 5, 9], "conditions": [18, 1200, "a", 18000], "internal_node_id": "0.0-9.0", "key_presses": [97, 103, 13, 97, 102, 13, 97, 102, 13, 98], "trial": 0, "time_elapsed": 104310, "type": "DISTRACTOR", "trial_index": 9, "num1": [8, 4, 4, 8]}, "uniqueid": "MTK2066:30LB5CDZNDH1IPR2DSCW2UNROBDZ0F", "dateTime": 1516668957588}, {"current_trial": 10, "trialdata": {"rt": -1, "trial_type": "single-stim", "stimulus": "<p id=\"stim\">10</p>", "internal_node_id": "0.0-10.0-0.0", "time_elapsed": 107312, "key_press": -1, "trial_index": 10}, "uniqueid": "MTK2066:30LB5CDZNDH1IPR2DSCW2UNROBDZ0F", "dateTime": 1516668960590}, {"current_trial": 11, "trialdata": {"rt": -1, "trial_type": "single-stim", "stimulus": "<p id=\"stim\">9</p>", "internal_node_id": "0.0-10.0-1.0", "time_elapsed": 108314, "key_press": -1, "trial_index": 11}, "uniqueid": "MTK2066:30LB5CDZNDH1IPR2DSCW2UNROBDZ0F", "dateTime": 1516668961592}, {"current_trial": 12, "trialdata": {"rt": -1, "trial_type": "single-stim", "stimulus": "<p id=\"stim\">8</p>", "internal_node_id": "0.0-10.0-2.0", "time_elapsed": 109317, "key_press": -1, "trial_index": 12}, "uniqueid": "MTK2066:30LB5CDZNDH1IPR2DSCW2UNROBDZ0F", "dateTime": 1516668962595}, {"current_trial": 13, "trialdata": {"rt": -1, "trial_type": "single-stim", "stimulus": "<p id=\"stim\">7</p>", "internal_node_id": "0.0-10.0-3.0", "time_elapsed": 110318, "key_press": -1, "trial_index": 13}, "uniqueid": "MTK2066:30LB5CDZNDH1IPR2DSCW2UNROBDZ0F", "dateTime": 1516668963596}, {"current_trial": 14, "trialdata": {"rt": -1, "trial_type": "single-stim", "stimulus": "<p id=\"stim\">6</p>", "internal_node_id": "0.0-10.0-4.0", "time_elapsed": 111318, "key_press": -1, "trial_index": 14}, "uniqueid": "MTK2066:30LB5CDZNDH1IPR2DSCW2UNROBDZ0F", "dateTime": 1516668964596}, {"current_trial": 15, "trialdata": {"rt": -1, "trial_type": "single-stim", "stimulus": "<p id=\"stim\">5</p>", "internal_node_id": "0.0-10.0-5.0", "time_elapsed": 112320, "key_press": -1, "trial_index": 15}, "uniqueid": "MTK2066:30LB5CDZNDH1IPR2DSCW2UNROBDZ0F", "dateTime": 1516668965598}, {"current_trial": 16, "trialdata": {"rt": -1, "trial_type": "single-stim", "stimulus": "<p id=\"stim\">4</p>", "internal_node_id": "0.0-10.0-6.0", "time_elapsed": 113321, "key_press": -1, "trial_index": 16}, "uniqueid": "MTK2066:30LB5CDZNDH1IPR2DSCW2UNROBDZ0F", "dateTime": 1516668966599}, {"current_trial": 17, "trialdata": {"rt": -1, "trial_type": "single-stim", "stimulus": "<p id=\"stim\">3</p>", "internal_node_id": "0.0-10.0-7.0", "time_elapsed": 114323, "key_press": -1, "trial_index": 17}, "uniqueid": "MTK2066:30LB5CDZNDH1IPR2DSCW2UNROBDZ0F", "dateTime": 1516668967601}, {"current_trial": 18, "trialdata": {"rt": -1, "trial_type": "single-stim", "stimulus": "<p id=\"stim\">2</p>", "internal_node_id": "0.0-10.0-8.0", "time_elapsed": 115324, "key_press": -1, "trial_index": 18}, "uniqueid": "MTK2066:30LB5CDZNDH1IPR2DSCW2UNROBDZ0F", "dateTime": 1516668968602}, {"current_trial": 19, "trialdata": {"rt": -1, "trial_type": "single-stim", "stimulus": "<p id=\"stim\">1</p>", "internal_node_id": "0.0-10.0-9.0", "time_elapsed": 116325, "key_press": -1, "trial_index": 19}, "uniqueid": "MTK2066:30LB5CDZNDH1IPR2DSCW2UNROBDZ0F", "dateTime": 1516668969603}, {"current_trial": 20, "trialdata": {"rt": -1, "trial_type": "single-stim", "stimulus": "<p id=\"stim\">+</p>", "internal_node_id": "0.0-11.0-0.0", "time_elapsed": 117827, "key_press": -1, "type": "FIXATION", "trial_index": 20}, "uniqueid": "MTK2066:30LB5CDZNDH1IPR2DSCW2UNROBDZ0F", "dateTime": 1516668971105}, {"current_trial": 21, "trialdata": {"rt": -1000, "trial_type": "single-audio", "word": "gavel", "stimulus": "/static/audio/wordpool/GAVEL.wav", "conditions": [18, 1200, "a", 18000], "internal_node_id": "0.0-12.0", "trial": 0, "time_elapsed": 120098, "serialpos": 0, "key_press": -1, "wordID": 626, "type": "PRES_AUD", "trial_index": 21}, "uniqueid": "MTK2066:30LB5CDZNDH1IPR2DSCW2UNROBDZ0F", "dateTime": 1516668973376}, {"current_trial": 22, "trialdata": {"rt": -1000, "trial_type": "single-audio", "word": "seal", "stimulus": "/static/audio/wordpool/SEAL.wav", "conditions": [18, 1200, "a", 18000], "internal_node_id": "0.0-13.0", "trial": 0, "time_elapsed": 122113, "serialpos": 1, "key_press": -1, "wordID": 1261, "type": "PRES_AUD", "trial_index": 22}, "uniqueid": "MTK2066:30LB5CDZNDH1IPR2DSCW2UNROBDZ0F", "dateTime": 1516668975391}, {"current_trial": 23, "trialdata": {"rt": -1000, "trial_type": "single-audio", "word": "hiker", "stimulus": "/static/audio/wordpool/HIKER.wav", "conditions": [18, 1200, "a", 18000], "internal_node_id": "0.0-14.0", "trial": 0, "time_elapsed": 124440, "serialpos": 2, "key_press": -1, "wordID": 707, "type": "PRES_AUD", "trial_index": 23}, "uniqueid": "MTK2066:30LB5CDZNDH1IPR2DSCW2UNROBDZ0F", "dateTime": 1516668977718}, {"current_trial": 24, "trialdata": {"rt": -1000, "trial_type": "single-audio", "word": "daughter", "stimulus": "/static/audio/wordpool/DAUGHTER.wav", "conditions": [18, 1200, "a", 18000], "internal_node_id": "0.0-15.0", "trial": 0, "time_elapsed": 126568, "serialpos": 3, "key_press": -1, "wordID": 441, "type": "PRES_AUD", "trial_index": 24}, "uniqueid": "MTK2066:30LB5CDZNDH1IPR2DSCW2UNROBDZ0F", "dateTime": 1516668979847}, {"current_trial": 25, "trialdata": {"rt": -1000, "trial_type": "single-audio", "word": "razor", "stimulus": "/static/audio/wordpool/RAZOR.wav", "conditions": [18, 1200, "a", 18000], "internal_node_id": "0.0-16.0", "trial": 0, "time_elapsed": 128951, "serialpos": 4, "key_press": -1, "wordID": 1170, "type": "PRES_AUD", "trial_index": 25}, "uniqueid": "MTK2066:30LB5CDZNDH1IPR2DSCW2UNROBDZ0F", "dateTime": 1516668982229}, {"current_trial": 26, "trialdata": {"rt": -1000, "trial_type": "single-audio", "word": "grape", "stimulus": "/static/audio/wordpool/GRAPE.wav", "conditions": [18, 1200, "a", 18000], "internal_node_id": "0.0-17.0", "trial": 0, "time_elapsed": 131285, "serialpos": 5, "key_press": -1, "wordID": 653, "type": "PRES_AUD", "trial_index": 26}, "uniqueid": "MTK2066:30LB5CDZNDH1IPR2DSCW2UNROBDZ0F", "dateTime": 1516668984563}, {"current_trial": 27, "trialdata": {"rt": -1000, "trial_type": "single-audio", "word": "pimple", "stimulus": "/static/audio/wordpool/PIMPLE.wav", "conditions": [18, 1200, "a", 18000], "internal_node_id": "0.0-18.0", "trial": 0, "time_elapsed": 133482, "serialpos": 6, "key_press": -1, "wordID": 1070, "type": "PRES_AUD", "trial_index": 27}, "uniqueid": "MTK2066:30LB5CDZNDH1IPR2DSCW2UNROBDZ0F", "dateTime": 1516668986760}, {"current_trial": 28, "trialdata": {"rt": -1000, "trial_type": "single-audio", "word": "trout", "stimulus": "/static/audio/wordpool/TROUT.wav", "conditions": [18, 1200, "a", 18000], "internal_node_id": "0.0-19.0", "trial": 0, "time_elapsed": 135502, "serialpos": 7, "key_press": -1, "wordID": 1510, "type": "PRES_AUD", "trial_index": 28}, "uniqueid": "MTK2066:30LB5CDZNDH1IPR2DSCW2UNROBDZ0F", "dateTime": 1516668988780}, {"current_trial": 29, "trialdata": {"rt": -1000, "trial_type": "single-audio", "word": "ox", "stimulus": "/static/audio/wordpool/OX.wav", "conditions": [18, 1200, "a", 18000], "internal_node_id": "0.0-20.0", "trial": 0, "time_elapsed": 137620, "serialpos": 8, "key_press": -1, "wordID": 993, "type": "PRES_AUD", "trial_index": 29}, "uniqueid": "MTK2066:30LB5CDZNDH1IPR2DSCW2UNROBDZ0F", "dateTime": 1516668990898}, {"current_trial": 30, "trialdata": {"rt": -1000, "trial_type": "single-audio", "word": "world", "stimulus": "/static/audio/wordpool/WORLD.wav", "conditions": [18, 1200, "a", 18000], "internal_node_id": "0.0-21.0", "trial": 0, "time_elapsed": 139928, "serialpos": 9, "key_press": -1, "wordID": 1621, "type": "PRES_AUD", "trial_index": 30}, "uniqueid": "MTK2066:30LB5CDZNDH1IPR2DSCW2UNROBDZ0F", "dateTime": 1516668993206}, {"current_trial": 31, "trialdata": {"rt": -1000, "trial_type": "single-audio", "word": "scribble", "stimulus": "/static/audio/wordpool/SCRIBBLE.wav", "conditions": [18, 1200, "a", 18000], "internal_node_id": "0.0-22.0", "trial": 0, "time_elapsed": 141969, "serialpos": 10, "key_press": -1, "wordID": 1255, "type": "PRES_AUD", "trial_index": 31}, "uniqueid": "MTK2066:30LB5CDZNDH1IPR2DSCW2UNROBDZ0F", "dateTime": 1516668995247}, {"current_trial": 32, "trialdata": {"rt": -1000, "trial_type": "single-audio", "word": "perch", "stimulus": "/static/audio/wordpool/PERCH.wav", "conditions": [18, 1200, "a", 18000], "internal_node_id": "0.0-23.0", "trial": 0, "time_elapsed": 144102, "serialpos": 11, "key_press": -1, "wordID": 1047, "type": "PRES_AUD", "trial_index": 32}, "uniqueid": "MTK2066:30LB5CDZNDH1IPR2DSCW2UNROBDZ0F", "dateTime": 1516668997380}, {"current_trial": 33, "trialdata": {"rt": -1000, "trial_type": "single-audio", "word": "sculpture", "stimulus": "/static/audio/wordpool/SCULPTURE.wav", "conditions": [18, 1200, "a", 18000], "internal_node_id": "0.0-24.0", "trial": 0, "time_elapsed": 146466, "serialpos": 12, "key_press": -1, "wordID": 1257, "type": "PRES_AUD", "trial_index": 33}, "uniqueid": "MTK2066:30LB5CDZNDH1IPR2DSCW2UNROBDZ0F", "dateTime": 1516668999744}, {"current_trial": 34, "trialdata": {"rt": -1000, "trial_type": "single-audio", "word": "basement", "stimulus": "/static/audio/wordpool/BASEMENT.wav", "conditions": [18, 1200, "a", 18000], "internal_node_id": "0.0-25.0", "trial": 0, "time_elapsed": 148700, "serialpos": 13, "key_press": -1, "wordID": 93, "type": "PRES_AUD", "trial_index": 34}, "uniqueid": "MTK2066:30LB5CDZNDH1IPR2DSCW2UNROBDZ0F", "dateTime": 1516669001978}, {"current_trial": 35, "trialdata": {"rt": -1000, "trial_type": "single-audio", "word": "balloon", "stimulus": "/static/audio/wordpool/BALLOON.wav", "conditions": [18, 1200, "a", 18000], "internal_node_id": "0.0-26.0", "trial": 0, "time_elapsed": 150778, "serialpos": 14, "key_press": -1, "wordID": 74, "type": "PRES_AUD", "trial_index": 35}, "uniqueid": "MTK2066:30LB5CDZNDH1IPR2DSCW2UNROBDZ0F", "dateTime": 1516669004056}, {"current_trial": 36, "trialdata": {"rt": -1000, "trial_type": "single-audio", "word": "cigar", "stimulus": "/static/audio/wordpool/CIGAR.wav", "conditions": [18, 1200, "a", 18000], "internal_node_id": "0.0-27.0", "trial": 0, "time_elapsed": 152841, "serialpos": 15, "key_press": -1, "wordID": 307, "type": "PRES_AUD", "trial_index": 36}, "uniqueid": "MTK2066:30LB5CDZNDH1IPR2DSCW2UNROBDZ0F", "dateTime": 1516669006119}, {"current_trial": 37, "trialdata": {"rt": -1000, "trial_type": "single-audio", "word": "tourist", "stimulus": "/static/audio/wordpool/TOURIST.wav", "conditions": [18, 1200, "a", 18000], "internal_node_id": "0.0-28.0", "trial": 0, "time_elapsed": 154957, "serialpos": 16, "key_press": -1, "wordID": 1487, "type": "PRES_AUD", "trial_index": 37}, "uniqueid": "MTK2066:30LB5CDZNDH1IPR2DSCW2UNROBDZ0F", "dateTime": 1516669008235}, {"current_trial": 38, "trialdata": {"rt": -1000, "trial_type": "single-audio", "word": "missile", "stimulus": "/static/audio/wordpool/MISSILE.wav", "conditions": [18, 1200, "a", 18000], "internal_node_id": "0.0-29.0", "trial": 0, "time_elapsed": 157236, "serialpos": 17, "key_press": -1, "wordID": 899, "type": "PRES_AUD", "trial_index": 38}, "uniqueid": "MTK2066:30LB5CDZNDH1IPR2DSCW2UNROBDZ0F", "dateTime": 1516669010514}, {"current_trial": 39, "trialdata": {"rt": -1, "trial_type": "single-stim", "stimulus": "", "internal_node_id": "0.0-30.0-0.0", "time_elapsed": 158453, "key_press": -1, "type": "PRE_RECALL_DELAY", "trial_index": 39}, "uniqueid": "MTK2066:30LB5CDZNDH1IPR2DSCW2UNROBDZ0F", "dateTime": 1516669011731}, {"current_trial": 40, "trialdata": {"rt": -1000, "trial_type": "single-audio", "stimulus": "/static/audio/400Hz.wav", "internal_node_id": "0.0-31.0", "time_elapsed": 158955, "key_press": -1, "type": "PRE_RECALL_ALERT", "trial_index": 40}, "uniqueid": "MTK2066:30LB5CDZNDH1IPR2DSCW2UNROBDZ0F", "dateTime": 1516669012233}], "currenttrial": 41, "condition": 1, "mode": "live"}