{"assignmentId": "3EF8EXOTT22BPZ7GRPDAS5IBBWW1J8", "workerId": "MTK2387", "questiondata": {"avail_screen_height": 860, "color_depth": 24, "screen_width": 1600, "pixel_depth": 24, "avail_screen_width": 1600, "screen_height": 900}, "bonus": 0, "hitId": "3M7OI89LVYVH1N4DX133BD0DAONC6V", "counterbalance": 2015, "useragent": "Mozilla/5.0 (Windows NT 6.1; Win64; x64) AppleWebKit/537.36 (KHTML, like Gecko) Chrome/63.0.3239.132 Safari/537.36", "eventdata": [{"eventtype": "initialized", "interval": 0, "value": null, "timestamp": 1517074340355}, {"eventtype": "window_resize", "interval": 0, "value": [1600, 854], "timestamp": 1517074340355}, {"eventtype": "focus", "interval": 6555, "value": "off", "timestamp": 1517074346910}, {"eventtype": "focus", "interval": 4571, "value": "on", "timestamp": 1517074351481}, {"eventtype": "focus", "interval": 1344, "value": "off", "timestamp": 1517074352825}, {"eventtype": "focus", "interval": 19784, "value": "on", "timestamp": 1517074372609}, {"eventtype": "focus", "interval": 477164, "value": "off", "timestamp": 1517074849773}, {"eventtype": "focus", "interval": 6096, "value": "on", "timestamp": 1517074855869}], "data": [{"current_trial": 0, "trialdata": {"rt": 2812, "trial_type": "text", "internal_node_id": "0.0-0.0", "time_elapsed": 2815, "key_press": 32, "type": "INSTRUCTIONS", "trial_index": 0}, "uniqueid": "MTK2387:3EF8EXOTT22BPZ7GRPDAS5IBBWW1J8", "dateTime": 1517074351804}, {"current_trial": 1, "trialdata": {"rt": 24669, "trial_type": "text", "internal_node_id": "0.0-1.0", "time_elapsed": 27487, "key_press": 32, "type": "INSTRUCTIONS", "trial_index": 1}, "uniqueid": "MTK2387:3EF8EXOTT22BPZ7GRPDAS5IBBWW1J8", "dateTime": 1517074376477}, {"current_trial": 2, "trialdata": {"rt": [6516], "trial_type": "audio-test", "responses": ["ocean"], "internal_node_id": "0.0-2.0", "time_elapsed": 34032, "type": "AUDIO_TEST", "trial_index": 2}, "uniqueid": "MTK2387:3EF8EXOTT22BPZ7GRPDAS5IBBWW1J8", "dateTime": 1517074383021}, {"current_trial": 3, "trialdata": {"rt": [8310], "trial_type": "audio-test", "responses": ["crystal"], "internal_node_id": "0.0-3.0", "time_elapsed": 42351, "type": "AUDIO_TEST", "trial_index": 3}, "uniqueid": "MTK2387:3EF8EXOTT22BPZ7GRPDAS5IBBWW1J8", "dateTime": 1517074391340}, {"current_trial": 4, "trialdata": {"rt": [5577], "trial_type": "audio-test", "responses": ["spice"], "internal_node_id": "0.0-4.0", "time_elapsed": 47936, "type": "AUDIO_TEST", "trial_index": 4}, "uniqueid": "MTK2387:3EF8EXOTT22BPZ7GRPDAS5IBBWW1J8", "dateTime": 1517074396925}, {"current_trial": 5, "trialdata": {"rt": 16115, "trial_type": "survey-text", "responses": "{\"Q0\":\"11\",\"Q1\":\"630\",\"Q2\":\"5\"}", "internal_node_id": "0.0-5.0", "time_elapsed": 64807, "type": "SLEEP_SURVEY", "trial_index": 5}, "uniqueid": "MTK2387:3EF8EXOTT22BPZ7GRPDAS5IBBWW1J8", "dateTime": 1517074413796}, {"current_trial": 6, "trialdata": {"rt": 31897, "trial_type": "text", "internal_node_id": "0.0-6.0", "time_elapsed": 97706, "key_press": 32, "type": "INSTRUCTIONS", "trial_index": 6}, "uniqueid": "MTK2387:3EF8EXOTT22BPZ7GRPDAS5IBBWW1J8", "dateTime": 1517074446695}, {"current_trial": 7, "trialdata": {"rt": 11918, "trial_type": "text", "internal_node_id": "0.0-7.0", "time_elapsed": 110128, "key_press": 32, "type": "INSTRUCTIONS", "trial_index": 7}, "uniqueid": "MTK2387:3EF8EXOTT22BPZ7GRPDAS5IBBWW1J8", "dateTime": 1517074459117}, {"current_trial": 8, "trialdata": {"rt": 2857, "trial_type": "text", "internal_node_id": "0.0-8.0", "time_elapsed": 113487, "key_press": 32, "type": "INSTRUCTIONS", "trial_index": 8}, "uniqueid": "MTK2387:3EF8EXOTT22BPZ7GRPDAS5IBBWW1J8", "dateTime": 1517074462476}, {"current_trial": 9, "trialdata": {"rt": [2554, 5210, 6962, 11026, 13122, 15402], "trial_type": "math-distractor", "key_times": [2099, 2554, 4906, 5082, 5210, 6579, 6730, 6962, 10306, 10610, 11026, 12698, 12898, 13122, 15074, 15242, 15402], "responses": ["6", "10", "13", "14", "17", "11"], "num2": [1, 8, 7, 8, 9, 1, 3], "num3": [3, 8, 1, 5, 2, 2, 3], "conditions": [18, 1200, "a", 18000], "internal_node_id": "0.0-9.0", "key_presses": [102, 13, 97, 96, 13, 97, 99, 13, 97, 100, 13, 97, 103, 13, 97, 97, 13], "trial": 0, "time_elapsed": 132559, "type": "DISTRACTOR", "trial_index": 9, "num1": [2, 1, 5, 1, 6, 8, 5]}, "uniqueid": "MTK2387:3EF8EXOTT22BPZ7GRPDAS5IBBWW1J8", "dateTime": 1517074481548}, {"current_trial": 10, "trialdata": {"rt": -1, "trial_type": "single-stim", "stimulus": "<p id=\"stim\">10</p>", "internal_node_id": "0.0-10.0-0.0", "time_elapsed": 135564, "key_press": -1, "trial_index": 10}, "uniqueid": "MTK2387:3EF8EXOTT22BPZ7GRPDAS5IBBWW1J8", "dateTime": 1517074484553}, {"current_trial": 11, "trialdata": {"rt": -1, "trial_type": "single-stim", "stimulus": "<p id=\"stim\">9</p>", "internal_node_id": "0.0-10.0-1.0", "time_elapsed": 136567, "key_press": -1, "trial_index": 11}, "uniqueid": "MTK2387:3EF8EXOTT22BPZ7GRPDAS5IBBWW1J8", "dateTime": 1517074485556}, {"current_trial": 12, "trialdata": {"rt": -1, "trial_type": "single-stim", "stimulus": "<p id=\"stim\">8</p>", "internal_node_id": "0.0-10.0-2.0", "time_elapsed": 137569, "key_press": -1, "trial_index": 12}, "uniqueid": "MTK2387:3EF8EXOTT22BPZ7GRPDAS5IBBWW1J8", "dateTime": 1517074486558}, {"current_trial": 13, "trialdata": {"rt": -1, "trial_type": "single-stim", "stimulus": "<p id=\"stim\">7</p>", "internal_node_id": "0.0-10.0-3.0", "time_elapsed": 138571, "key_press": -1, "trial_index": 13}, "uniqueid": "MTK2387:3EF8EXOTT22BPZ7GRPDAS5IBBWW1J8", "dateTime": 1517074487561}, {"current_trial": 14, "trialdata": {"rt": -1, "trial_type": "single-stim", "stimulus": "<p id=\"stim\">6</p>", "internal_node_id": "0.0-10.0-4.0", "time_elapsed": 139572, "key_press": -1, "trial_index": 14}, "uniqueid": "MTK2387:3EF8EXOTT22BPZ7GRPDAS5IBBWW1J8", "dateTime": 1517074488561}, {"current_trial": 15, "trialdata": {"rt": -1, "trial_type": "single-stim", "stimulus": "<p id=\"stim\">5</p>", "internal_node_id": "0.0-10.0-5.0", "time_elapsed": 140573, "key_press": -1, "trial_index": 15}, "uniqueid": "MTK2387:3EF8EXOTT22BPZ7GRPDAS5IBBWW1J8", "dateTime": 1517074489562}, {"current_trial": 16, "trialdata": {"rt": -1, "trial_type": "single-stim", "stimulus": "<p id=\"stim\">4</p>", "internal_node_id": "0.0-10.0-6.0", "time_elapsed": 141575, "key_press": -1, "trial_index": 16}, "uniqueid": "MTK2387:3EF8EXOTT22BPZ7GRPDAS5IBBWW1J8", "dateTime": 1517074490565}, {"current_trial": 17, "trialdata": {"rt": -1, "trial_type": "single-stim", "stimulus": "<p id=\"stim\">3</p>", "internal_node_id": "0.0-10.0-7.0", "time_elapsed": 142577, "key_press": -1, "trial_index": 17}, "uniqueid": "MTK2387:3EF8EXOTT22BPZ7GRPDAS5IBBWW1J8", "dateTime": 1517074491567}, {"current_trial": 18, "trialdata": {"rt": -1, "trial_type": "single-stim", "stimulus": "<p id=\"stim\">2</p>", "internal_node_id": "0.0-10.0-8.0", "time_elapsed": 143583, "key_press": -1, "trial_index": 18}, "uniqueid": "MTK2387:3EF8EXOTT22BPZ7GRPDAS5IBBWW1J8", "dateTime": 1517074492572}, {"current_trial": 19, "trialdata": {"rt": -1, "trial_type": "single-stim", "stimulus": "<p id=\"stim\">1</p>", "internal_node_id": "0.0-10.0-9.0", "time_elapsed": 144585, "key_press": -1, "trial_index": 19}, "uniqueid": "MTK2387:3EF8EXOTT22BPZ7GRPDAS5IBBWW1J8", "dateTime": 1517074493574}, {"current_trial": 20, "trialdata": {"rt": -1, "trial_type": "single-stim", "stimulus": "<p id=\"stim\">+</p>", "internal_node_id": "0.0-11.0-0.0", "time_elapsed": 146087, "key_press": -1, "type": "FIXATION", "trial_index": 20}, "uniqueid": "MTK2387:3EF8EXOTT22BPZ7GRPDAS5IBBWW1J8", "dateTime": 1517074495076}, {"current_trial": 21, "trialdata": {"rt": -1000, "trial_type": "single-audio", "word": "child", "stimulus": "/static/audio/wordpool/CHILD.wav", "conditions": [18, 1200, "a", 18000], "internal_node_id": "0.0-12.0", "trial": 0, "time_elapsed": 148303, "serialpos": 0, "key_press": -1, "wordID": 298, "type": "PRES_AUD", "trial_index": 21}, "uniqueid": "MTK2387:3EF8EXOTT22BPZ7GRPDAS5IBBWW1J8", "dateTime": 1517074497292}, {"current_trial": 22, "trialdata": {"rt": -1000, "trial_type": "single-audio", "word": "tuba", "stimulus": "/static/audio/wordpool/TUBA.wav", "conditions": [18, 1200, "a", 18000], "internal_node_id": "0.0-13.0", "trial": 0, "time_elapsed": 150668, "serialpos": 1, "key_press": -1, "wordID": 1514, "type": "PRES_AUD", "trial_index": 22}, "uniqueid": "MTK2387:3EF8EXOTT22BPZ7GRPDAS5IBBWW1J8", "dateTime": 1517074499657}, {"current_trial": 23, "trialdata": {"rt": -1000, "trial_type": "single-audio", "word": "proton", "stimulus": "/static/audio/wordpool/PROTON.wav", "conditions": [18, 1200, "a", 18000], "internal_node_id": "0.0-14.0", "trial": 0, "time_elapsed": 153057, "serialpos": 2, "key_press": -1, "wordID": 1131, "type": "PRES_AUD", "trial_index": 23}, "uniqueid": "MTK2387:3EF8EXOTT22BPZ7GRPDAS5IBBWW1J8", "dateTime": 1517074502046}, {"current_trial": 24, "trialdata": {"rt": -1000, "trial_type": "single-audio", "word": "ox", "stimulus": "/static/audio/wordpool/OX.wav", "conditions": [18, 1200, "a", 18000], "internal_node_id": "0.0-15.0", "trial": 0, "time_elapsed": 155164, "serialpos": 3, "key_press": -1, "wordID": 993, "type": "PRES_AUD", "trial_index": 24}, "uniqueid": "MTK2387:3EF8EXOTT22BPZ7GRPDAS5IBBWW1J8", "dateTime": 1517074504153}, {"current_trial": 25, "trialdata": {"rt": -1000, "trial_type": "single-audio", "word": "breast", "stimulus": "/static/audio/wordpool/BREAST.wav", "conditions": [18, 1200, "a", 18000], "internal_node_id": "0.0-16.0", "trial": 0, "time_elapsed": 157197, "serialpos": 4, "key_press": -1, "wordID": 170, "type": "PRES_AUD", "trial_index": 25}, "uniqueid": "MTK2387:3EF8EXOTT22BPZ7GRPDAS5IBBWW1J8", "dateTime": 1517074506186}, {"current_trial": 26, "trialdata": {"rt": -1000, "trial_type": "single-audio", "word": "marsh", "stimulus": "/static/audio/wordpool/MARSH.wav", "conditions": [18, 1200, "a", 18000], "internal_node_id": "0.0-17.0", "trial": 0, "time_elapsed": 159206, "serialpos": 5, "key_press": -1, "wordID": 873, "type": "PRES_AUD", "trial_index": 26}, "uniqueid": "MTK2387:3EF8EXOTT22BPZ7GRPDAS5IBBWW1J8", "dateTime": 1517074508196}, {"current_trial": 27, "trialdata": {"rt": -1000, "trial_type": "single-audio", "word": "couch", "stimulus": "/static/audio/wordpool/COUCH.wav", "conditions": [18, 1200, "a", 18000], "internal_node_id": "0.0-18.0", "trial": 0, "time_elapsed": 161259, "serialpos": 6, "key_press": -1, "wordID": 385, "type": "PRES_AUD", "trial_index": 27}, "uniqueid": "MTK2387:3EF8EXOTT22BPZ7GRPDAS5IBBWW1J8", "dateTime": 1517074510249}, {"current_trial": 28, "trialdata": {"rt": -1000, "trial_type": "single-audio", "word": "cabbage", "stimulus": "/static/audio/wordpool/CABBAGE.wav", "conditions": [18, 1200, "a", 18000], "internal_node_id": "0.0-19.0", "trial": 0, "time_elapsed": 163268, "serialpos": 7, "key_press": -1, "wordID": 209, "type": "PRES_AUD", "trial_index": 28}, "uniqueid": "MTK2387:3EF8EXOTT22BPZ7GRPDAS5IBBWW1J8", "dateTime": 1517074512258}, {"current_trial": 29, "trialdata": {"rt": -1000, "trial_type": "single-audio", "word": "seagull", "stimulus": "/static/audio/wordpool/SEAGULL.wav", "conditions": [18, 1200, "a", 18000], "internal_node_id": "0.0-20.0", "trial": 0, "time_elapsed": 165507, "serialpos": 8, "key_press": -1, "wordID": 1260, "type": "PRES_AUD", "trial_index": 29}, "uniqueid": "MTK2387:3EF8EXOTT22BPZ7GRPDAS5IBBWW1J8", "dateTime": 1517074514496}, {"current_trial": 30, "trialdata": {"rt": -1000, "trial_type": "single-audio", "word": "salad", "stimulus": "/static/audio/wordpool/SALAD.wav", "conditions": [18, 1200, "a", 18000], "internal_node_id": "0.0-21.0", "trial": 0, "time_elapsed": 167756, "serialpos": 9, "key_press": -1, "wordID": 1223, "type": "PRES_AUD", "trial_index": 30}, "uniqueid": "MTK2387:3EF8EXOTT22BPZ7GRPDAS5IBBWW1J8", "dateTime": 1517074516745}, {"current_trial": 31, "trialdata": {"rt": -1000, "trial_type": "single-audio", "word": "tunnel", "stimulus": "/static/audio/wordpool/TUNNEL.wav", "conditions": [18, 1200, "a", 18000], "internal_node_id": "0.0-22.0", "trial": 0, "time_elapsed": 170069, "serialpos": 10, "key_press": -1, "wordID": 1518, "type": "PRES_AUD", "trial_index": 31}, "uniqueid": "MTK2387:3EF8EXOTT22BPZ7GRPDAS5IBBWW1J8", "dateTime": 1517074519058}, {"current_trial": 32, "trialdata": {"rt": -1000, "trial_type": "single-audio", "word": "ghetto", "stimulus": "/static/audio/wordpool/GHETTO.wav", "conditions": [18, 1200, "a", 18000], "internal_node_id": "0.0-23.0", "trial": 0, "time_elapsed": 172272, "serialpos": 11, "key_press": -1, "wordID": 632, "type": "PRES_AUD", "trial_index": 32}, "uniqueid": "MTK2387:3EF8EXOTT22BPZ7GRPDAS5IBBWW1J8", "dateTime": 1517074521261}, {"current_trial": 33, "trialdata": {"rt": -1000, "trial_type": "single-audio", "word": "sunrise", "stimulus": "/static/audio/wordpool/SUNRISE.wav", "conditions": [18, 1200, "a", 18000], "internal_node_id": "0.0-24.0", "trial": 0, "time_elapsed": 174562, "serialpos": 12, "key_press": -1, "wordID": 1406, "type": "PRES_AUD", "trial_index": 33}, "uniqueid": "MTK2387:3EF8EXOTT22BPZ7GRPDAS5IBBWW1J8", "dateTime": 1517074523551}, {"current_trial": 34, "trialdata": {"rt": -1000, "trial_type": "single-audio", "word": "dashboard", "stimulus": "/static/audio/wordpool/DASHBOARD.wav", "conditions": [18, 1200, "a", 18000], "internal_node_id": "0.0-25.0", "trial": 0, "time_elapsed": 176711, "serialpos": 13, "key_press": -1, "wordID": 440, "type": "PRES_AUD", "trial_index": 34}, "uniqueid": "MTK2387:3EF8EXOTT22BPZ7GRPDAS5IBBWW1J8", "dateTime": 1517074525700}, {"current_trial": 35, "trialdata": {"rt": -1000, "trial_type": "single-audio", "word": "tortoise", "stimulus": "/static/audio/wordpool/TORTOISE.wav", "conditions": [18, 1200, "a", 18000], "internal_node_id": "0.0-26.0", "trial": 0, "time_elapsed": 179013, "serialpos": 14, "key_press": -1, "wordID": 1485, "type": "PRES_AUD", "trial_index": 35}, "uniqueid": "MTK2387:3EF8EXOTT22BPZ7GRPDAS5IBBWW1J8", "dateTime": 1517074528003}, {"current_trial": 36, "trialdata": {"rt": -1000, "trial_type": "single-audio", "word": "seal", "stimulus": "/static/audio/wordpool/SEAL.wav", "conditions": [18, 1200, "a", 18000], "internal_node_id": "0.0-27.0", "trial": 0, "time_elapsed": 181251, "serialpos": 15, "key_press": -1, "wordID": 1261, "type": "PRES_AUD", "trial_index": 36}, "uniqueid": "MTK2387:3EF8EXOTT22BPZ7GRPDAS5IBBWW1J8", "dateTime": 1517074530241}, {"current_trial": 37, "trialdata": {"rt": -1000, "trial_type": "single-audio", "word": "poison", "stimulus": "/static/audio/wordpool/POISON.wav", "conditions": [18, 1200, "a", 18000], "internal_node_id": "0.0-28.0", "trial": 0, "time_elapsed": 183354, "serialpos": 16, "key_press": -1, "wordID": 1095, "type": "PRES_AUD", "trial_index": 37}, "uniqueid": "MTK2387:3EF8EXOTT22BPZ7GRPDAS5IBBWW1J8", "dateTime": 1517074532343}, {"current_trial": 38, "trialdata": {"rt": -1000, "trial_type": "single-audio", "word": "peach", "stimulus": "/static/audio/wordpool/PEACH.wav", "conditions": [18, 1200, "a", 18000], "internal_node_id": "0.0-29.0", "trial": 0, "time_elapsed": 185527, "serialpos": 17, "key_press": -1, "wordID": 1030, "type": "PRES_AUD", "trial_index": 38}, "uniqueid": "MTK2387:3EF8EXOTT22BPZ7GRPDAS5IBBWW1J8", "dateTime": 1517074534517}, {"current_trial": 39, "trialdata": {"rt": -1, "trial_type": "single-stim", "stimulus": "", "internal_node_id": "0.0-30.0-0.0", "time_elapsed": 186867, "key_press": -1, "type": "PRE_RECALL_DELAY", "trial_index": 39}, "uniqueid": "MTK2387:3EF8EXOTT22BPZ7GRPDAS5IBBWW1J8", "dateTime": 1517074535856}, {"current_trial": 40, "trialdata": {"rt": -1000, "trial_type": "single-audio", "stimulus": "/static/audio/400Hz.wav", "internal_node_id": "0.0-31.0", "time_elapsed": 187368, "key_press": -1, "type": "PRE_RECALL_ALERT", "trial_index": 40}, "uniqueid": "MTK2387:3EF8EXOTT22BPZ7GRPDAS5IBBWW1J8", "dateTime": 1517074536358}, {"current_trial": 41, "trialdata": {"rt": [5243, 6555, 9610, 13331, 19693, 27602, 28897, 30721, 44242, 58779], "recwords": ["poison", "peach", "satchel", "dashboard", "tortoise", "proton", "child", "breast", "tuba", ""], "key_times": [3340, 3539, 4107, 4475, 4675, 4771, 4891, 5059, 5243, 5770, 5899, 6067, 6226, 6379, 6555, 8034, 8195, 8370, 8595, 8954, 9362, 9458, 9610, 10714, 10882, 10946, 11163, 11562, 11698, 11810, 11941, 12174, 13331, 17924, 18034, 18131, 18571, 18882, 19106, 19345, 19611, 19693, 26641, 26801, 26889, 27041, 27209, 27441, 27602, 28058, 28177, 28337, 28577, 28753, 28897, 29201, 29401, 29577, 29778, 29945, 30298, 30345, 30569, 30721, 43556, 43818, 43954, 44170, 44242, 58779], "trial_type": "free-recall", "conditions": [18, 1200, "a", 18000], "internal_node_id": "0.0-32.0-0.0", "key_presses": [80, 79, 83, 8, 73, 83, 79, 78, 13, 80, 69, 65, 67, 72, 13, 83, 65, 84, 67, 72, 69, 76, 13, 68, 65, 83, 72, 66, 79, 65, 82, 68, 13, 84, 79, 82, 84, 79, 73, 83, 69, 13, 80, 82, 79, 84, 79, 78, 13, 67, 72, 73, 76, 68, 13, 66, 82, 69, 65, 68, 8, 83, 84, 13, 84, 85, 66, 65, 13, 13], "trial": 0, "time_elapsed": 247372, "type": "FREE_RECALL", "trial_index": 41}, "uniqueid": "MTK2387:3EF8EXOTT22BPZ7GRPDAS5IBBWW1J8", "dateTime": 1517074596368}, {"current_trial": 42, "trialdata": {"rt": 1754, "trial_type": "text", "internal_node_id": "0.0-33.0", "time_elapsed": 251134, "key_press": 13, "type": "INSTRUCTIONS", "trial_index": 42}, "uniqueid": "MTK2387:3EF8EXOTT22BPZ7GRPDAS5IBBWW1J8", "dateTime": 1517074600123}, {"current_trial": 43, "trialdata": {"rt": [4908, 6900, 9388, 11652, 13229, 14693], "trial_type": "math-distractor", "key_times": [4438, 4604, 4908, 6428, 6572, 6900, 9020, 9212, 9388, 11419, 11652, 12804, 13021, 13229, 14341, 14526, 14693, 17901], "responses": ["15", "13", "20", "8", "16", "14"], "num2": [4, 4, 5, 1, 7, 4, 3], "num3": [2, 8, 6, 6, 1, 4, 6], "conditions": [18, 1200, "a", 18000], "internal_node_id": "0.0-34.0", "key_presses": [97, 101, 13, 97, 99, 13, 98, 96, 13, 104, 13, 97, 102, 13, 97, 100, 13, 97], "trial": 1, "time_elapsed": 271141, "type": "DISTRACTOR", "trial_index": 43, "num1": [9, 1, 9, 1, 8, 6, 9]}, "uniqueid": "MTK2387:3EF8EXOTT22BPZ7GRPDAS5IBBWW1J8", "dateTime": 1517074620130}, {"current_trial": 44, "trialdata": {"rt": -1, "trial_type": "single-stim", "stimulus": "<p id=\"stim\">10</p>", "internal_node_id": "0.0-35.0-0.0", "time_elapsed": 274142, "key_press": -1, "trial_index": 44}, "uniqueid": "MTK2387:3EF8EXOTT22BPZ7GRPDAS5IBBWW1J8", "dateTime": 1517074623131}, {"current_trial": 45, "trialdata": {"rt": -1, "trial_type": "single-stim", "stimulus": "<p id=\"stim\">9</p>", "internal_node_id": "0.0-35.0-1.0", "time_elapsed": 275144, "key_press": -1, "trial_index": 45}, "uniqueid": "MTK2387:3EF8EXOTT22BPZ7GRPDAS5IBBWW1J8", "dateTime": 1517074624133}, {"current_trial": 46, "trialdata": {"rt": -1, "trial_type": "single-stim", "stimulus": "<p id=\"stim\">8</p>", "internal_node_id": "0.0-35.0-2.0", "time_elapsed": 276146, "key_press": -1, "trial_index": 46}, "uniqueid": "MTK2387:3EF8EXOTT22BPZ7GRPDAS5IBBWW1J8", "dateTime": 1517074625135}, {"current_trial": 47, "trialdata": {"rt": -1, "trial_type": "single-stim", "stimulus": "<p id=\"stim\">7</p>", "internal_node_id": "0.0-35.0-3.0", "time_elapsed": 277148, "key_press": -1, "trial_index": 47}, "uniqueid": "MTK2387:3EF8EXOTT22BPZ7GRPDAS5IBBWW1J8", "dateTime": 1517074626137}, {"current_trial": 48, "trialdata": {"rt": -1, "trial_type": "single-stim", "stimulus": "<p id=\"stim\">6</p>", "internal_node_id": "0.0-35.0-4.0", "time_elapsed": 278149, "key_press": -1, "trial_index": 48}, "uniqueid": "MTK2387:3EF8EXOTT22BPZ7GRPDAS5IBBWW1J8", "dateTime": 1517074627138}, {"current_trial": 49, "trialdata": {"rt": -1, "trial_type": "single-stim", "stimulus": "<p id=\"stim\">5</p>", "internal_node_id": "0.0-35.0-5.0", "time_elapsed": 279151, "key_press": -1, "trial_index": 49}, "uniqueid": "MTK2387:3EF8EXOTT22BPZ7GRPDAS5IBBWW1J8", "dateTime": 1517074628140}, {"current_trial": 50, "trialdata": {"rt": -1, "trial_type": "single-stim", "stimulus": "<p id=\"stim\">4</p>", "internal_node_id": "0.0-35.0-6.0", "time_elapsed": 280153, "key_press": -1, "trial_index": 50}, "uniqueid": "MTK2387:3EF8EXOTT22BPZ7GRPDAS5IBBWW1J8", "dateTime": 1517074629143}, {"current_trial": 51, "trialdata": {"rt": -1, "trial_type": "single-stim", "stimulus": "<p id=\"stim\">3</p>", "internal_node_id": "0.0-35.0-7.0", "time_elapsed": 281155, "key_press": -1, "trial_index": 51}, "uniqueid": "MTK2387:3EF8EXOTT22BPZ7GRPDAS5IBBWW1J8", "dateTime": 1517074630144}, {"current_trial": 52, "trialdata": {"rt": -1, "trial_type": "single-stim", "stimulus": "<p id=\"stim\">2</p>", "internal_node_id": "0.0-35.0-8.0", "time_elapsed": 282156, "key_press": -1, "trial_index": 52}, "uniqueid": "MTK2387:3EF8EXOTT22BPZ7GRPDAS5IBBWW1J8", "dateTime": 1517074631146}, {"current_trial": 53, "trialdata": {"rt": -1, "trial_type": "single-stim", "stimulus": "<p id=\"stim\">1</p>", "internal_node_id": "0.0-35.0-9.0", "time_elapsed": 283159, "key_press": -1, "trial_index": 53}, "uniqueid": "MTK2387:3EF8EXOTT22BPZ7GRPDAS5IBBWW1J8", "dateTime": 1517074632148}, {"current_trial": 54, "trialdata": {"rt": -1, "trial_type": "single-stim", "stimulus": "<p id=\"stim\">+</p>", "internal_node_id": "0.0-36.0-0.0", "time_elapsed": 284660, "key_press": -1, "type": "FIXATION", "trial_index": 54}, "uniqueid": "MTK2387:3EF8EXOTT22BPZ7GRPDAS5IBBWW1J8", "dateTime": 1517074633649}, {"current_trial": 55, "trialdata": {"rt": -1000, "trial_type": "single-audio", "word": "lodge", "stimulus": "/static/audio/wordpool/LODGE.wav", "conditions": [18, 1200, "a", 18000], "internal_node_id": "0.0-37.0", "trial": 1, "time_elapsed": 287045, "serialpos": 0, "key_press": -1, "wordID": 838, "type": "PRES_AUD", "trial_index": 55}, "uniqueid": "MTK2387:3EF8EXOTT22BPZ7GRPDAS5IBBWW1J8", "dateTime": 1517074636034}, {"current_trial": 56, "trialdata": {"rt": -1000, "trial_type": "single-audio", "word": "radish", "stimulus": "/static/audio/wordpool/RADISH.wav", "conditions": [18, 1200, "a", 18000], "internal_node_id": "0.0-38.0", "trial": 1, "time_elapsed": 289054, "serialpos": 1, "key_press": -1, "wordID": 1157, "type": "PRES_AUD", "trial_index": 56}, "uniqueid": "MTK2387:3EF8EXOTT22BPZ7GRPDAS5IBBWW1J8", "dateTime": 1517074638043}, {"current_trial": 57, "trialdata": {"rt": -1000, "trial_type": "single-audio", "word": "ozone", "stimulus": "/static/audio/wordpool/OZONE.wav", "conditions": [18, 1200, "a", 18000], "internal_node_id": "0.0-39.0", "trial": 1, "time_elapsed": 291164, "serialpos": 2, "key_press": -1, "wordID": 995, "type": "PRES_AUD", "trial_index": 57}, "uniqueid": "MTK2387:3EF8EXOTT22BPZ7GRPDAS5IBBWW1J8", "dateTime": 1517074640153}, {"current_trial": 58, "trialdata": {"rt": -1000, "trial_type": "single-audio", "word": "hook", "stimulus": "/static/audio/wordpool/HOOK.wav", "conditions": [18, 1200, "a", 18000], "internal_node_id": "0.0-40.0", "trial": 1, "time_elapsed": 293368, "serialpos": 3, "key_press": -1, "wordID": 714, "type": "PRES_AUD", "trial_index": 58}, "uniqueid": "MTK2387:3EF8EXOTT22BPZ7GRPDAS5IBBWW1J8", "dateTime": 1517074642357}, {"current_trial": 59, "trialdata": {"rt": -1000, "trial_type": "single-audio", "word": "hound", "stimulus": "/static/audio/wordpool/HOUND.wav", "conditions": [18, 1200, "a", 18000], "internal_node_id": "0.0-41.0", "trial": 1, "time_elapsed": 295598, "serialpos": 4, "key_press": -1, "wordID": 723, "type": "PRES_AUD", "trial_index": 59}, "uniqueid": "MTK2387:3EF8EXOTT22BPZ7GRPDAS5IBBWW1J8", "dateTime": 1517074644588}, {"current_trial": 60, "trialdata": {"rt": -1000, "trial_type": "single-audio", "word": "sticker", "stimulus": "/static/audio/wordpool/STICKER.wav", "conditions": [18, 1200, "a", 18000], "internal_node_id": "0.0-42.0", "trial": 1, "time_elapsed": 297662, "serialpos": 5, "key_press": -1, "wordID": 1381, "type": "PRES_AUD", "trial_index": 60}, "uniqueid": "MTK2387:3EF8EXOTT22BPZ7GRPDAS5IBBWW1J8", "dateTime": 1517074646651}, {"current_trial": 61, "trialdata": {"rt": -1000, "trial_type": "single-audio", "word": "transplant", "stimulus": "/static/audio/wordpool/TRANSPLANT.wav", "conditions": [18, 1200, "a", 18000], "internal_node_id": "0.0-43.0", "trial": 1, "time_elapsed": 299762, "serialpos": 6, "key_press": -1, "wordID": 1495, "type": "PRES_AUD", "trial_index": 61}, "uniqueid": "MTK2387:3EF8EXOTT22BPZ7GRPDAS5IBBWW1J8", "dateTime": 1517074648752}, {"current_trial": 62, "trialdata": {"rt": -1000, "trial_type": "single-audio", "word": "stream", "stimulus": "/static/audio/wordpool/STREAM.wav", "conditions": [18, 1200, "a", 18000], "internal_node_id": "0.0-44.0", "trial": 1, "time_elapsed": 301912, "serialpos": 7, "key_press": -1, "wordID": 1391, "type": "PRES_AUD", "trial_index": 62}, "uniqueid": "MTK2387:3EF8EXOTT22BPZ7GRPDAS5IBBWW1J8", "dateTime": 1517074650901}, {"current_trial": 63, "trialdata": {"rt": -1000, "trial_type": "single-audio", "word": "truck", "stimulus": "/static/audio/wordpool/TRUCK.wav", "conditions": [18, 1200, "a", 18000], "internal_node_id": "0.0-45.0", "trial": 1, "time_elapsed": 304186, "serialpos": 8, "key_press": -1, "wordID": 1511, "type": "PRES_AUD", "trial_index": 63}, "uniqueid": "MTK2387:3EF8EXOTT22BPZ7GRPDAS5IBBWW1J8", "dateTime": 1517074653175}, {"current_trial": 64, "trialdata": {"rt": -1000, "trial_type": "single-audio", "word": "paper", "stimulus": "/static/audio/wordpool/PAPER.wav", "conditions": [18, 1200, "a", 18000], "internal_node_id": "0.0-46.0", "trial": 1, "time_elapsed": 306248, "serialpos": 9, "key_press": -1, "wordID": 1010, "type": "PRES_AUD", "trial_index": 64}, "uniqueid": "MTK2387:3EF8EXOTT22BPZ7GRPDAS5IBBWW1J8", "dateTime": 1517074655238}, {"current_trial": 65, "trialdata": {"rt": -1000, "trial_type": "single-audio", "word": "cottage", "stimulus": "/static/audio/wordpool/COTTAGE.wav", "conditions": [18, 1200, "a", 18000], "internal_node_id": "0.0-47.0", "trial": 1, "time_elapsed": 308348, "serialpos": 10, "key_press": -1, "wordID": 383, "type": "PRES_AUD", "trial_index": 65}, "uniqueid": "MTK2387:3EF8EXOTT22BPZ7GRPDAS5IBBWW1J8", "dateTime": 1517074657337}, {"current_trial": 66, "trialdata": {"rt": -1000, "trial_type": "single-audio", "word": "seafood", "stimulus": "/static/audio/wordpool/SEAFOOD.wav", "conditions": [18, 1200, "a", 18000], "internal_node_id": "0.0-48.0", "trial": 1, "time_elapsed": 310360, "serialpos": 11, "key_press": -1, "wordID": 1259, "type": "PRES_AUD", "trial_index": 66}, "uniqueid": "MTK2387:3EF8EXOTT22BPZ7GRPDAS5IBBWW1J8", "dateTime": 1517074659350}, {"current_trial": 67, "trialdata": {"rt": -1000, "trial_type": "single-audio", "word": "army", "stimulus": "/static/audio/wordpool/ARMY.wav", "conditions": [18, 1200, "a", 18000], "internal_node_id": "0.0-49.0", "trial": 1, "time_elapsed": 312449, "serialpos": 12, "key_press": -1, "wordID": 38, "type": "PRES_AUD", "trial_index": 67}, "uniqueid": "MTK2387:3EF8EXOTT22BPZ7GRPDAS5IBBWW1J8", "dateTime": 1517074661438}, {"current_trial": 68, "trialdata": {"rt": -1000, "trial_type": "single-audio", "word": "belly", "stimulus": "/static/audio/wordpool/BELLY.wav", "conditions": [18, 1200, "a", 18000], "internal_node_id": "0.0-50.0", "trial": 1, "time_elapsed": 314813, "serialpos": 13, "key_press": -1, "wordID": 118, "type": "PRES_AUD", "trial_index": 68}, "uniqueid": "MTK2387:3EF8EXOTT22BPZ7GRPDAS5IBBWW1J8", "dateTime": 1517074663806}, {"current_trial": 69, "trialdata": {"rt": -1000, "trial_type": "single-audio", "word": "widow", "stimulus": "/static/audio/wordpool/WIDOW.wav", "conditions": [18, 1200, "a", 18000], "internal_node_id": "0.0-51.0", "trial": 1, "time_elapsed": 317107, "serialpos": 14, "key_press": -1, "wordID": 1607, "type": "PRES_AUD", "trial_index": 69}, "uniqueid": "MTK2387:3EF8EXOTT22BPZ7GRPDAS5IBBWW1J8", "dateTime": 1517074666096}, {"current_trial": 70, "trialdata": {"rt": -1000, "trial_type": "single-audio", "word": "iceberg", "stimulus": "/static/audio/wordpool/ICEBERG.wav", "conditions": [18, 1200, "a", 18000], "internal_node_id": "0.0-52.0", "trial": 1, "time_elapsed": 319517, "serialpos": 15, "key_press": -1, "wordID": 730, "type": "PRES_AUD", "trial_index": 70}, "uniqueid": "MTK2387:3EF8EXOTT22BPZ7GRPDAS5IBBWW1J8", "dateTime": 1517074668506}, {"current_trial": 71, "trialdata": {"rt": -1000, "trial_type": "single-audio", "word": "whistle", "stimulus": "/static/audio/wordpool/WHISTLE.wav", "conditions": [18, 1200, "a", 18000], "internal_node_id": "0.0-53.0", "trial": 1, "time_elapsed": 321554, "serialpos": 16, "key_press": -1, "wordID": 1605, "type": "PRES_AUD", "trial_index": 71}, "uniqueid": "MTK2387:3EF8EXOTT22BPZ7GRPDAS5IBBWW1J8", "dateTime": 1517074670546}, {"current_trial": 72, "trialdata": {"rt": -1000, "trial_type": "single-audio", "word": "jungle", "stimulus": "/static/audio/wordpool/JUNGLE.wav", "conditions": [18, 1200, "a", 18000], "internal_node_id": "0.0-54.0", "trial": 1, "time_elapsed": 323833, "serialpos": 17, "key_press": -1, "wordID": 763, "type": "PRES_AUD", "trial_index": 72}, "uniqueid": "MTK2387:3EF8EXOTT22BPZ7GRPDAS5IBBWW1J8", "dateTime": 1517074672822}, {"current_trial": 73, "trialdata": {"rt": -1, "trial_type": "single-stim", "stimulus": "", "internal_node_id": "0.0-55.0-0.0", "time_elapsed": 325159, "key_press": -1, "type": "PRE_RECALL_DELAY", "trial_index": 73}, "uniqueid": "MTK2387:3EF8EXOTT22BPZ7GRPDAS5IBBWW1J8", "dateTime": 1517074674148}, {"current_trial": 74, "trialdata": {"rt": -1000, "trial_type": "single-audio", "stimulus": "/static/audio/400Hz.wav", "internal_node_id": "0.0-56.0", "time_elapsed": 325660, "key_press": -1, "type": "PRE_RECALL_ALERT", "trial_index": 74}, "uniqueid": "MTK2387:3EF8EXOTT22BPZ7GRPDAS5IBBWW1J8", "dateTime": 1517074674650}, {"current_trial": 75, "trialdata": {"rt": [2175, 3679, 5655, 9286, 28415, 37912, 48639], "recwords": ["jungle", "whistle", "iceberg", "transplant", "marsh", "", "ozone"], "key_times": [967, 1159, 1367, 1727, 1839, 1951, 2175, 2511, 2703, 2935, 3143, 3344, 3447, 3551, 3679, 4079, 4327, 4471, 4791, 5119, 5190, 5471, 5655, 6791, 6959, 7103, 7255, 7447, 7742, 7918, 8464, 8647, 8718, 8950, 9087, 9286, 27439, 27543, 27910, 28094, 28206, 28415, 37912, 47655, 47913, 48088, 48287, 48503, 48639], "trial_type": "free-recall", "conditions": [18, 1200, "a", 18000], "internal_node_id": "0.0-57.0-0.0", "key_presses": [74, 85, 78, 71, 76, 69, 13, 87, 72, 73, 83, 84, 76, 69, 13, 73, 67, 69, 66, 69, 82, 71, 13, 84, 82, 65, 78, 83, 80, 65, 8, 76, 65, 78, 84, 13, 77, 65, 82, 83, 72, 13, 13, 79, 90, 79, 78, 69, 13], "trial": 1, "time_elapsed": 385664, "type": "FREE_RECALL", "trial_index": 75}, "uniqueid": "MTK2387:3EF8EXOTT22BPZ7GRPDAS5IBBWW1J8", "dateTime": 1517074734660}, {"current_trial": 76, "trialdata": {"rt": 2735, "trial_type": "text", "internal_node_id": "0.0-58.0", "time_elapsed": 390408, "key_press": 32, "type": "INSTRUCTIONS", "trial_index": 76}, "uniqueid": "MTK2387:3EF8EXOTT22BPZ7GRPDAS5IBBWW1J8", "dateTime": 1517074739397}, {"current_trial": 77, "trialdata": {"rt": [5538, 7818, 9354, 11458], "trial_type": "math-distractor", "key_times": [5018, 5266, 5538, 7458, 7594, 7818, 9083, 9194, 9354, 11114, 11266, 11458], "responses": ["23", "16", "15", "12"], "num2": [9, 6, 2, 2, 9], "num3": [7, 4, 5, 5, 5], "conditions": [12, 800, "a", 12000], "internal_node_id": "0.0-59.0", "key_presses": [98, 99, 13, 97, 102, 13, 97, 101, 13, 97, 98, 13], "trial": 2, "time_elapsed": 403413, "type": "DISTRACTOR", "trial_index": 77, "num1": [7, 6, 8, 1, 2]}, "uniqueid": "MTK2387:3EF8EXOTT22BPZ7GRPDAS5IBBWW1J8", "dateTime": 1517074752402}, {"current_trial": 78, "trialdata": {"rt": -1, "trial_type": "single-stim", "stimulus": "<p id=\"stim\">10</p>", "internal_node_id": "0.0-60.0-0.0", "time_elapsed": 406415, "key_press": -1, "trial_index": 78}, "uniqueid": "MTK2387:3EF8EXOTT22BPZ7GRPDAS5IBBWW1J8", "dateTime": 1517074755404}, {"current_trial": 79, "trialdata": {"rt": -1, "trial_type": "single-stim", "stimulus": "<p id=\"stim\">9</p>", "internal_node_id": "0.0-60.0-1.0", "time_elapsed": 407417, "key_press": -1, "trial_index": 79}, "uniqueid": "MTK2387:3EF8EXOTT22BPZ7GRPDAS5IBBWW1J8", "dateTime": 1517074756406}, {"current_trial": 80, "trialdata": {"rt": -1, "trial_type": "single-stim", "stimulus": "<p id=\"stim\">8</p>", "internal_node_id": "0.0-60.0-2.0", "time_elapsed": 408419, "key_press": -1, "trial_index": 80}, "uniqueid": "MTK2387:3EF8EXOTT22BPZ7GRPDAS5IBBWW1J8", "dateTime": 1517074757409}, {"current_trial": 81, "trialdata": {"rt": -1, "trial_type": "single-stim", "stimulus": "<p id=\"stim\">7</p>", "internal_node_id": "0.0-60.0-3.0", "time_elapsed": 409421, "key_press": -1, "trial_index": 81}, "uniqueid": "MTK2387:3EF8EXOTT22BPZ7GRPDAS5IBBWW1J8", "dateTime": 1517074758410}, {"current_trial": 82, "trialdata": {"rt": -1, "trial_type": "single-stim", "stimulus": "<p id=\"stim\">6</p>", "internal_node_id": "0.0-60.0-4.0", "time_elapsed": 410423, "key_press": -1, "trial_index": 82}, "uniqueid": "MTK2387:3EF8EXOTT22BPZ7GRPDAS5IBBWW1J8", "dateTime": 1517074759412}, {"current_trial": 83, "trialdata": {"rt": -1, "trial_type": "single-stim", "stimulus": "<p id=\"stim\">5</p>", "internal_node_id": "0.0-60.0-5.0", "time_elapsed": 411426, "key_press": -1, "trial_index": 83}, "uniqueid": "MTK2387:3EF8EXOTT22BPZ7GRPDAS5IBBWW1J8", "dateTime": 1517074760415}, {"current_trial": 84, "trialdata": {"rt": -1, "trial_type": "single-stim", "stimulus": "<p id=\"stim\">4</p>", "internal_node_id": "0.0-60.0-6.0", "time_elapsed": 412428, "key_press": -1, "trial_index": 84}, "uniqueid": "MTK2387:3EF8EXOTT22BPZ7GRPDAS5IBBWW1J8", "dateTime": 1517074761417}, {"current_trial": 85, "trialdata": {"rt": -1, "trial_type": "single-stim", "stimulus": "<p id=\"stim\">3</p>", "internal_node_id": "0.0-60.0-7.0", "time_elapsed": 413430, "key_press": -1, "trial_index": 85}, "uniqueid": "MTK2387:3EF8EXOTT22BPZ7GRPDAS5IBBWW1J8", "dateTime": 1517074762419}, {"current_trial": 86, "trialdata": {"rt": -1, "trial_type": "single-stim", "stimulus": "<p id=\"stim\">2</p>", "internal_node_id": "0.0-60.0-8.0", "time_elapsed": 414432, "key_press": -1, "trial_index": 86}, "uniqueid": "MTK2387:3EF8EXOTT22BPZ7GRPDAS5IBBWW1J8", "dateTime": 1517074763421}, {"current_trial": 87, "trialdata": {"rt": -1, "trial_type": "single-stim", "stimulus": "<p id=\"stim\">1</p>", "internal_node_id": "0.0-60.0-9.0", "time_elapsed": 415434, "key_press": -1, "trial_index": 87}, "uniqueid": "MTK2387:3EF8EXOTT22BPZ7GRPDAS5IBBWW1J8", "dateTime": 1517074764423}, {"current_trial": 88, "trialdata": {"rt": -1, "trial_type": "single-stim", "stimulus": "<p id=\"stim\">+</p>", "internal_node_id": "0.0-61.0-0.0", "time_elapsed": 416937, "key_press": -1, "type": "FIXATION", "trial_index": 88}, "uniqueid": "MTK2387:3EF8EXOTT22BPZ7GRPDAS5IBBWW1J8", "dateTime": 1517074765926}, {"current_trial": 89, "trialdata": {"rt": -1000, "trial_type": "single-audio", "word": "scalpel", "stimulus": "/static/audio/wordpool/SCALPEL.wav", "conditions": [12, 800, "a", 12000], "internal_node_id": "0.0-62.0", "trial": 2, "time_elapsed": 418805, "serialpos": 0, "key_press": -1, "wordID": 1242, "type": "PRES_AUD", "trial_index": 89}, "uniqueid": "MTK2387:3EF8EXOTT22BPZ7GRPDAS5IBBWW1J8", "dateTime": 1517074767794}, {"current_trial": 90, "trialdata": {"rt": -1000, "trial_type": "single-audio", "word": "scotch", "stimulus": "/static/audio/wordpool/SCOTCH.wav", "conditions": [12, 800, "a", 12000], "internal_node_id": "0.0-63.0", "trial": 2, "time_elapsed": 420570, "serialpos": 1, "key_press": -1, "wordID": 1250, "type": "PRES_AUD", "trial_index": 90}, "uniqueid": "MTK2387:3EF8EXOTT22BPZ7GRPDAS5IBBWW1J8", "dateTime": 1517074769559}, {"current_trial": 91, "trialdata": {"rt": -1000, "trial_type": "single-audio", "word": "suitcase", "stimulus": "/static/audio/wordpool/SUITCASE.wav", "conditions": [12, 800, "a", 12000], "internal_node_id": "0.0-64.0", "trial": 2, "time_elapsed": 422286, "serialpos": 2, "key_press": -1, "wordID": 1402, "type": "PRES_AUD", "trial_index": 91}, "uniqueid": "MTK2387:3EF8EXOTT22BPZ7GRPDAS5IBBWW1J8", "dateTime": 1517074771275}, {"current_trial": 92, "trialdata": {"rt": -1000, "trial_type": "single-audio", "word": "luggage", "stimulus": "/static/audio/wordpool/LUGGAGE.wav", "conditions": [12, 800, "a", 12000], "internal_node_id": "0.0-65.0", "trial": 2, "time_elapsed": 424163, "serialpos": 3, "key_press": -1, "wordID": 846, "type": "PRES_AUD", "trial_index": 92}, "uniqueid": "MTK2387:3EF8EXOTT22BPZ7GRPDAS5IBBWW1J8", "dateTime": 1517074773152}, {"current_trial": 93, "trialdata": {"rt": -1000, "trial_type": "single-audio", "word": "drink", "stimulus": "/static/audio/wordpool/DRINK.wav", "conditions": [12, 800, "a", 12000], "internal_node_id": "0.0-66.0", "trial": 2, "time_elapsed": 425888, "serialpos": 4, "key_press": -1, "wordID": 497, "type": "PRES_AUD", "trial_index": 93}, "uniqueid": "MTK2387:3EF8EXOTT22BPZ7GRPDAS5IBBWW1J8", "dateTime": 1517074774877}, {"current_trial": 94, "trialdata": {"rt": -1000, "trial_type": "single-audio", "word": "snack", "stimulus": "/static/audio/wordpool/SNACK.wav", "conditions": [12, 800, "a", 12000], "internal_node_id": "0.0-67.0", "trial": 2, "time_elapsed": 427827, "serialpos": 5, "key_press": -1, "wordID": 1330, "type": "PRES_AUD", "trial_index": 94}, "uniqueid": "MTK2387:3EF8EXOTT22BPZ7GRPDAS5IBBWW1J8", "dateTime": 1517074776817}, {"current_trial": 95, "trialdata": {"rt": -1000, "trial_type": "single-audio", "word": "razor", "stimulus": "/static/audio/wordpool/RAZOR.wav", "conditions": [12, 800, "a", 12000], "internal_node_id": "0.0-68.0", "trial": 2, "time_elapsed": 429729, "serialpos": 6, "key_press": -1, "wordID": 1170, "type": "PRES_AUD", "trial_index": 95}, "uniqueid": "MTK2387:3EF8EXOTT22BPZ7GRPDAS5IBBWW1J8", "dateTime": 1517074778718}, {"current_trial": 96, "trialdata": {"rt": -1000, "trial_type": "single-audio", "word": "ulcer", "stimulus": "/static/audio/wordpool/ULCER.wav", "conditions": [12, 800, "a", 12000], "internal_node_id": "0.0-69.0", "trial": 2, "time_elapsed": 431338, "serialpos": 7, "key_press": -1, "wordID": 1532, "type": "PRES_AUD", "trial_index": 96}, "uniqueid": "MTK2387:3EF8EXOTT22BPZ7GRPDAS5IBBWW1J8", "dateTime": 1517074780328}, {"current_trial": 97, "trialdata": {"rt": -1000, "trial_type": "single-audio", "word": "champagne", "stimulus": "/static/audio/wordpool/CHAMPAGNE.wav", "conditions": [12, 800, "a", 12000], "internal_node_id": "0.0-70.0", "trial": 2, "time_elapsed": 433133, "serialpos": 8, "key_press": -1, "wordID": 277, "type": "PRES_AUD", "trial_index": 97}, "uniqueid": "MTK2387:3EF8EXOTT22BPZ7GRPDAS5IBBWW1J8", "dateTime": 1517074782122}, {"current_trial": 98, "trialdata": {"rt": -1000, "trial_type": "single-audio", "word": "kleenex", "stimulus": "/static/audio/wordpool/KLEENEX.wav", "conditions": [12, 800, "a", 12000], "internal_node_id": "0.0-71.0", "trial": 2, "time_elapsed": 434971, "serialpos": 9, "key_press": -1, "wordID": 781, "type": "PRES_AUD", "trial_index": 98}, "uniqueid": "MTK2387:3EF8EXOTT22BPZ7GRPDAS5IBBWW1J8", "dateTime": 1517074783961}, {"current_trial": 99, "trialdata": {"rt": -1000, "trial_type": "single-audio", "word": "dust", "stimulus": "/static/audio/wordpool/DUST.wav", "conditions": [12, 800, "a", 12000], "internal_node_id": "0.0-72.0", "trial": 2, "time_elapsed": 436796, "serialpos": 10, "key_press": -1, "wordID": 507, "type": "PRES_AUD", "trial_index": 99}, "uniqueid": "MTK2387:3EF8EXOTT22BPZ7GRPDAS5IBBWW1J8", "dateTime": 1517074785785}, {"current_trial": 100, "trialdata": {"rt": -1000, "trial_type": "single-audio", "word": "powder", "stimulus": "/static/audio/wordpool/POWDER.wav", "conditions": [12, 800, "a", 12000], "internal_node_id": "0.0-73.0", "trial": 2, "time_elapsed": 438756, "serialpos": 11, "key_press": -1, "wordID": 1116, "type": "PRES_AUD", "trial_index": 100}, "uniqueid": "MTK2387:3EF8EXOTT22BPZ7GRPDAS5IBBWW1J8", "dateTime": 1517074787745}, {"current_trial": 101, "trialdata": {"rt": -1, "trial_type": "single-stim", "stimulus": "", "internal_node_id": "0.0-74.0-0.0", "time_elapsed": 440149, "key_press": -1, "type": "PRE_RECALL_DELAY", "trial_index": 101}, "uniqueid": "MTK2387:3EF8EXOTT22BPZ7GRPDAS5IBBWW1J8", "dateTime": 1517074789139}, {"current_trial": 102, "trialdata": {"rt": -1000, "trial_type": "single-audio", "stimulus": "/static/audio/400Hz.wav", "internal_node_id": "0.0-75.0", "time_elapsed": 440650, "key_press": -1, "type": "PRE_RECALL_ALERT", "trial_index": 102}, "uniqueid": "MTK2387:3EF8EXOTT22BPZ7GRPDAS5IBBWW1J8", "dateTime": 1517074789640}, {"current_trial": 103, "trialdata": {"rt": [4129, 5289, 7105, 9002, 11081, 16001, 19505, 22418, 27250, 32114, 49042], "recwords": ["kleenex", "dust", "powder", "luggage", "scotch", "suitcase", "kleenex", "ulcer", "scalpel", "champagne", ""], "key_times": [1722, 1890, 1977, 2154, 2281, 3297, 3785, 4129, 4481, 4689, 4858, 5106, 5289, 5649, 5826, 5970, 6195, 6594, 6641, 6825, 6978, 7105, 7754, 7986, 8082, 8234, 8474, 8698, 8914, 9002, 9962, 10234, 10394, 10481, 10802, 10914, 11081, 12154, 12466, 12946, 14417, 14745, 14985, 15241, 15433, 15705, 15897, 16001, 17577, 17761, 17865, 18162, 18297, 18970, 19241, 19505, 21201, 21401, 21729, 21945, 22113, 22418, 25195, 25474, 25682, 26347, 26570, 26762, 27074, 27250, 30282, 30450, 30554, 30690, 30890, 31290, 31682, 31890, 32010, 32114, 49042], "trial_type": "free-recall", "conditions": [12, 800, "a", 12000], "internal_node_id": "0.0-76.0-0.0", "key_presses": [75, 76, 69, 69, 78, 69, 88, 13, 68, 85, 83, 84, 32, 80, 79, 87, 69, 8, 68, 69, 82, 13, 76, 85, 71, 71, 65, 71, 69, 13, 83, 67, 79, 84, 67, 72, 13, 83, 72, 8, 85, 73, 84, 67, 65, 83, 69, 13, 75, 76, 69, 69, 78, 69, 88, 13, 85, 76, 67, 69, 82, 13, 83, 67, 65, 76, 80, 69, 76, 13, 67, 72, 65, 77, 80, 65, 71, 78, 69, 13, 13], "trial": 2, "time_elapsed": 500654, "type": "FREE_RECALL", "trial_index": 103}, "uniqueid": "MTK2387:3EF8EXOTT22BPZ7GRPDAS5IBBWW1J8", "dateTime": 1517074849650}, {"current_trial": 104, "trialdata": {"rt": 5426, "trial_type": "text", "internal_node_id": "0.0-77.0", "time_elapsed": 508088, "key_press": 32, "type": "INSTRUCTIONS", "trial_index": 104}, "uniqueid": "MTK2387:3EF8EXOTT22BPZ7GRPDAS5IBBWW1J8", "dateTime": 1517074857077}, {"current_trial": 105, "trialdata": {"rt": [2436, 4563, 7004, 9481, 11604, 14356, 16436, 18284, 20996, 23676], "trial_type": "math-distractor", "key_times": [2084, 2293, 2436, 4380, 4563, 6699, 6884, 7004, 8798, 9093, 9481, 11276, 11452, 11604, 13980, 14140, 14356, 16141, 16316, 16436, 18012, 18148, 18284, 20589, 20780, 20996, 23364, 23540, 23676], "responses": ["20", "4", "21", "17", "14", "19", "20", "11", "17", "10"], "num2": [8, 1, 6, 1, 5, 9, 8, 9, 6, 5, 9], "num3": [6, 2, 7, 9, 7, 5, 7, 1, 3, 2, 9], "conditions": [24, 800, "a", 24000], "internal_node_id": "0.0-78.0", "key_presses": [98, 96, 13, 100, 13, 98, 97, 13, 97, 103, 13, 97, 100, 13, 97, 105, 13, 98, 96, 13, 97, 97, 13, 97, 103, 13, 97, 96, 13], "trial": 3, "time_elapsed": 534093, "type": "DISTRACTOR", "trial_index": 105, "num1": [6, 1, 8, 7, 2, 5, 5, 1, 8, 3, 1]}, "uniqueid": "MTK2387:3EF8EXOTT22BPZ7GRPDAS5IBBWW1J8", "dateTime": 1517074883082}, {"current_trial": 106, "trialdata": {"rt": -1, "trial_type": "single-stim", "stimulus": "<p id=\"stim\">10</p>", "internal_node_id": "0.0-79.0-0.0", "time_elapsed": 537095, "key_press": -1, "trial_index": 106}, "uniqueid": "MTK2387:3EF8EXOTT22BPZ7GRPDAS5IBBWW1J8", "dateTime": 1517074886084}, {"current_trial": 107, "trialdata": {"rt": -1, "trial_type": "single-stim", "stimulus": "<p id=\"stim\">9</p>", "internal_node_id": "0.0-79.0-1.0", "time_elapsed": 538097, "key_press": -1, "trial_index": 107}, "uniqueid": "MTK2387:3EF8EXOTT22BPZ7GRPDAS5IBBWW1J8", "dateTime": 1517074887087}, {"current_trial": 108, "trialdata": {"rt": -1, "trial_type": "single-stim", "stimulus": "<p id=\"stim\">8</p>", "internal_node_id": "0.0-79.0-2.0", "time_elapsed": 539099, "key_press": -1, "trial_index": 108}, "uniqueid": "MTK2387:3EF8EXOTT22BPZ7GRPDAS5IBBWW1J8", "dateTime": 1517074888088}, {"current_trial": 109, "trialdata": {"rt": -1, "trial_type": "single-stim", "stimulus": "<p id=\"stim\">7</p>", "internal_node_id": "0.0-79.0-3.0", "time_elapsed": 540101, "key_press": -1, "trial_index": 109}, "uniqueid": "MTK2387:3EF8EXOTT22BPZ7GRPDAS5IBBWW1J8", "dateTime": 1517074889091}, {"current_trial": 110, "trialdata": {"rt": -1, "trial_type": "single-stim", "stimulus": "<p id=\"stim\">6</p>", "internal_node_id": "0.0-79.0-4.0", "time_elapsed": 541103, "key_press": -1, "trial_index": 110}, "uniqueid": "MTK2387:3EF8EXOTT22BPZ7GRPDAS5IBBWW1J8", "dateTime": 1517074890093}, {"current_trial": 111, "trialdata": {"rt": -1, "trial_type": "single-stim", "stimulus": "<p id=\"stim\">5</p>", "internal_node_id": "0.0-79.0-5.0", "time_elapsed": 542105, "key_press": -1, "trial_index": 111}, "uniqueid": "MTK2387:3EF8EXOTT22BPZ7GRPDAS5IBBWW1J8", "dateTime": 1517074891094}, {"current_trial": 112, "trialdata": {"rt": -1, "trial_type": "single-stim", "stimulus": "<p id=\"stim\">4</p>", "internal_node_id": "0.0-79.0-6.0", "time_elapsed": 543107, "key_press": -1, "trial_index": 112}, "uniqueid": "MTK2387:3EF8EXOTT22BPZ7GRPDAS5IBBWW1J8", "dateTime": 1517074892096}, {"current_trial": 113, "trialdata": {"rt": -1, "trial_type": "single-stim", "stimulus": "<p id=\"stim\">3</p>", "internal_node_id": "0.0-79.0-7.0", "time_elapsed": 544107, "key_press": -1, "trial_index": 113}, "uniqueid": "MTK2387:3EF8EXOTT22BPZ7GRPDAS5IBBWW1J8", "dateTime": 1517074893096}, {"current_trial": 114, "trialdata": {"rt": -1, "trial_type": "single-stim", "stimulus": "<p id=\"stim\">2</p>", "internal_node_id": "0.0-79.0-8.0", "time_elapsed": 545109, "key_press": -1, "trial_index": 114}, "uniqueid": "MTK2387:3EF8EXOTT22BPZ7GRPDAS5IBBWW1J8", "dateTime": 1517074894098}, {"current_trial": 115, "trialdata": {"rt": -1, "trial_type": "single-stim", "stimulus": "<p id=\"stim\">1</p>", "internal_node_id": "0.0-79.0-9.0", "time_elapsed": 546111, "key_press": -1, "trial_index": 115}, "uniqueid": "MTK2387:3EF8EXOTT22BPZ7GRPDAS5IBBWW1J8", "dateTime": 1517074895100}, {"current_trial": 116, "trialdata": {"rt": -1, "trial_type": "single-stim", "stimulus": "<p id=\"stim\">+</p>", "internal_node_id": "0.0-80.0-0.0", "time_elapsed": 547612, "key_press": -1, "type": "FIXATION", "trial_index": 116}, "uniqueid": "MTK2387:3EF8EXOTT22BPZ7GRPDAS5IBBWW1J8", "dateTime": 1517074896601}, {"current_trial": 117, "trialdata": {"rt": -38.66666666669971, "trial_type": "single-audio", "word": "lizard", "stimulus": "/static/audio/wordpool/LIZARD.wav", "conditions": [24, 800, "a", 24000], "internal_node_id": "0.0-81.0", "trial": 3, "time_elapsed": 549523, "serialpos": 0, "key_press": 174, "wordID": 833, "type": "PRES_AUD", "trial_index": 117}, "uniqueid": "MTK2387:3EF8EXOTT22BPZ7GRPDAS5IBBWW1J8", "dateTime": 1517074898512}, {"current_trial": 118, "trialdata": {"rt": -1000, "trial_type": "single-audio", "word": "cobra", "stimulus": "/static/audio/wordpool/COBRA.wav", "conditions": [24, 800, "a", 24000], "internal_node_id": "0.0-82.0", "trial": 3, "time_elapsed": 551139, "serialpos": 1, "key_press": -1, "wordID": 335, "type": "PRES_AUD", "trial_index": 118}, "uniqueid": "MTK2387:3EF8EXOTT22BPZ7GRPDAS5IBBWW1J8", "dateTime": 1517074900128}, {"current_trial": 119, "trialdata": {"rt": -1000, "trial_type": "single-audio", "word": "barrel", "stimulus": "/static/audio/wordpool/BARREL.wav", "conditions": [24, 800, "a", 24000], "internal_node_id": "0.0-83.0", "trial": 3, "time_elapsed": 552793, "serialpos": 2, "key_press": -1, "wordID": 90, "type": "PRES_AUD", "trial_index": 119}, "uniqueid": "MTK2387:3EF8EXOTT22BPZ7GRPDAS5IBBWW1J8", "dateTime": 1517074901783}, {"current_trial": 120, "trialdata": {"rt": -1000, "trial_type": "single-audio", "word": "maple", "stimulus": "/static/audio/wordpool/MAPLE.wav", "conditions": [24, 800, "a", 24000], "internal_node_id": "0.0-84.0", "trial": 3, "time_elapsed": 554654, "serialpos": 3, "key_press": -1, "wordID": 865, "type": "PRES_AUD", "trial_index": 120}, "uniqueid": "MTK2387:3EF8EXOTT22BPZ7GRPDAS5IBBWW1J8", "dateTime": 1517074903643}, {"current_trial": 121, "trialdata": {"rt": -1000, "trial_type": "single-audio", "word": "snail", "stimulus": "/static/audio/wordpool/SNAIL.wav", "conditions": [24, 800, "a", 24000], "internal_node_id": "0.0-85.0", "trial": 3, "time_elapsed": 556576, "serialpos": 4, "key_press": -1, "wordID": 1331, "type": "PRES_AUD", "trial_index": 121}, "uniqueid": "MTK2387:3EF8EXOTT22BPZ7GRPDAS5IBBWW1J8", "dateTime": 1517074905565}, {"current_trial": 122, "trialdata": {"rt": -1000, "trial_type": "single-audio", "word": "baby", "stimulus": "/static/audio/wordpool/BABY.wav", "conditions": [24, 800, "a", 24000], "internal_node_id": "0.0-86.0", "trial": 3, "time_elapsed": 558478, "serialpos": 5, "key_press": -1, "wordID": 63, "type": "PRES_AUD", "trial_index": 122}, "uniqueid": "MTK2387:3EF8EXOTT22BPZ7GRPDAS5IBBWW1J8", "dateTime": 1517074907467}, {"current_trial": 123, "trialdata": {"rt": -1000, "trial_type": "single-audio", "word": "wagon", "stimulus": "/static/audio/wordpool/WAGON.wav", "conditions": [24, 800, "a", 24000], "internal_node_id": "0.0-87.0", "trial": 3, "time_elapsed": 560421, "serialpos": 6, "key_press": -1, "wordID": 1577, "type": "PRES_AUD", "trial_index": 123}, "uniqueid": "MTK2387:3EF8EXOTT22BPZ7GRPDAS5IBBWW1J8", "dateTime": 1517074909410}, {"current_trial": 124, "trialdata": {"rt": -1000, "trial_type": "single-audio", "word": "dresser", "stimulus": "/static/audio/wordpool/DRESSER.wav", "conditions": [24, 800, "a", 24000], "internal_node_id": "0.0-88.0", "trial": 3, "time_elapsed": 562318, "serialpos": 7, "key_press": -1, "wordID": 495, "type": "PRES_AUD", "trial_index": 124}, "uniqueid": "MTK2387:3EF8EXOTT22BPZ7GRPDAS5IBBWW1J8", "dateTime": 1517074911307}, {"current_trial": 125, "trialdata": {"rt": -1000, "trial_type": "single-audio", "word": "preacher", "stimulus": "/static/audio/wordpool/PREACHER.wav", "conditions": [24, 800, "a", 24000], "internal_node_id": "0.0-89.0", "trial": 3, "time_elapsed": 564177, "serialpos": 8, "key_press": -1, "wordID": 1118, "type": "PRES_AUD", "trial_index": 125}, "uniqueid": "MTK2387:3EF8EXOTT22BPZ7GRPDAS5IBBWW1J8", "dateTime": 1517074913166}, {"current_trial": 126, "trialdata": {"rt": -1000, "trial_type": "single-audio", "word": "dragon", "stimulus": "/static/audio/wordpool/DRAGON.wav", "conditions": [24, 800, "a", 24000], "internal_node_id": "0.0-90.0", "trial": 3, "time_elapsed": 565815, "serialpos": 9, "key_press": -1, "wordID": 491, "type": "PRES_AUD", "trial_index": 126}, "uniqueid": "MTK2387:3EF8EXOTT22BPZ7GRPDAS5IBBWW1J8", "dateTime": 1517074914805}, {"current_trial": 127, "trialdata": {"rt": -1000, "trial_type": "single-audio", "word": "tractor", "stimulus": "/static/audio/wordpool/TRACTOR.wav", "conditions": [24, 800, "a", 24000], "internal_node_id": "0.0-91.0", "trial": 3, "time_elapsed": 567597, "serialpos": 10, "key_press": -1, "wordID": 1492, "type": "PRES_AUD", "trial_index": 127}, "uniqueid": "MTK2387:3EF8EXOTT22BPZ7GRPDAS5IBBWW1J8", "dateTime": 1517074916586}, {"current_trial": 128, "trialdata": {"rt": -1000, "trial_type": "single-audio", "word": "antler", "stimulus": "/static/audio/wordpool/ANTLER.wav", "conditions": [24, 800, "a", 24000], "internal_node_id": "0.0-92.0", "trial": 3, "time_elapsed": 569315, "serialpos": 11, "key_press": -1, "wordID": 28, "type": "PRES_AUD", "trial_index": 128}, "uniqueid": "MTK2387:3EF8EXOTT22BPZ7GRPDAS5IBBWW1J8", "dateTime": 1517074918305}, {"current_trial": 129, "trialdata": {"rt": -1000, "trial_type": "single-audio", "word": "picnic", "stimulus": "/static/audio/wordpool/PICNIC.wav", "conditions": [24, 800, "a", 24000], "internal_node_id": "0.0-93.0", "trial": 3, "time_elapsed": 571189, "serialpos": 12, "key_press": -1, "wordID": 1059, "type": "PRES_AUD", "trial_index": 129}, "uniqueid": "MTK2387:3EF8EXOTT22BPZ7GRPDAS5IBBWW1J8", "dateTime": 1517074920178}, {"current_trial": 130, "trialdata": {"rt": -1000, "trial_type": "single-audio", "word": "catcher", "stimulus": "/static/audio/wordpool/CATCHER.wav", "conditions": [24, 800, "a", 24000], "internal_node_id": "0.0-94.0", "trial": 3, "time_elapsed": 572829, "serialpos": 13, "key_press": -1, "wordID": 257, "type": "PRES_AUD", "trial_index": 130}, "uniqueid": "MTK2387:3EF8EXOTT22BPZ7GRPDAS5IBBWW1J8", "dateTime": 1517074921818}, {"current_trial": 131, "trialdata": {"rt": -1000, "trial_type": "single-audio", "word": "basement", "stimulus": "/static/audio/wordpool/BASEMENT.wav", "conditions": [24, 800, "a", 24000], "internal_node_id": "0.0-95.0", "trial": 3, "time_elapsed": 574761, "serialpos": 14, "key_press": -1, "wordID": 93, "type": "PRES_AUD", "trial_index": 131}, "uniqueid": "MTK2387:3EF8EXOTT22BPZ7GRPDAS5IBBWW1J8", "dateTime": 1517074923750}, {"current_trial": 132, "trialdata": {"rt": -1000, "trial_type": "single-audio", "word": "driver", "stimulus": "/static/audio/wordpool/DRIVER.wav", "conditions": [24, 800, "a", 24000], "internal_node_id": "0.0-96.0", "trial": 3, "time_elapsed": 576517, "serialpos": 15, "key_press": -1, "wordID": 498, "type": "PRES_AUD", "trial_index": 132}, "uniqueid": "MTK2387:3EF8EXOTT22BPZ7GRPDAS5IBBWW1J8", "dateTime": 1517074925506}, {"current_trial": 133, "trialdata": {"rt": -1000, "trial_type": "single-audio", "word": "cocktail", "stimulus": "/static/audio/wordpool/COCKTAIL.wav", "conditions": [24, 800, "a", 24000], "internal_node_id": "0.0-97.0", "trial": 3, "time_elapsed": 578380, "serialpos": 16, "key_press": -1, "wordID": 337, "type": "PRES_AUD", "trial_index": 133}, "uniqueid": "MTK2387:3EF8EXOTT22BPZ7GRPDAS5IBBWW1J8", "dateTime": 1517074927369}, {"current_trial": 134, "trialdata": {"rt": -1000, "trial_type": "single-audio", "word": "glass", "stimulus": "/static/audio/wordpool/GLASS.wav", "conditions": [24, 800, "a", 24000], "internal_node_id": "0.0-98.0", "trial": 3, "time_elapsed": 580252, "serialpos": 17, "key_press": -1, "wordID": 638, "type": "PRES_AUD", "trial_index": 134}, "uniqueid": "MTK2387:3EF8EXOTT22BPZ7GRPDAS5IBBWW1J8", "dateTime": 1517074929241}, {"current_trial": 135, "trialdata": {"rt": -1000, "trial_type": "single-audio", "word": "crater", "stimulus": "/static/audio/wordpool/CRATER.wav", "conditions": [24, 800, "a", 24000], "internal_node_id": "0.0-99.0", "trial": 3, "time_elapsed": 582060, "serialpos": 18, "key_press": -1, "wordID": 399, "type": "PRES_AUD", "trial_index": 135}, "uniqueid": "MTK2387:3EF8EXOTT22BPZ7GRPDAS5IBBWW1J8", "dateTime": 1517074931049}, {"current_trial": 136, "trialdata": {"rt": -1000, "trial_type": "single-audio", "word": "lava", "stimulus": "/static/audio/wordpool/LAVA.wav", "conditions": [24, 800, "a", 24000], "internal_node_id": "0.0-100.0", "trial": 3, "time_elapsed": 583878, "serialpos": 19, "key_press": -1, "wordID": 803, "type": "PRES_AUD", "trial_index": 136}, "uniqueid": "MTK2387:3EF8EXOTT22BPZ7GRPDAS5IBBWW1J8", "dateTime": 1517074932867}, {"current_trial": 137, "trialdata": {"rt": -1000, "trial_type": "single-audio", "word": "rust", "stimulus": "/static/audio/wordpool/RUST.wav", "conditions": [24, 800, "a", 24000], "internal_node_id": "0.0-101.0", "trial": 3, "time_elapsed": 585603, "serialpos": 20, "key_press": -1, "wordID": 1218, "type": "PRES_AUD", "trial_index": 137}, "uniqueid": "MTK2387:3EF8EXOTT22BPZ7GRPDAS5IBBWW1J8", "dateTime": 1517074934593}, {"current_trial": 138, "trialdata": {"rt": -1000, "trial_type": "single-audio", "word": "cellar", "stimulus": "/static/audio/wordpool/CELLAR.wav", "conditions": [24, 800, "a", 24000], "internal_node_id": "0.0-102.0", "trial": 3, "time_elapsed": 587373, "serialpos": 21, "key_press": -1, "wordID": 266, "type": "PRES_AUD", "trial_index": 138}, "uniqueid": "MTK2387:3EF8EXOTT22BPZ7GRPDAS5IBBWW1J8", "dateTime": 1517074936362}, {"current_trial": 139, "trialdata": {"rt": -1000, "trial_type": "single-audio", "word": "parrot", "stimulus": "/static/audio/wordpool/PARROT.wav", "conditions": [24, 800, "a", 24000], "internal_node_id": "0.0-103.0", "trial": 3, "time_elapsed": 589346, "serialpos": 22, "key_press": -1, "wordID": 1014, "type": "PRES_AUD", "trial_index": 139}, "uniqueid": "MTK2387:3EF8EXOTT22BPZ7GRPDAS5IBBWW1J8", "dateTime": 1517074938335}, {"current_trial": 140, "trialdata": {"rt": -1000, "trial_type": "single-audio", "word": "frame", "stimulus": "/static/audio/wordpool/FRAME.wav", "conditions": [24, 800, "a", 24000], "internal_node_id": "0.0-104.0", "trial": 3, "time_elapsed": 591270, "serialpos": 23, "key_press": -1, "wordID": 599, "type": "PRES_AUD", "trial_index": 140}, "uniqueid": "MTK2387:3EF8EXOTT22BPZ7GRPDAS5IBBWW1J8", "dateTime": 1517074940260}, {"current_trial": 141, "trialdata": {"rt": -1, "trial_type": "single-stim", "stimulus": "", "internal_node_id": "0.0-105.0-0.0", "time_elapsed": 592533, "key_press": -1, "type": "PRE_RECALL_DELAY", "trial_index": 141}, "uniqueid": "MTK2387:3EF8EXOTT22BPZ7GRPDAS5IBBWW1J8", "dateTime": 1517074941523}, {"current_trial": 142, "trialdata": {"rt": -1000, "trial_type": "single-audio", "stimulus": "/static/audio/400Hz.wav", "internal_node_id": "0.0-106.0", "time_elapsed": 593035, "key_press": -1, "type": "PRE_RECALL_ALERT", "trial_index": 142}, "uniqueid": "MTK2387:3EF8EXOTT22BPZ7GRPDAS5IBBWW1J8", "dateTime": 1517074942024}, {"current_trial": 143, "trialdata": {"rt": [2744, 4579, 6376, 7816, 12977, 15481, 18089, 20696, 21761, 24624, 25408, 27264, 30442, 33161, 35407, 59353], "recwords": ["frame", "parrot", "dust", "driver", "basement", "baby", "wagon", "dresser", "l", "lizard", "", "cobra", "barrel", "glass", "cocktail", ""], "key_times": [1953, 2097, 2306, 2409, 2553, 2744, 3121, 3233, 3417, 3569, 4041, 4169, 4579, 4944, 5153, 5304, 5569, 6376, 6752, 6920, 7128, 7226, 7441, 7600, 7816, 9184, 9409, 9688, 10181, 10183, 10673, 10848, 10904, 11049, 11176, 11480, 11633, 11792, 12474, 12721, 12833, 12977, 14425, 14673, 14953, 15217, 15481, 17201, 17376, 17610, 17729, 17873, 18089, 19160, 19633, 19792, 20080, 20265, 20450, 20593, 20696, 21752, 21761, 21984, 22185, 22513, 22658, 23321, 23529, 23720, 23960, 24184, 24448, 24624, 25184, 25408, 26280, 26408, 26664, 27000, 27184, 27264, 28680, 28936, 29360, 29400, 29624, 29801, 30065, 30217, 30442, 31441, 31983, 32066, 32281, 32386, 32810, 33010, 33161, 33577, 33712, 34152, 34296, 34664, 34928, 35016, 35248, 35407, 59353], "trial_type": "free-recall", "conditions": [24, 800, "a", 24000], "internal_node_id": "0.0-107.0-0.0", "key_presses": [70, 82, 65, 77, 69, 13, 80, 65, 82, 82, 79, 84, 13, 68, 85, 83, 84, 13, 68, 82, 73, 86, 69, 82, 13, 66, 65, 83, 69, 82, 8, 77, 82, 78, 84, 8, 8, 8, 69, 78, 84, 13, 66, 65, 66, 89, 13, 87, 65, 71, 79, 78, 13, 68, 82, 69, 83, 83, 69, 82, 13, 76, 186, 73, 90, 8, 8, 76, 73, 90, 65, 82, 68, 32, 8, 13, 67, 79, 66, 82, 65, 13, 66, 82, 8, 65, 82, 82, 69, 76, 13, 70, 8, 71, 76, 65, 83, 83, 13, 67, 79, 67, 75, 84, 65, 73, 76, 13, 13], "trial": 3, "time_elapsed": 653038, "type": "FREE_RECALL", "trial_index": 143}, "uniqueid": "MTK2387:3EF8EXOTT22BPZ7GRPDAS5IBBWW1J8", "dateTime": 1517075002036}, {"current_trial": 144, "trialdata": {"rt": 35944, "trial_type": "text", "internal_node_id": "0.0-108.0", "time_elapsed": 690992, "key_press": 32, "type": "INSTRUCTIONS", "trial_index": 144}, "uniqueid": "MTK2387:3EF8EXOTT22BPZ7GRPDAS5IBBWW1J8", "dateTime": 1517075039981}, {"current_trial": 145, "trialdata": {"rt": [3124, 8507, 12394, 14026, 15906, 17843, 19443, 20579, 22842], "trial_type": "math-distractor", "key_times": [2796, 2955, 3124, 6907, 7771, 8244, 8403, 8507, 10411, 10571, 11714, 12179, 12394, 13618, 13794, 14026, 15554, 15730, 15906, 17293, 17604, 17843, 19075, 19259, 19443, 20307, 20475, 20579, 22459, 22634, 22842], "responses": ["23", "20", "17", "19", "16", "13", "11", "11", "18"], "num2": [9, 3, 5, 8, 3, 1, 8, 4, 8, 7], "num3": [8, 8, 6, 9, 8, 9, 2, 6, 7, 2], "conditions": [24, 800, "a", 24000], "internal_node_id": "0.0-109.0", "key_presses": [98, 99, 13, 99, 8, 98, 96, 13, 97, 102, 8, 103, 13, 97, 105, 13, 97, 102, 13, 97, 99, 13, 97, 97, 13, 97, 97, 13, 97, 104, 13], "trial": 4, "time_elapsed": 716996, "type": "DISTRACTOR", "trial_index": 145, "num1": [6, 9, 6, 2, 5, 3, 1, 1, 3, 5]}, "uniqueid": "MTK2387:3EF8EXOTT22BPZ7GRPDAS5IBBWW1J8", "dateTime": 1517075065985}, {"current_trial": 146, "trialdata": {"rt": -1, "trial_type": "single-stim", "stimulus": "<p id=\"stim\">10</p>", "internal_node_id": "0.0-110.0-0.0", "time_elapsed": 719997, "key_press": -1, "trial_index": 146}, "uniqueid": "MTK2387:3EF8EXOTT22BPZ7GRPDAS5IBBWW1J8", "dateTime": 1517075068986}, {"current_trial": 147, "trialdata": {"rt": -1, "trial_type": "single-stim", "stimulus": "<p id=\"stim\">9</p>", "internal_node_id": "0.0-110.0-1.0", "time_elapsed": 720998, "key_press": -1, "trial_index": 147}, "uniqueid": "MTK2387:3EF8EXOTT22BPZ7GRPDAS5IBBWW1J8", "dateTime": 1517075069988}, {"current_trial": 148, "trialdata": {"rt": -1, "trial_type": "single-stim", "stimulus": "<p id=\"stim\">8</p>", "internal_node_id": "0.0-110.0-2.0", "time_elapsed": 721999, "key_press": -1, "trial_index": 148}, "uniqueid": "MTK2387:3EF8EXOTT22BPZ7GRPDAS5IBBWW1J8", "dateTime": 1517075070990}, {"current_trial": 149, "trialdata": {"rt": -1, "trial_type": "single-stim", "stimulus": "<p id=\"stim\">7</p>", "internal_node_id": "0.0-110.0-3.0", "time_elapsed": 723002, "key_press": -1, "trial_index": 149}, "uniqueid": "MTK2387:3EF8EXOTT22BPZ7GRPDAS5IBBWW1J8", "dateTime": 1517075071991}, {"current_trial": 150, "trialdata": {"rt": -1, "trial_type": "single-stim", "stimulus": "<p id=\"stim\">6</p>", "internal_node_id": "0.0-110.0-4.0", "time_elapsed": 724004, "key_press": -1, "trial_index": 150}, "uniqueid": "MTK2387:3EF8EXOTT22BPZ7GRPDAS5IBBWW1J8", "dateTime": 1517075072993}, {"current_trial": 151, "trialdata": {"rt": -1, "trial_type": "single-stim", "stimulus": "<p id=\"stim\">5</p>", "internal_node_id": "0.0-110.0-5.0", "time_elapsed": 725005, "key_press": -1, "trial_index": 151}, "uniqueid": "MTK2387:3EF8EXOTT22BPZ7GRPDAS5IBBWW1J8", "dateTime": 1517075073994}, {"current_trial": 152, "trialdata": {"rt": -1, "trial_type": "single-stim", "stimulus": "<p id=\"stim\">4</p>", "internal_node_id": "0.0-110.0-6.0", "time_elapsed": 726007, "key_press": -1, "trial_index": 152}, "uniqueid": "MTK2387:3EF8EXOTT22BPZ7GRPDAS5IBBWW1J8", "dateTime": 1517075074996}, {"current_trial": 153, "trialdata": {"rt": -1, "trial_type": "single-stim", "stimulus": "<p id=\"stim\">3</p>", "internal_node_id": "0.0-110.0-7.0", "time_elapsed": 727009, "key_press": -1, "trial_index": 153}, "uniqueid": "MTK2387:3EF8EXOTT22BPZ7GRPDAS5IBBWW1J8", "dateTime": 1517075075998}, {"current_trial": 154, "trialdata": {"rt": -1, "trial_type": "single-stim", "stimulus": "<p id=\"stim\">2</p>", "internal_node_id": "0.0-110.0-8.0", "time_elapsed": 728011, "key_press": -1, "trial_index": 154}, "uniqueid": "MTK2387:3EF8EXOTT22BPZ7GRPDAS5IBBWW1J8", "dateTime": 1517075077000}, {"current_trial": 155, "trialdata": {"rt": -1, "trial_type": "single-stim", "stimulus": "<p id=\"stim\">1</p>", "internal_node_id": "0.0-110.0-9.0", "time_elapsed": 729013, "key_press": -1, "trial_index": 155}, "uniqueid": "MTK2387:3EF8EXOTT22BPZ7GRPDAS5IBBWW1J8", "dateTime": 1517075078002}, {"current_trial": 156, "trialdata": {"rt": -1, "trial_type": "single-stim", "stimulus": "<p id=\"stim\">+</p>", "internal_node_id": "0.0-111.0-0.0", "time_elapsed": 730515, "key_press": -1, "type": "FIXATION", "trial_index": 156}, "uniqueid": "MTK2387:3EF8EXOTT22BPZ7GRPDAS5IBBWW1J8", "dateTime": 1517075079504}, {"current_trial": 157, "trialdata": {"rt": -1000, "trial_type": "single-audio", "word": "london", "stimulus": "/static/audio/wordpool/LONDON.wav", "conditions": [24, 800, "a", 24000], "internal_node_id": "0.0-112.0", "trial": 4, "time_elapsed": 732264, "serialpos": 0, "key_press": -1, "wordID": 842, "type": "PRES_AUD", "trial_index": 157}, "uniqueid": "MTK2387:3EF8EXOTT22BPZ7GRPDAS5IBBWW1J8", "dateTime": 1517075081253}, {"current_trial": 158, "trialdata": {"rt": -1000, "trial_type": "single-audio", "word": "flute", "stimulus": "/static/audio/wordpool/FLUTE.wav", "conditions": [24, 800, "a", 24000], "internal_node_id": "0.0-113.0", "trial": 4, "time_elapsed": 734039, "serialpos": 1, "key_press": -1, "wordID": 584, "type": "PRES_AUD", "trial_index": 158}, "uniqueid": "MTK2387:3EF8EXOTT22BPZ7GRPDAS5IBBWW1J8", "dateTime": 1517075083028}, {"current_trial": 159, "trialdata": {"rt": -1000, "trial_type": "single-audio", "word": "harp", "stimulus": "/static/audio/wordpool/HARP.wav", "conditions": [24, 800, "a", 24000], "internal_node_id": "0.0-114.0", "trial": 4, "time_elapsed": 735687, "serialpos": 2, "key_press": -1, "wordID": 688, "type": "PRES_AUD", "trial_index": 159}, "uniqueid": "MTK2387:3EF8EXOTT22BPZ7GRPDAS5IBBWW1J8", "dateTime": 1517075084677}, {"current_trial": 160, "trialdata": {"rt": -1000, "trial_type": "single-audio", "word": "slug", "stimulus": "/static/audio/wordpool/SLUG.wav", "conditions": [24, 800, "a", 24000], "internal_node_id": "0.0-115.0", "trial": 4, "time_elapsed": 737426, "serialpos": 3, "key_press": -1, "wordID": 1328, "type": "PRES_AUD", "trial_index": 160}, "uniqueid": "MTK2387:3EF8EXOTT22BPZ7GRPDAS5IBBWW1J8", "dateTime": 1517075086415}, {"current_trial": 161, "trialdata": {"rt": -1000, "trial_type": "single-audio", "word": "blade", "stimulus": "/static/audio/wordpool/BLADE.wav", "conditions": [24, 800, "a", 24000], "internal_node_id": "0.0-116.0", "trial": 4, "time_elapsed": 739241, "serialpos": 4, "key_press": -1, "wordID": 133, "type": "PRES_AUD", "trial_index": 161}, "uniqueid": "MTK2387:3EF8EXOTT22BPZ7GRPDAS5IBBWW1J8", "dateTime": 1517075088230}, {"current_trial": 162, "trialdata": {"rt": -1000, "trial_type": "single-audio", "word": "apple", "stimulus": "/static/audio/wordpool/APPLE.wav", "conditions": [24, 800, "a", 24000], "internal_node_id": "0.0-117.0", "trial": 4, "time_elapsed": 741138, "serialpos": 5, "key_press": -1, "wordID": 32, "type": "PRES_AUD", "trial_index": 162}, "uniqueid": "MTK2387:3EF8EXOTT22BPZ7GRPDAS5IBBWW1J8", "dateTime": 1517075090128}, {"current_trial": 163, "trialdata": {"rt": -1000, "trial_type": "single-audio", "word": "plaid", "stimulus": "/static/audio/wordpool/PLAID.wav", "conditions": [24, 800, "a", 24000], "internal_node_id": "0.0-118.0", "trial": 4, "time_elapsed": 743047, "serialpos": 6, "key_press": -1, "wordID": 1079, "type": "PRES_AUD", "trial_index": 163}, "uniqueid": "MTK2387:3EF8EXOTT22BPZ7GRPDAS5IBBWW1J8", "dateTime": 1517075092036}, {"current_trial": 164, "trialdata": {"rt": -1000, "trial_type": "single-audio", "word": "mattress", "stimulus": "/static/audio/wordpool/MATTRESS.wav", "conditions": [24, 800, "a", 24000], "internal_node_id": "0.0-119.0", "trial": 4, "time_elapsed": 744942, "serialpos": 7, "key_press": -1, "wordID": 878, "type": "PRES_AUD", "trial_index": 164}, "uniqueid": "MTK2387:3EF8EXOTT22BPZ7GRPDAS5IBBWW1J8", "dateTime": 1517075093931}, {"current_trial": 165, "trialdata": {"rt": -1000, "trial_type": "single-audio", "word": "yarn", "stimulus": "/static/audio/wordpool/YARN.wav", "conditions": [24, 800, "a", 24000], "internal_node_id": "0.0-120.0", "trial": 4, "time_elapsed": 746767, "serialpos": 8, "key_press": -1, "wordID": 1630, "type": "PRES_AUD", "trial_index": 165}, "uniqueid": "MTK2387:3EF8EXOTT22BPZ7GRPDAS5IBBWW1J8", "dateTime": 1517075095756}, {"current_trial": 166, "trialdata": {"rt": -1000, "trial_type": "single-audio", "word": "briefcase", "stimulus": "/static/audio/wordpool/BRIEFCASE.wav", "conditions": [24, 800, "a", 24000], "internal_node_id": "0.0-121.0", "trial": 4, "time_elapsed": 748652, "serialpos": 9, "key_press": -1, "wordID": 174, "type": "PRES_AUD", "trial_index": 166}, "uniqueid": "MTK2387:3EF8EXOTT22BPZ7GRPDAS5IBBWW1J8", "dateTime": 1517075097641}, {"current_trial": 167, "trialdata": {"rt": -1000, "trial_type": "single-audio", "word": "grape", "stimulus": "/static/audio/wordpool/GRAPE.wav", "conditions": [24, 800, "a", 24000], "internal_node_id": "0.0-122.0", "trial": 4, "time_elapsed": 750532, "serialpos": 10, "key_press": -1, "wordID": 653, "type": "PRES_AUD", "trial_index": 167}, "uniqueid": "MTK2387:3EF8EXOTT22BPZ7GRPDAS5IBBWW1J8", "dateTime": 1517075099521}, {"current_trial": 168, "trialdata": {"rt": -1000, "trial_type": "single-audio", "word": "typist", "stimulus": "/static/audio/wordpool/TYPIST.wav", "conditions": [24, 800, "a", 24000], "internal_node_id": "0.0-123.0", "trial": 4, "time_elapsed": 752383, "serialpos": 11, "key_press": -1, "wordID": 1531, "type": "PRES_AUD", "trial_index": 168}, "uniqueid": "MTK2387:3EF8EXOTT22BPZ7GRPDAS5IBBWW1J8", "dateTime": 1517075101372}, {"current_trial": 169, "trialdata": {"rt": -1000, "trial_type": "single-audio", "word": "mailbox", "stimulus": "/static/audio/wordpool/MAILBOX.wav", "conditions": [24, 800, "a", 24000], "internal_node_id": "0.0-124.0", "trial": 4, "time_elapsed": 754006, "serialpos": 12, "key_press": -1, "wordID": 856, "type": "PRES_AUD", "trial_index": 169}, "uniqueid": "MTK2387:3EF8EXOTT22BPZ7GRPDAS5IBBWW1J8", "dateTime": 1517075102995}, {"current_trial": 170, "trialdata": {"rt": -1000, "trial_type": "single-audio", "word": "branch", "stimulus": "/static/audio/wordpool/BRANCH.wav", "conditions": [24, 800, "a", 24000], "internal_node_id": "0.0-125.0", "trial": 4, "time_elapsed": 755837, "serialpos": 13, "key_press": -1, "wordID": 167, "type": "PRES_AUD", "trial_index": 170}, "uniqueid": "MTK2387:3EF8EXOTT22BPZ7GRPDAS5IBBWW1J8", "dateTime": 1517075104826}, {"current_trial": 171, "trialdata": {"rt": -1000, "trial_type": "single-audio", "word": "keeper", "stimulus": "/static/audio/wordpool/KEEPER.wav", "conditions": [24, 800, "a", 24000], "internal_node_id": "0.0-126.0", "trial": 4, "time_elapsed": 757636, "serialpos": 14, "key_press": -1, "wordID": 768, "type": "PRES_AUD", "trial_index": 171}, "uniqueid": "MTK2387:3EF8EXOTT22BPZ7GRPDAS5IBBWW1J8", "dateTime": 1517075106625}, {"current_trial": 172, "trialdata": {"rt": -1000, "trial_type": "single-audio", "word": "cigar", "stimulus": "/static/audio/wordpool/CIGAR.wav", "conditions": [24, 800, "a", 24000], "internal_node_id": "0.0-127.0", "trial": 4, "time_elapsed": 759348, "serialpos": 15, "key_press": -1, "wordID": 307, "type": "PRES_AUD", "trial_index": 172}, "uniqueid": "MTK2387:3EF8EXOTT22BPZ7GRPDAS5IBBWW1J8", "dateTime": 1517075108337}, {"current_trial": 173, "trialdata": {"rt": -1000, "trial_type": "single-audio", "word": "costume", "stimulus": "/static/audio/wordpool/COSTUME.wav", "conditions": [24, 800, "a", 24000], "internal_node_id": "0.0-128.0", "trial": 4, "time_elapsed": 761021, "serialpos": 16, "key_press": -1, "wordID": 382, "type": "PRES_AUD", "trial_index": 173}, "uniqueid": "MTK2387:3EF8EXOTT22BPZ7GRPDAS5IBBWW1J8", "dateTime": 1517075110011}, {"current_trial": 174, "trialdata": {"rt": -1000, "trial_type": "single-audio", "word": "church", "stimulus": "/static/audio/wordpool/CHURCH.wav", "conditions": [24, 800, "a", 24000], "internal_node_id": "0.0-129.0", "trial": 4, "time_elapsed": 762779, "serialpos": 17, "key_press": -1, "wordID": 306, "type": "PRES_AUD", "trial_index": 174}, "uniqueid": "MTK2387:3EF8EXOTT22BPZ7GRPDAS5IBBWW1J8", "dateTime": 1517075111768}, {"current_trial": 175, "trialdata": {"rt": -1000, "trial_type": "single-audio", "word": "chapel", "stimulus": "/static/audio/wordpool/CHAPEL.wav", "conditions": [24, 800, "a", 24000], "internal_node_id": "0.0-130.0", "trial": 4, "time_elapsed": 764567, "serialpos": 18, "key_press": -1, "wordID": 279, "type": "PRES_AUD", "trial_index": 175}, "uniqueid": "MTK2387:3EF8EXOTT22BPZ7GRPDAS5IBBWW1J8", "dateTime": 1517075113556}, {"current_trial": 176, "trialdata": {"rt": -1000, "trial_type": "single-audio", "word": "wardrobe", "stimulus": "/static/audio/wordpool/WARDROBE.wav", "conditions": [24, 800, "a", 24000], "internal_node_id": "0.0-131.0", "trial": 4, "time_elapsed": 766496, "serialpos": 19, "key_press": -1, "wordID": 1586, "type": "PRES_AUD", "trial_index": 176}, "uniqueid": "MTK2387:3EF8EXOTT22BPZ7GRPDAS5IBBWW1J8", "dateTime": 1517075115485}, {"current_trial": 177, "trialdata": {"rt": -1000, "trial_type": "single-audio", "word": "elbow", "stimulus": "/static/audio/wordpool/ELBOW.wav", "conditions": [24, 800, "a", 24000], "internal_node_id": "0.0-132.0", "trial": 4, "time_elapsed": 768427, "serialpos": 20, "key_press": -1, "wordID": 519, "type": "PRES_AUD", "trial_index": 177}, "uniqueid": "MTK2387:3EF8EXOTT22BPZ7GRPDAS5IBBWW1J8", "dateTime": 1517075117416}, {"current_trial": 178, "trialdata": {"rt": -1000, "trial_type": "single-audio", "word": "piston", "stimulus": "/static/audio/wordpool/PISTON.wav", "conditions": [24, 800, "a", 24000], "internal_node_id": "0.0-133.0", "trial": 4, "time_elapsed": 770283, "serialpos": 21, "key_press": -1, "wordID": 1075, "type": "PRES_AUD", "trial_index": 178}, "uniqueid": "MTK2387:3EF8EXOTT22BPZ7GRPDAS5IBBWW1J8", "dateTime": 1517075119273}, {"current_trial": 179, "trialdata": {"rt": -1000, "trial_type": "single-audio", "word": "trench", "stimulus": "/static/audio/wordpool/TRENCH.wav", "conditions": [24, 800, "a", 24000], "internal_node_id": "0.0-134.0", "trial": 4, "time_elapsed": 772254, "serialpos": 22, "key_press": -1, "wordID": 1502, "type": "PRES_AUD", "trial_index": 179}, "uniqueid": "MTK2387:3EF8EXOTT22BPZ7GRPDAS5IBBWW1J8", "dateTime": 1517075121243}, {"current_trial": 180, "trialdata": {"rt": -1000, "trial_type": "single-audio", "word": "diver", "stimulus": "/static/audio/wordpool/DIVER.wav", "conditions": [24, 800, "a", 24000], "internal_node_id": "0.0-135.0", "trial": 4, "time_elapsed": 774062, "serialpos": 23, "key_press": -1, "wordID": 475, "type": "PRES_AUD", "trial_index": 180}, "uniqueid": "MTK2387:3EF8EXOTT22BPZ7GRPDAS5IBBWW1J8", "dateTime": 1517075123051}, {"current_trial": 181, "trialdata": {"rt": -1, "trial_type": "single-stim", "stimulus": "", "internal_node_id": "0.0-136.0-0.0", "time_elapsed": 775345, "key_press": -1, "type": "PRE_RECALL_DELAY", "trial_index": 181}, "uniqueid": "MTK2387:3EF8EXOTT22BPZ7GRPDAS5IBBWW1J8", "dateTime": 1517075124336}, {"current_trial": 182, "trialdata": {"rt": -1000, "trial_type": "single-audio", "stimulus": "/static/audio/400Hz.wav", "internal_node_id": "0.0-137.0", "time_elapsed": 775847, "key_press": -1, "type": "PRE_RECALL_ALERT", "trial_index": 182}, "uniqueid": "MTK2387:3EF8EXOTT22BPZ7GRPDAS5IBBWW1J8", "dateTime": 1517075124837}, {"current_trial": 183, "trialdata": {"rt": [2202, 5547, 6579, 8907, 9987, 12371, 13859, 15594, 16675, 19498, 21868, 24452, 28075, 28603], "recwords": ["harp", "briefcase", "diver", "trench", "piston", "grape", "church", "blade", "apple", "mattress", "yarn", "londo", "mailbox", ""], "key_times": [1636, 1746, 1914, 2050, 2202, 4018, 4206, 4363, 4405, 4699, 5027, 5171, 5283, 5491, 5547, 5883, 5995, 6100, 6283, 6363, 6579, 7467, 7636, 8051, 8203, 8636, 8737, 8907, 9154, 9356, 9451, 9635, 9723, 9854, 9987, 11131, 11443, 11740, 11836, 12211, 12371, 12619, 12715, 12899, 13219, 13387, 13451, 13684, 13686, 13859, 14938, 15099, 15186, 15330, 15514, 15594, 15898, 16004, 16186, 16354, 16460, 16675, 17930, 18034, 18203, 18354, 18522, 18626, 18956, 19002, 19211, 19386, 19498, 21202, 21386, 21490, 21731, 21868, 23675, 23847, 23979, 24139, 24195, 24452, 26443, 26586, 26700, 26939, 27147, 27355, 27803, 28075, 28603], "trial_type": "free-recall", "conditions": [24, 800, "a", 24000], "internal_node_id": "0.0-138.0-0.0", "key_presses": [72, 65, 82, 80, 13, 66, 82, 73, 69, 70, 67, 65, 83, 69, 13, 68, 73, 86, 69, 82, 13, 84, 82, 69, 78, 67, 72, 13, 80, 73, 83, 84, 79, 78, 13, 71, 82, 65, 80, 69, 13, 67, 72, 82, 8, 85, 82, 67, 72, 13, 66, 76, 65, 68, 69, 13, 65, 80, 80, 76, 69, 13, 77, 65, 84, 84, 82, 73, 8, 69, 83, 83, 13, 89, 65, 82, 78, 13, 76, 79, 78, 68, 79, 13, 77, 65, 73, 76, 66, 79, 88, 13, 13], "trial": 4, "time_elapsed": 835853, "type": "FREE_RECALL", "trial_index": 183}, "uniqueid": "MTK2387:3EF8EXOTT22BPZ7GRPDAS5IBBWW1J8", "dateTime": 1517075184852}, {"current_trial": 184, "trialdata": {"rt": 24040, "trial_type": "text", "internal_node_id": "0.0-139.0", "time_elapsed": 861904, "key_press": 32, "type": "INSTRUCTIONS", "trial_index": 184}, "uniqueid": "MTK2387:3EF8EXOTT22BPZ7GRPDAS5IBBWW1J8", "dateTime": 1517075210894}, {"current_trial": 185, "trialdata": {"rt": [3522, 6217, 8953, 10977], "trial_type": "math-distractor", "key_times": [1858, 2626, 3066, 3258, 3522, 5906, 6042, 6217, 8738, 8953, 10625, 10810, 10977], "responses": ["13", "13", "9", "20"], "num2": [5, 1, 5, 9, 9], "num3": [7, 5, 2, 6, 1], "conditions": [24, 800, "a", 12000], "internal_node_id": "0.0-140.0", "key_presses": [99, 8, 97, 99, 13, 97, 99, 13, 105, 13, 98, 96, 13], "trial": 5, "time_elapsed": 875910, "type": "DISTRACTOR", "trial_index": 185, "num1": [1, 7, 2, 5, 1]}, "uniqueid": "MTK2387:3EF8EXOTT22BPZ7GRPDAS5IBBWW1J8", "dateTime": 1517075224899}, {"current_trial": 186, "trialdata": {"rt": -1, "trial_type": "single-stim", "stimulus": "<p id=\"stim\">10</p>", "internal_node_id": "0.0-141.0-0.0", "time_elapsed": 878911, "key_press": -1, "trial_index": 186}, "uniqueid": "MTK2387:3EF8EXOTT22BPZ7GRPDAS5IBBWW1J8", "dateTime": 1517075227900}, {"current_trial": 187, "trialdata": {"rt": -1, "trial_type": "single-stim", "stimulus": "<p id=\"stim\">9</p>", "internal_node_id": "0.0-141.0-1.0", "time_elapsed": 879913, "key_press": -1, "trial_index": 187}, "uniqueid": "MTK2387:3EF8EXOTT22BPZ7GRPDAS5IBBWW1J8", "dateTime": 1517075228902}, {"current_trial": 188, "trialdata": {"rt": -1, "trial_type": "single-stim", "stimulus": "<p id=\"stim\">8</p>", "internal_node_id": "0.0-141.0-2.0", "time_elapsed": 880916, "key_press": -1, "trial_index": 188}, "uniqueid": "MTK2387:3EF8EXOTT22BPZ7GRPDAS5IBBWW1J8", "dateTime": 1517075229905}, {"current_trial": 189, "trialdata": {"rt": -1, "trial_type": "single-stim", "stimulus": "<p id=\"stim\">7</p>", "internal_node_id": "0.0-141.0-3.0", "time_elapsed": 881916, "key_press": -1, "trial_index": 189}, "uniqueid": "MTK2387:3EF8EXOTT22BPZ7GRPDAS5IBBWW1J8", "dateTime": 1517075230906}, {"current_trial": 190, "trialdata": {"rt": -1, "trial_type": "single-stim", "stimulus": "<p id=\"stim\">6</p>", "internal_node_id": "0.0-141.0-4.0", "time_elapsed": 882918, "key_press": -1, "trial_index": 190}, "uniqueid": "MTK2387:3EF8EXOTT22BPZ7GRPDAS5IBBWW1J8", "dateTime": 1517075231908}, {"current_trial": 191, "trialdata": {"rt": -1, "trial_type": "single-stim", "stimulus": "<p id=\"stim\">5</p>", "internal_node_id": "0.0-141.0-5.0", "time_elapsed": 883920, "key_press": -1, "trial_index": 191}, "uniqueid": "MTK2387:3EF8EXOTT22BPZ7GRPDAS5IBBWW1J8", "dateTime": 1517075232909}, {"current_trial": 192, "trialdata": {"rt": -1, "trial_type": "single-stim", "stimulus": "<p id=\"stim\">4</p>", "internal_node_id": "0.0-141.0-6.0", "time_elapsed": 884922, "key_press": -1, "trial_index": 192}, "uniqueid": "MTK2387:3EF8EXOTT22BPZ7GRPDAS5IBBWW1J8", "dateTime": 1517075233911}, {"current_trial": 193, "trialdata": {"rt": -1, "trial_type": "single-stim", "stimulus": "<p id=\"stim\">3</p>", "internal_node_id": "0.0-141.0-7.0", "time_elapsed": 885923, "key_press": -1, "trial_index": 193}, "uniqueid": "MTK2387:3EF8EXOTT22BPZ7GRPDAS5IBBWW1J8", "dateTime": 1517075234912}, {"current_trial": 194, "trialdata": {"rt": -1, "trial_type": "single-stim", "stimulus": "<p id=\"stim\">2</p>", "internal_node_id": "0.0-141.0-8.0", "time_elapsed": 886925, "key_press": -1, "trial_index": 194}, "uniqueid": "MTK2387:3EF8EXOTT22BPZ7GRPDAS5IBBWW1J8", "dateTime": 1517075235914}, {"current_trial": 195, "trialdata": {"rt": -1, "trial_type": "single-stim", "stimulus": "<p id=\"stim\">1</p>", "internal_node_id": "0.0-141.0-9.0", "time_elapsed": 887927, "key_press": -1, "trial_index": 195}, "uniqueid": "MTK2387:3EF8EXOTT22BPZ7GRPDAS5IBBWW1J8", "dateTime": 1517075236917}, {"current_trial": 196, "trialdata": {"rt": -1, "trial_type": "single-stim", "stimulus": "<p id=\"stim\">+</p>", "internal_node_id": "0.0-142.0-0.0", "time_elapsed": 889429, "key_press": -1, "type": "FIXATION", "trial_index": 196}, "uniqueid": "MTK2387:3EF8EXOTT22BPZ7GRPDAS5IBBWW1J8", "dateTime": 1517075238418}, {"current_trial": 197, "trialdata": {"rt": -1000, "trial_type": "single-audio", "word": "princess", "stimulus": "/static/audio/wordpool/PRINCESS.wav", "conditions": [24, 800, "a", 12000], "internal_node_id": "0.0-143.0", "trial": 5, "time_elapsed": 891336, "serialpos": 0, "key_press": -1, "wordID": 1124, "type": "PRES_AUD", "trial_index": 197}, "uniqueid": "MTK2387:3EF8EXOTT22BPZ7GRPDAS5IBBWW1J8", "dateTime": 1517075240325}, {"current_trial": 198, "trialdata": {"rt": -1000, "trial_type": "single-audio", "word": "quarter", "stimulus": "/static/audio/wordpool/QUARTER.wav", "conditions": [24, 800, "a", 12000], "internal_node_id": "0.0-144.0", "trial": 5, "time_elapsed": 893072, "serialpos": 1, "key_press": -1, "wordID": 1147, "type": "PRES_AUD", "trial_index": 198}, "uniqueid": "MTK2387:3EF8EXOTT22BPZ7GRPDAS5IBBWW1J8", "dateTime": 1517075242061}, {"current_trial": 199, "trialdata": {"rt": -1000, "trial_type": "single-audio", "word": "turkey", "stimulus": "/static/audio/wordpool/TURKEY.wav", "conditions": [24, 800, "a", 12000], "internal_node_id": "0.0-145.0", "trial": 5, "time_elapsed": 894976, "serialpos": 2, "key_press": -1, "wordID": 1519, "type": "PRES_AUD", "trial_index": 199}, "uniqueid": "MTK2387:3EF8EXOTT22BPZ7GRPDAS5IBBWW1J8", "dateTime": 1517075243965}, {"current_trial": 200, "trialdata": {"rt": -1000, "trial_type": "single-audio", "word": "turnip", "stimulus": "/static/audio/wordpool/TURNIP.wav", "conditions": [24, 800, "a", 12000], "internal_node_id": "0.0-146.0", "trial": 5, "time_elapsed": 896924, "serialpos": 3, "key_press": -1, "wordID": 1520, "type": "PRES_AUD", "trial_index": 200}, "uniqueid": "MTK2387:3EF8EXOTT22BPZ7GRPDAS5IBBWW1J8", "dateTime": 1517075245913}, {"current_trial": 201, "trialdata": {"rt": -1000, "trial_type": "single-audio", "word": "sausage", "stimulus": "/static/audio/wordpool/SAUSAGE.wav", "conditions": [24, 800, "a", 12000], "internal_node_id": "0.0-147.0", "trial": 5, "time_elapsed": 898696, "serialpos": 4, "key_press": -1, "wordID": 1237, "type": "PRES_AUD", "trial_index": 201}, "uniqueid": "MTK2387:3EF8EXOTT22BPZ7GRPDAS5IBBWW1J8", "dateTime": 1517075247686}, {"current_trial": 202, "trialdata": {"rt": -1000, "trial_type": "single-audio", "word": "chipmunk", "stimulus": "/static/audio/wordpool/CHIPMUNK.wav", "conditions": [24, 800, "a", 12000], "internal_node_id": "0.0-148.0", "trial": 5, "time_elapsed": 900371, "serialpos": 5, "key_press": -1, "wordID": 303, "type": "PRES_AUD", "trial_index": 202}, "uniqueid": "MTK2387:3EF8EXOTT22BPZ7GRPDAS5IBBWW1J8", "dateTime": 1517075249360}, {"current_trial": 203, "trialdata": {"rt": -1000, "trial_type": "single-audio", "word": "beaver", "stimulus": "/static/audio/wordpool/BEAVER.wav", "conditions": [24, 800, "a", 12000], "internal_node_id": "0.0-149.0", "trial": 5, "time_elapsed": 902155, "serialpos": 6, "key_press": -1, "wordID": 108, "type": "PRES_AUD", "trial_index": 203}, "uniqueid": "MTK2387:3EF8EXOTT22BPZ7GRPDAS5IBBWW1J8", "dateTime": 1517075251144}, {"current_trial": 204, "trialdata": {"rt": -1000, "trial_type": "single-audio", "word": "saddle", "stimulus": "/static/audio/wordpool/SADDLE.wav", "conditions": [24, 800, "a", 12000], "internal_node_id": "0.0-150.0", "trial": 5, "time_elapsed": 904039, "serialpos": 7, "key_press": -1, "wordID": 1220, "type": "PRES_AUD", "trial_index": 204}, "uniqueid": "MTK2387:3EF8EXOTT22BPZ7GRPDAS5IBBWW1J8", "dateTime": 1517075253028}, {"current_trial": 205, "trialdata": {"rt": -1000, "trial_type": "single-audio", "word": "carrot", "stimulus": "/static/audio/wordpool/CARROT.wav", "conditions": [24, 800, "a", 12000], "internal_node_id": "0.0-151.0", "trial": 5, "time_elapsed": 905890, "serialpos": 8, "key_press": -1, "wordID": 248, "type": "PRES_AUD", "trial_index": 205}, "uniqueid": "MTK2387:3EF8EXOTT22BPZ7GRPDAS5IBBWW1J8", "dateTime": 1517075254880}, {"current_trial": 206, "trialdata": {"rt": -1000, "trial_type": "single-audio", "word": "girl", "stimulus": "/static/audio/wordpool/GIRL.wav", "conditions": [24, 800, "a", 12000], "internal_node_id": "0.0-152.0", "trial": 5, "time_elapsed": 907776, "serialpos": 9, "key_press": -1, "wordID": 636, "type": "PRES_AUD", "trial_index": 206}, "uniqueid": "MTK2387:3EF8EXOTT22BPZ7GRPDAS5IBBWW1J8", "dateTime": 1517075256765}, {"current_trial": 207, "trialdata": {"rt": -1000, "trial_type": "single-audio", "word": "waitress", "stimulus": "/static/audio/wordpool/WAITRESS.wav", "conditions": [24, 800, "a", 12000], "internal_node_id": "0.0-153.0", "trial": 5, "time_elapsed": 909571, "serialpos": 10, "key_press": -1, "wordID": 1580, "type": "PRES_AUD", "trial_index": 207}, "uniqueid": "MTK2387:3EF8EXOTT22BPZ7GRPDAS5IBBWW1J8", "dateTime": 1517075258560}, {"current_trial": 208, "trialdata": {"rt": -1000, "trial_type": "single-audio", "word": "cod", "stimulus": "/static/audio/wordpool/COD.wav", "conditions": [24, 800, "a", 12000], "internal_node_id": "0.0-154.0", "trial": 5, "time_elapsed": 911475, "serialpos": 11, "key_press": -1, "wordID": 339, "type": "PRES_AUD", "trial_index": 208}, "uniqueid": "MTK2387:3EF8EXOTT22BPZ7GRPDAS5IBBWW1J8", "dateTime": 1517075260464}, {"current_trial": 209, "trialdata": {"rt": -1000, "trial_type": "single-audio", "word": "expert", "stimulus": "/static/audio/wordpool/EXPERT.wav", "conditions": [24, 800, "a", 12000], "internal_node_id": "0.0-155.0", "trial": 5, "time_elapsed": 913340, "serialpos": 12, "key_press": -1, "wordID": 542, "type": "PRES_AUD", "trial_index": 209}, "uniqueid": "MTK2387:3EF8EXOTT22BPZ7GRPDAS5IBBWW1J8", "dateTime": 1517075262329}, {"current_trial": 210, "trialdata": {"rt": -1000, "trial_type": "single-audio", "word": "knife", "stimulus": "/static/audio/wordpool/KNIFE.wav", "conditions": [24, 800, "a", 12000], "internal_node_id": "0.0-156.0", "trial": 5, "time_elapsed": 915010, "serialpos": 13, "key_press": -1, "wordID": 784, "type": "PRES_AUD", "trial_index": 210}, "uniqueid": "MTK2387:3EF8EXOTT22BPZ7GRPDAS5IBBWW1J8", "dateTime": 1517075263999}, {"current_trial": 211, "trialdata": {"rt": -1000, "trial_type": "single-audio", "word": "crab", "stimulus": "/static/audio/wordpool/CRAB.wav", "conditions": [24, 800, "a", 12000], "internal_node_id": "0.0-157.0", "trial": 5, "time_elapsed": 916879, "serialpos": 14, "key_press": -1, "wordID": 396, "type": "PRES_AUD", "trial_index": 211}, "uniqueid": "MTK2387:3EF8EXOTT22BPZ7GRPDAS5IBBWW1J8", "dateTime": 1517075265868}, {"current_trial": 212, "trialdata": {"rt": -1000, "trial_type": "single-audio", "word": "stallion", "stimulus": "/static/audio/wordpool/STALLION.wav", "conditions": [24, 800, "a", 12000], "internal_node_id": "0.0-158.0", "trial": 5, "time_elapsed": 918735, "serialpos": 15, "key_press": -1, "wordID": 1368, "type": "PRES_AUD", "trial_index": 212}, "uniqueid": "MTK2387:3EF8EXOTT22BPZ7GRPDAS5IBBWW1J8", "dateTime": 1517075267724}, {"current_trial": 213, "trialdata": {"rt": -1000, "trial_type": "single-audio", "word": "rabbit", "stimulus": "/static/audio/wordpool/RABBIT.wav", "conditions": [24, 800, "a", 12000], "internal_node_id": "0.0-159.0", "trial": 5, "time_elapsed": 920556, "serialpos": 16, "key_press": -1, "wordID": 1151, "type": "PRES_AUD", "trial_index": 213}, "uniqueid": "MTK2387:3EF8EXOTT22BPZ7GRPDAS5IBBWW1J8", "dateTime": 1517075269545}, {"current_trial": 214, "trialdata": {"rt": -1000, "trial_type": "single-audio", "word": "woman", "stimulus": "/static/audio/wordpool/WOMAN.wav", "conditions": [24, 800, "a", 12000], "internal_node_id": "0.0-160.0", "trial": 5, "time_elapsed": 922421, "serialpos": 17, "key_press": -1, "wordID": 1619, "type": "PRES_AUD", "trial_index": 214}, "uniqueid": "MTK2387:3EF8EXOTT22BPZ7GRPDAS5IBBWW1J8", "dateTime": 1517075271410}, {"current_trial": 215, "trialdata": {"rt": -1000, "trial_type": "single-audio", "word": "compass", "stimulus": "/static/audio/wordpool/COMPASS.wav", "conditions": [24, 800, "a", 12000], "internal_node_id": "0.0-161.0", "trial": 5, "time_elapsed": 924405, "serialpos": 18, "key_press": -1, "wordID": 357, "type": "PRES_AUD", "trial_index": 215}, "uniqueid": "MTK2387:3EF8EXOTT22BPZ7GRPDAS5IBBWW1J8", "dateTime": 1517075273394}, {"current_trial": 216, "trialdata": {"rt": -1000, "trial_type": "single-audio", "word": "custard", "stimulus": "/static/audio/wordpool/CUSTARD.wav", "conditions": [24, 800, "a", 12000], "internal_node_id": "0.0-162.0", "trial": 5, "time_elapsed": 926287, "serialpos": 19, "key_press": -1, "wordID": 428, "type": "PRES_AUD", "trial_index": 216}, "uniqueid": "MTK2387:3EF8EXOTT22BPZ7GRPDAS5IBBWW1J8", "dateTime": 1517075275276}, {"current_trial": 217, "trialdata": {"rt": -1000, "trial_type": "single-audio", "word": "pastry", "stimulus": "/static/audio/wordpool/PASTRY.wav", "conditions": [24, 800, "a", 12000], "internal_node_id": "0.0-163.0", "trial": 5, "time_elapsed": 927930, "serialpos": 20, "key_press": -1, "wordID": 1021, "type": "PRES_AUD", "trial_index": 217}, "uniqueid": "MTK2387:3EF8EXOTT22BPZ7GRPDAS5IBBWW1J8", "dateTime": 1517075276919}, {"current_trial": 218, "trialdata": {"rt": -1000, "trial_type": "single-audio", "word": "oyster", "stimulus": "/static/audio/wordpool/OYSTER.wav", "conditions": [24, 800, "a", 12000], "internal_node_id": "0.0-164.0", "trial": 5, "time_elapsed": 929672, "serialpos": 21, "key_press": -1, "wordID": 994, "type": "PRES_AUD", "trial_index": 218}, "uniqueid": "MTK2387:3EF8EXOTT22BPZ7GRPDAS5IBBWW1J8", "dateTime": 1517075278661}, {"current_trial": 219, "trialdata": {"rt": -1000, "trial_type": "single-audio", "word": "laser", "stimulus": "/static/audio/wordpool/LASER.wav", "conditions": [24, 800, "a", 12000], "internal_node_id": "0.0-165.0", "trial": 5, "time_elapsed": 931515, "serialpos": 22, "key_press": -1, "wordID": 800, "type": "PRES_AUD", "trial_index": 219}, "uniqueid": "MTK2387:3EF8EXOTT22BPZ7GRPDAS5IBBWW1J8", "dateTime": 1517075280504}, {"current_trial": 220, "trialdata": {"rt": -1000, "trial_type": "single-audio", "word": "loft", "stimulus": "/static/audio/wordpool/LOFT.wav", "conditions": [24, 800, "a", 12000], "internal_node_id": "0.0-166.0", "trial": 5, "time_elapsed": 933133, "serialpos": 23, "key_press": -1, "wordID": 839, "type": "PRES_AUD", "trial_index": 220}, "uniqueid": "MTK2387:3EF8EXOTT22BPZ7GRPDAS5IBBWW1J8", "dateTime": 1517075282122}, {"current_trial": 221, "trialdata": {"rt": -1, "trial_type": "single-stim", "stimulus": "", "internal_node_id": "0.0-167.0-0.0", "time_elapsed": 934432, "key_press": -1, "type": "PRE_RECALL_DELAY", "trial_index": 221}, "uniqueid": "MTK2387:3EF8EXOTT22BPZ7GRPDAS5IBBWW1J8", "dateTime": 1517075283421}, {"current_trial": 222, "trialdata": {"rt": -1000, "trial_type": "single-audio", "stimulus": "/static/audio/400Hz.wav", "internal_node_id": "0.0-168.0", "time_elapsed": 934934, "key_press": -1, "type": "PRE_RECALL_ALERT", "trial_index": 222}, "uniqueid": "MTK2387:3EF8EXOTT22BPZ7GRPDAS5IBBWW1J8", "dateTime": 1517075283924}], "currenttrial": 223, "condition": 1, "mode": "live"}