{"assignmentId": "39ZSFO5CA93RYWYETDNU37N8MPKUJJ", "workerId": "MTK2311", "questiondata": {"avail_screen_height": 1040, "color_depth": 24, "screen_width": 1920, "pixel_depth": 24, "avail_screen_width": 1920, "screen_height": 1080}, "bonus": 0, "hitId": "3NKW03WTLMEJP3T2T1H2TCO724GWQI", "counterbalance": 2425, "useragent": "Mozilla/5.0 (Windows NT 6.1; Win64; x64) AppleWebKit/537.36 (KHTML, like Gecko) Chrome/63.0.3239.132 Safari/537.36", "eventdata": [{"eventtype": "initialized", "interval": 0, "value": null, "timestamp": 1516985505913}, {"eventtype": "window_resize", "interval": 0, "value": [1920, 990], "timestamp": 1516985505913}, {"eventtype": "focus", "interval": 4412, "value": "off", "timestamp": 1516985510325}, {"eventtype": "focus", "interval": 14384, "value": "on", "timestamp": 1516985524709}, {"eventtype": "focus", "interval": 66570, "value": "off", "timestamp": 1516985591279}, {"eventtype": "focus", "interval": 47728, "value": "on", "timestamp": 1516985639007}, {"eventtype": "focus", "interval": 34348, "value": "off", "timestamp": 1516985673355}, {"eventtype": "focus", "interval": 27550, "value": "on", "timestamp": 1516985700905}, {"eventtype": "focus", "interval": 24572, "value": "off", "timestamp": 1516985725477}, {"eventtype": "focus", "interval": 51137, "value": "on", "timestamp": 1516985776614}, {"eventtype": "focus", "interval": 15956, "value": "off", "timestamp": 1516985792570}, {"eventtype": "focus", "interval": 6843, "value": "on", "timestamp": 1516985799413}], "data": [{"current_trial": 0, "trialdata": {"rt": 4622, "trial_type": "text", "internal_node_id": "0.0-0.0", "time_elapsed": 4623, "key_press": 13, "type": "INSTRUCTIONS", "trial_index": 0}, "uniqueid": "MTK2311:39ZSFO5CA93RYWYETDNU37N8MPKUJJ", "dateTime": 1516985525949}, {"current_trial": 1, "trialdata": {"rt": 766, "trial_type": "text", "internal_node_id": "0.0-1.0", "time_elapsed": 5391, "key_press": 13, "type": "INSTRUCTIONS", "trial_index": 1}, "uniqueid": "MTK2311:39ZSFO5CA93RYWYETDNU37N8MPKUJJ", "dateTime": 1516985526716}, {"current_trial": 2, "trialdata": {"rt": [3832], "trial_type": "audio-test", "responses": ["ocean"], "internal_node_id": "0.0-2.0", "time_elapsed": 9232, "type": "AUDIO_TEST", "trial_index": 2}, "uniqueid": "MTK2311:39ZSFO5CA93RYWYETDNU37N8MPKUJJ", "dateTime": 1516985530557}, {"current_trial": 3, "trialdata": {"rt": [4073], "trial_type": "audio-test", "responses": ["crystal"], "internal_node_id": "0.0-3.0", "time_elapsed": 13312, "type": "AUDIO_TEST", "trial_index": 3}, "uniqueid": "MTK2311:39ZSFO5CA93RYWYETDNU37N8MPKUJJ", "dateTime": 1516985534637}, {"current_trial": 4, "trialdata": {"rt": [3841], "trial_type": "audio-test", "responses": ["spice"], "internal_node_id": "0.0-4.0", "time_elapsed": 17160, "type": "AUDIO_TEST", "trial_index": 4}, "uniqueid": "MTK2311:39ZSFO5CA93RYWYETDNU37N8MPKUJJ", "dateTime": 1516985538485}, {"current_trial": 5, "trialdata": {"rt": 9111, "trial_type": "survey-text", "responses": "{\"Q0\":\"1am\",\"Q1\":\"7:30am\",\"Q2\":\"4\"}", "internal_node_id": "0.0-5.0", "time_elapsed": 27024, "type": "SLEEP_SURVEY", "trial_index": 5}, "uniqueid": "MTK2311:39ZSFO5CA93RYWYETDNU37N8MPKUJJ", "dateTime": 1516985548349}, {"current_trial": 6, "trialdata": {"rt": 10524, "trial_type": "text", "internal_node_id": "0.0-6.0", "time_elapsed": 38549, "key_press": 13, "type": "INSTRUCTIONS", "trial_index": 6}, "uniqueid": "MTK2311:39ZSFO5CA93RYWYETDNU37N8MPKUJJ", "dateTime": 1516985559874}, {"current_trial": 7, "trialdata": {"rt": 2119, "trial_type": "text", "internal_node_id": "0.0-7.0", "time_elapsed": 41172, "key_press": 13, "type": "INSTRUCTIONS", "trial_index": 7}, "uniqueid": "MTK2311:39ZSFO5CA93RYWYETDNU37N8MPKUJJ", "dateTime": 1516985562497}, {"current_trial": 8, "trialdata": {"rt": 907, "trial_type": "text", "internal_node_id": "0.0-8.0", "time_elapsed": 42580, "key_press": 13, "type": "INSTRUCTIONS", "trial_index": 8}, "uniqueid": "MTK2311:39ZSFO5CA93RYWYETDNU37N8MPKUJJ", "dateTime": 1516985563905}, {"current_trial": 9, "trialdata": {"rt": [1930, 3931, 6035, 8298, 9514, 10754, 13226, 14394, 16202, 17826], "trial_type": "math-distractor", "key_times": [1731, 1795, 1930, 3723, 3795, 3931, 5867, 5939, 6035, 7978, 8139, 8298, 9275, 9418, 9514, 10531, 10587, 10754, 12923, 13002, 13226, 14234, 14394, 15899, 16010, 16202, 17570, 17658, 17826], "responses": ["10", "16", "20", "17", "11", "15", "12", "8", "18", "16"], "num2": [2, 5, 8, 6, 6, 6, 3, 4, 4, 6, 1], "num3": [1, 2, 8, 4, 4, 3, 5, 3, 8, 1, 3], "conditions": [18, 1200, "a", 18000], "internal_node_id": "0.0-9.0", "key_presses": [97, 96, 13, 97, 102, 13, 98, 96, 13, 97, 103, 13, 97, 97, 13, 97, 101, 13, 97, 98, 13, 104, 13, 97, 104, 13, 97, 102, 13], "trial": 0, "time_elapsed": 61587, "type": "DISTRACTOR", "trial_index": 9, "num1": [7, 9, 4, 7, 1, 6, 4, 1, 6, 9, 6]}, "uniqueid": "MTK2311:39ZSFO5CA93RYWYETDNU37N8MPKUJJ", "dateTime": 1516985582912}, {"current_trial": 10, "trialdata": {"rt": -1, "trial_type": "single-stim", "stimulus": "<p id=\"stim\">10</p>", "internal_node_id": "0.0-10.0-0.0", "time_elapsed": 64591, "key_press": -1, "trial_index": 10}, "uniqueid": "MTK2311:39ZSFO5CA93RYWYETDNU37N8MPKUJJ", "dateTime": 1516985585916}, {"current_trial": 11, "trialdata": {"rt": -1, "trial_type": "single-stim", "stimulus": "<p id=\"stim\">9</p>", "internal_node_id": "0.0-10.0-1.0", "time_elapsed": 65592, "key_press": -1, "trial_index": 11}, "uniqueid": "MTK2311:39ZSFO5CA93RYWYETDNU37N8MPKUJJ", "dateTime": 1516985586918}, {"current_trial": 12, "trialdata": {"rt": -1, "trial_type": "single-stim", "stimulus": "<p id=\"stim\">8</p>", "internal_node_id": "0.0-10.0-2.0", "time_elapsed": 66593, "key_press": -1, "trial_index": 12}, "uniqueid": "MTK2311:39ZSFO5CA93RYWYETDNU37N8MPKUJJ", "dateTime": 1516985587918}, {"current_trial": 13, "trialdata": {"rt": -1, "trial_type": "single-stim", "stimulus": "<p id=\"stim\">7</p>", "internal_node_id": "0.0-10.0-3.0", "time_elapsed": 67595, "key_press": -1, "trial_index": 13}, "uniqueid": "MTK2311:39ZSFO5CA93RYWYETDNU37N8MPKUJJ", "dateTime": 1516985588920}, {"current_trial": 14, "trialdata": {"rt": -1, "trial_type": "single-stim", "stimulus": "<p id=\"stim\">6</p>", "internal_node_id": "0.0-10.0-4.0", "time_elapsed": 68596, "key_press": -1, "trial_index": 14}, "uniqueid": "MTK2311:39ZSFO5CA93RYWYETDNU37N8MPKUJJ", "dateTime": 1516985589921}, {"current_trial": 15, "trialdata": {"rt": -1, "trial_type": "single-stim", "stimulus": "<p id=\"stim\">5</p>", "internal_node_id": "0.0-10.0-5.0", "time_elapsed": 69602, "key_press": -1, "trial_index": 15}, "uniqueid": "MTK2311:39ZSFO5CA93RYWYETDNU37N8MPKUJJ", "dateTime": 1516985590927}, {"current_trial": 16, "trialdata": {"rt": -1, "trial_type": "single-stim", "stimulus": "<p id=\"stim\">4</p>", "internal_node_id": "0.0-10.0-6.0", "time_elapsed": 70603, "key_press": -1, "trial_index": 16}, "uniqueid": "MTK2311:39ZSFO5CA93RYWYETDNU37N8MPKUJJ", "dateTime": 1516985591928}, {"current_trial": 17, "trialdata": {"rt": -1, "trial_type": "single-stim", "stimulus": "<p id=\"stim\">3</p>", "internal_node_id": "0.0-10.0-7.0", "time_elapsed": 71605, "key_press": -1, "trial_index": 17}, "uniqueid": "MTK2311:39ZSFO5CA93RYWYETDNU37N8MPKUJJ", "dateTime": 1516985592930}, {"current_trial": 18, "trialdata": {"rt": -1, "trial_type": "single-stim", "stimulus": "<p id=\"stim\">2</p>", "internal_node_id": "0.0-10.0-8.0", "time_elapsed": 72606, "key_press": -1, "trial_index": 18}, "uniqueid": "MTK2311:39ZSFO5CA93RYWYETDNU37N8MPKUJJ", "dateTime": 1516985593931}, {"current_trial": 19, "trialdata": {"rt": -1, "trial_type": "single-stim", "stimulus": "<p id=\"stim\">1</p>", "internal_node_id": "0.0-10.0-9.0", "time_elapsed": 73608, "key_press": -1, "trial_index": 19}, "uniqueid": "MTK2311:39ZSFO5CA93RYWYETDNU37N8MPKUJJ", "dateTime": 1516985594933}, {"current_trial": 20, "trialdata": {"rt": -1, "trial_type": "single-stim", "stimulus": "<p id=\"stim\">+</p>", "internal_node_id": "0.0-11.0-0.0", "time_elapsed": 75113, "key_press": -1, "type": "FIXATION", "trial_index": 20}, "uniqueid": "MTK2311:39ZSFO5CA93RYWYETDNU37N8MPKUJJ", "dateTime": 1516985596438}, {"current_trial": 21, "trialdata": {"rt": -1000, "trial_type": "single-audio", "word": "wrench", "stimulus": "/static/audio/wordpool/WRENCH.wav", "conditions": [18, 1200, "a", 18000], "internal_node_id": "0.0-12.0", "trial": 0, "time_elapsed": 77384, "serialpos": 0, "key_press": -1, "wordID": 1624, "type": "PRES_AUD", "trial_index": 21}, "uniqueid": "MTK2311:39ZSFO5CA93RYWYETDNU37N8MPKUJJ", "dateTime": 1516985598710}, {"current_trial": 22, "trialdata": {"rt": -1000, "trial_type": "single-audio", "word": "leopard", "stimulus": "/static/audio/wordpool/LEOPARD.wav", "conditions": [18, 1200, "a", 18000], "internal_node_id": "0.0-13.0", "trial": 0, "time_elapsed": 79391, "serialpos": 1, "key_press": -1, "wordID": 811, "type": "PRES_AUD", "trial_index": 22}, "uniqueid": "MTK2311:39ZSFO5CA93RYWYETDNU37N8MPKUJJ", "dateTime": 1516985600716}, {"current_trial": 23, "trialdata": {"rt": -1000, "trial_type": "single-audio", "word": "postage", "stimulus": "/static/audio/wordpool/POSTAGE.wav", "conditions": [18, 1200, "a", 18000], "internal_node_id": "0.0-14.0", "trial": 0, "time_elapsed": 81597, "serialpos": 2, "key_press": -1, "wordID": 1112, "type": "PRES_AUD", "trial_index": 23}, "uniqueid": "MTK2311:39ZSFO5CA93RYWYETDNU37N8MPKUJJ", "dateTime": 1516985602922}, {"current_trial": 24, "trialdata": {"rt": -1000, "trial_type": "single-audio", "word": "plaza", "stimulus": "/static/audio/wordpool/PLAZA.wav", "conditions": [18, 1200, "a", 18000], "internal_node_id": "0.0-15.0", "trial": 0, "time_elapsed": 83776, "serialpos": 3, "key_press": -1, "wordID": 1087, "type": "PRES_AUD", "trial_index": 24}, "uniqueid": "MTK2311:39ZSFO5CA93RYWYETDNU37N8MPKUJJ", "dateTime": 1516985605101}, {"current_trial": 25, "trialdata": {"rt": -1000, "trial_type": "single-audio", "word": "orange", "stimulus": "/static/audio/wordpool/ORANGE.wav", "conditions": [18, 1200, "a", 18000], "internal_node_id": "0.0-16.0", "trial": 0, "time_elapsed": 85904, "serialpos": 4, "key_press": -1, "wordID": 979, "type": "PRES_AUD", "trial_index": 25}, "uniqueid": "MTK2311:39ZSFO5CA93RYWYETDNU37N8MPKUJJ", "dateTime": 1516985607229}, {"current_trial": 26, "trialdata": {"rt": -1000, "trial_type": "single-audio", "word": "subway", "stimulus": "/static/audio/wordpool/SUBWAY.wav", "conditions": [18, 1200, "a", 18000], "internal_node_id": "0.0-17.0", "trial": 0, "time_elapsed": 88198, "serialpos": 5, "key_press": -1, "wordID": 1399, "type": "PRES_AUD", "trial_index": 26}, "uniqueid": "MTK2311:39ZSFO5CA93RYWYETDNU37N8MPKUJJ", "dateTime": 1516985609523}, {"current_trial": 27, "trialdata": {"rt": -1000, "trial_type": "single-audio", "word": "pimple", "stimulus": "/static/audio/wordpool/PIMPLE.wav", "conditions": [18, 1200, "a", 18000], "internal_node_id": "0.0-18.0", "trial": 0, "time_elapsed": 90583, "serialpos": 6, "key_press": -1, "wordID": 1070, "type": "PRES_AUD", "trial_index": 27}, "uniqueid": "MTK2311:39ZSFO5CA93RYWYETDNU37N8MPKUJJ", "dateTime": 1516985611908}, {"current_trial": 28, "trialdata": {"rt": -1000, "trial_type": "single-audio", "word": "crater", "stimulus": "/static/audio/wordpool/CRATER.wav", "conditions": [18, 1200, "a", 18000], "internal_node_id": "0.0-19.0", "trial": 0, "time_elapsed": 92609, "serialpos": 7, "key_press": -1, "wordID": 399, "type": "PRES_AUD", "trial_index": 28}, "uniqueid": "MTK2311:39ZSFO5CA93RYWYETDNU37N8MPKUJJ", "dateTime": 1516985613934}, {"current_trial": 29, "trialdata": {"rt": -1000, "trial_type": "single-audio", "word": "radish", "stimulus": "/static/audio/wordpool/RADISH.wav", "conditions": [18, 1200, "a", 18000], "internal_node_id": "0.0-20.0", "trial": 0, "time_elapsed": 94856, "serialpos": 8, "key_press": -1, "wordID": 1157, "type": "PRES_AUD", "trial_index": 29}, "uniqueid": "MTK2311:39ZSFO5CA93RYWYETDNU37N8MPKUJJ", "dateTime": 1516985616181}, {"current_trial": 30, "trialdata": {"rt": -1000, "trial_type": "single-audio", "word": "cookbook", "stimulus": "/static/audio/wordpool/COOKBOOK.wav", "conditions": [18, 1200, "a", 18000], "internal_node_id": "0.0-21.0", "trial": 0, "time_elapsed": 97205, "serialpos": 9, "key_press": -1, "wordID": 372, "type": "PRES_AUD", "trial_index": 30}, "uniqueid": "MTK2311:39ZSFO5CA93RYWYETDNU37N8MPKUJJ", "dateTime": 1516985618530}, {"current_trial": 31, "trialdata": {"rt": -1000, "trial_type": "single-audio", "word": "tunnel", "stimulus": "/static/audio/wordpool/TUNNEL.wav", "conditions": [18, 1200, "a", 18000], "internal_node_id": "0.0-22.0", "trial": 0, "time_elapsed": 99496, "serialpos": 10, "key_press": -1, "wordID": 1518, "type": "PRES_AUD", "trial_index": 31}, "uniqueid": "MTK2311:39ZSFO5CA93RYWYETDNU37N8MPKUJJ", "dateTime": 1516985620821}, {"current_trial": 32, "trialdata": {"rt": -1000, "trial_type": "single-audio", "word": "asia", "stimulus": "/static/audio/wordpool/ASIA.wav", "conditions": [18, 1200, "a", 18000], "internal_node_id": "0.0-23.0", "trial": 0, "time_elapsed": 101874, "serialpos": 11, "key_press": -1, "wordID": 45, "type": "PRES_AUD", "trial_index": 32}, "uniqueid": "MTK2311:39ZSFO5CA93RYWYETDNU37N8MPKUJJ", "dateTime": 1516985623199}, {"current_trial": 33, "trialdata": {"rt": -1000, "trial_type": "single-audio", "word": "brother", "stimulus": "/static/audio/wordpool/BROTHER.wav", "conditions": [18, 1200, "a", 18000], "internal_node_id": "0.0-24.0", "trial": 0, "time_elapsed": 104253, "serialpos": 12, "key_press": -1, "wordID": 178, "type": "PRES_AUD", "trial_index": 33}, "uniqueid": "MTK2311:39ZSFO5CA93RYWYETDNU37N8MPKUJJ", "dateTime": 1516985625578}, {"current_trial": 34, "trialdata": {"rt": -1000, "trial_type": "single-audio", "word": "softball", "stimulus": "/static/audio/wordpool/SOFTBALL.wav", "conditions": [18, 1200, "a", 18000], "internal_node_id": "0.0-25.0", "trial": 0, "time_elapsed": 106571, "serialpos": 13, "key_press": -1, "wordID": 1342, "type": "PRES_AUD", "trial_index": 34}, "uniqueid": "MTK2311:39ZSFO5CA93RYWYETDNU37N8MPKUJJ", "dateTime": 1516985627896}, {"current_trial": 35, "trialdata": {"rt": -1000, "trial_type": "single-audio", "word": "cabin", "stimulus": "/static/audio/wordpool/CABIN.wav", "conditions": [18, 1200, "a", 18000], "internal_node_id": "0.0-26.0", "trial": 0, "time_elapsed": 108578, "serialpos": 14, "key_press": -1, "wordID": 210, "type": "PRES_AUD", "trial_index": 35}, "uniqueid": "MTK2311:39ZSFO5CA93RYWYETDNU37N8MPKUJJ", "dateTime": 1516985629903}, {"current_trial": 36, "trialdata": {"rt": -1000, "trial_type": "single-audio", "word": "creature", "stimulus": "/static/audio/wordpool/CREATURE.wav", "conditions": [18, 1200, "a", 18000], "internal_node_id": "0.0-27.0", "trial": 0, "time_elapsed": 110631, "serialpos": 15, "key_press": -1, "wordID": 402, "type": "PRES_AUD", "trial_index": 36}, "uniqueid": "MTK2311:39ZSFO5CA93RYWYETDNU37N8MPKUJJ", "dateTime": 1516985631956}, {"current_trial": 37, "trialdata": {"rt": -1000, "trial_type": "single-audio", "word": "guitar", "stimulus": "/static/audio/wordpool/GUITAR.wav", "conditions": [18, 1200, "a", 18000], "internal_node_id": "0.0-28.0", "trial": 0, "time_elapsed": 113005, "serialpos": 16, "key_press": -1, "wordID": 669, "type": "PRES_AUD", "trial_index": 37}, "uniqueid": "MTK2311:39ZSFO5CA93RYWYETDNU37N8MPKUJJ", "dateTime": 1516985634330}, {"current_trial": 38, "trialdata": {"rt": -1000, "trial_type": "single-audio", "word": "lodge", "stimulus": "/static/audio/wordpool/LODGE.wav", "conditions": [18, 1200, "a", 18000], "internal_node_id": "0.0-29.0", "trial": 0, "time_elapsed": 115027, "serialpos": 17, "key_press": -1, "wordID": 838, "type": "PRES_AUD", "trial_index": 38}, "uniqueid": "MTK2311:39ZSFO5CA93RYWYETDNU37N8MPKUJJ", "dateTime": 1516985636352}, {"current_trial": 39, "trialdata": {"rt": -1, "trial_type": "single-stim", "stimulus": "", "internal_node_id": "0.0-30.0-0.0", "time_elapsed": 116374, "key_press": -1, "type": "PRE_RECALL_DELAY", "trial_index": 39}, "uniqueid": "MTK2311:39ZSFO5CA93RYWYETDNU37N8MPKUJJ", "dateTime": 1516985637699}, {"current_trial": 40, "trialdata": {"rt": -1000, "trial_type": "single-audio", "stimulus": "/static/audio/400Hz.wav", "internal_node_id": "0.0-31.0", "time_elapsed": 116876, "key_press": -1, "type": "PRE_RECALL_ALERT", "trial_index": 40}, "uniqueid": "MTK2311:39ZSFO5CA93RYWYETDNU37N8MPKUJJ", "dateTime": 1516985638201}, {"current_trial": 41, "trialdata": {"rt": [2266, 3834, 5706, 8810, 11938, 18922], "recwords": ["lodge", "asia", "creature", "leopard", "crunch", "table"], "key_times": [1570, 1698, 1819, 1994, 2114, 2266, 2794, 3442, 3554, 3674, 3834, 4514, 4706, 4858, 5027, 5219, 5386, 5514, 5594, 5706, 7666, 7754, 7930, 8138, 8274, 8338, 8618, 8810, 11043, 11210, 11306, 11522, 11650, 11741, 11938, 18178, 18330, 18490, 18650, 18786, 18922], "trial_type": "free-recall", "conditions": [18, 1200, "a", 18000], "internal_node_id": "0.0-32.0-0.0", "key_presses": [76, 79, 68, 71, 69, 13, 65, 83, 73, 65, 13, 67, 82, 69, 65, 84, 85, 82, 69, 13, 76, 69, 79, 80, 65, 82, 68, 13, 67, 82, 85, 78, 67, 72, 13, 84, 65, 66, 76, 69, 13], "trial": 0, "time_elapsed": 176878, "type": "FREE_RECALL", "trial_index": 41}, "uniqueid": "MTK2311:39ZSFO5CA93RYWYETDNU37N8MPKUJJ", "dateTime": 1516985698205}, {"current_trial": 42, "trialdata": {"rt": 755, "trial_type": "text", "internal_node_id": "0.0-33.0", "time_elapsed": 179636, "key_press": 32, "type": "INSTRUCTIONS", "trial_index": 42}, "uniqueid": "MTK2311:39ZSFO5CA93RYWYETDNU37N8MPKUJJ", "dateTime": 1516985700961}, {"current_trial": 43, "trialdata": {"rt": [1798, 3846, 6806, 8214, 9638, 12263, 13518, 17038], "trial_type": "math-distractor", "key_times": [1614, 1686, 1798, 3639, 3766, 3846, 6542, 6718, 6806, 7926, 8021, 8214, 9479, 9574, 9638, 10942, 10982, 11798, 12094, 12263, 13238, 13406, 13518, 15822, 15974, 17038], "responses": ["16", "22", "22", "18", "16", "14", "12", "21"], "num2": [9, 5, 5, 1, 2, 3, 6, 5, 6], "num3": [1, 9, 8, 8, 6, 5, 5, 8, 3], "conditions": [18, 1200, "a", 18000], "internal_node_id": "0.0-34.0", "key_presses": [97, 102, 13, 98, 98, 13, 98, 98, 13, 97, 104, 13, 97, 102, 13, 97, 101, 8, 100, 13, 97, 98, 13, 98, 97, 13], "trial": 1, "time_elapsed": 199639, "type": "DISTRACTOR", "trial_index": 43, "num1": [6, 8, 9, 9, 8, 6, 1, 7, 7]}, "uniqueid": "MTK2311:39ZSFO5CA93RYWYETDNU37N8MPKUJJ", "dateTime": 1516985720964}, {"current_trial": 44, "trialdata": {"rt": -1, "trial_type": "single-stim", "stimulus": "<p id=\"stim\">10</p>", "internal_node_id": "0.0-35.0-0.0", "time_elapsed": 202644, "key_press": -1, "trial_index": 44}, "uniqueid": "MTK2311:39ZSFO5CA93RYWYETDNU37N8MPKUJJ", "dateTime": 1516985723969}, {"current_trial": 45, "trialdata": {"rt": -1, "trial_type": "single-stim", "stimulus": "<p id=\"stim\">9</p>", "internal_node_id": "0.0-35.0-1.0", "time_elapsed": 203645, "key_press": -1, "trial_index": 45}, "uniqueid": "MTK2311:39ZSFO5CA93RYWYETDNU37N8MPKUJJ", "dateTime": 1516985724970}, {"current_trial": 46, "trialdata": {"rt": -1, "trial_type": "single-stim", "stimulus": "<p id=\"stim\">8</p>", "internal_node_id": "0.0-35.0-2.0", "time_elapsed": 204650, "key_press": -1, "trial_index": 46}, "uniqueid": "MTK2311:39ZSFO5CA93RYWYETDNU37N8MPKUJJ", "dateTime": 1516985725975}, {"current_trial": 47, "trialdata": {"rt": -1, "trial_type": "single-stim", "stimulus": "<p id=\"stim\">7</p>", "internal_node_id": "0.0-35.0-3.0", "time_elapsed": 205651, "key_press": -1, "trial_index": 47}, "uniqueid": "MTK2311:39ZSFO5CA93RYWYETDNU37N8MPKUJJ", "dateTime": 1516985726976}, {"current_trial": 48, "trialdata": {"rt": -1, "trial_type": "single-stim", "stimulus": "<p id=\"stim\">6</p>", "internal_node_id": "0.0-35.0-4.0", "time_elapsed": 206652, "key_press": -1, "trial_index": 48}, "uniqueid": "MTK2311:39ZSFO5CA93RYWYETDNU37N8MPKUJJ", "dateTime": 1516985727977}, {"current_trial": 49, "trialdata": {"rt": -1, "trial_type": "single-stim", "stimulus": "<p id=\"stim\">5</p>", "internal_node_id": "0.0-35.0-5.0", "time_elapsed": 207654, "key_press": -1, "trial_index": 49}, "uniqueid": "MTK2311:39ZSFO5CA93RYWYETDNU37N8MPKUJJ", "dateTime": 1516985728979}, {"current_trial": 50, "trialdata": {"rt": -1, "trial_type": "single-stim", "stimulus": "<p id=\"stim\">4</p>", "internal_node_id": "0.0-35.0-6.0", "time_elapsed": 208654, "key_press": -1, "trial_index": 50}, "uniqueid": "MTK2311:39ZSFO5CA93RYWYETDNU37N8MPKUJJ", "dateTime": 1516985729979}, {"current_trial": 51, "trialdata": {"rt": -1, "trial_type": "single-stim", "stimulus": "<p id=\"stim\">3</p>", "internal_node_id": "0.0-35.0-7.0", "time_elapsed": 209655, "key_press": -1, "trial_index": 51}, "uniqueid": "MTK2311:39ZSFO5CA93RYWYETDNU37N8MPKUJJ", "dateTime": 1516985730980}, {"current_trial": 52, "trialdata": {"rt": -1, "trial_type": "single-stim", "stimulus": "<p id=\"stim\">2</p>", "internal_node_id": "0.0-35.0-8.0", "time_elapsed": 210653, "key_press": -1, "trial_index": 52}, "uniqueid": "MTK2311:39ZSFO5CA93RYWYETDNU37N8MPKUJJ", "dateTime": 1516985731978}, {"current_trial": 53, "trialdata": {"rt": -1, "trial_type": "single-stim", "stimulus": "<p id=\"stim\">1</p>", "internal_node_id": "0.0-35.0-9.0", "time_elapsed": 211654, "key_press": -1, "trial_index": 53}, "uniqueid": "MTK2311:39ZSFO5CA93RYWYETDNU37N8MPKUJJ", "dateTime": 1516985732980}, {"current_trial": 54, "trialdata": {"rt": -1, "trial_type": "single-stim", "stimulus": "<p id=\"stim\">+</p>", "internal_node_id": "0.0-36.0-0.0", "time_elapsed": 213156, "key_press": -1, "type": "FIXATION", "trial_index": 54}, "uniqueid": "MTK2311:39ZSFO5CA93RYWYETDNU37N8MPKUJJ", "dateTime": 1516985734481}, {"current_trial": 55, "trialdata": {"rt": -1000, "trial_type": "single-audio", "word": "viking", "stimulus": "/static/audio/wordpool/VIKING.wav", "conditions": [18, 1200, "a", 18000], "internal_node_id": "0.0-37.0", "trial": 1, "time_elapsed": 215463, "serialpos": 0, "key_press": -1, "wordID": 1564, "type": "PRES_AUD", "trial_index": 55}, "uniqueid": "MTK2311:39ZSFO5CA93RYWYETDNU37N8MPKUJJ", "dateTime": 1516985736788}, {"current_trial": 56, "trialdata": {"rt": -1000, "trial_type": "single-audio", "word": "pebble", "stimulus": "/static/audio/wordpool/PEBBLE.wav", "conditions": [18, 1200, "a", 18000], "internal_node_id": "0.0-38.0", "trial": 1, "time_elapsed": 217536, "serialpos": 1, "key_press": -1, "wordID": 1034, "type": "PRES_AUD", "trial_index": 56}, "uniqueid": "MTK2311:39ZSFO5CA93RYWYETDNU37N8MPKUJJ", "dateTime": 1516985738861}, {"current_trial": 57, "trialdata": {"rt": -1000, "trial_type": "single-audio", "word": "baby", "stimulus": "/static/audio/wordpool/BABY.wav", "conditions": [18, 1200, "a", 18000], "internal_node_id": "0.0-39.0", "trial": 1, "time_elapsed": 219714, "serialpos": 2, "key_press": -1, "wordID": 63, "type": "PRES_AUD", "trial_index": 57}, "uniqueid": "MTK2311:39ZSFO5CA93RYWYETDNU37N8MPKUJJ", "dateTime": 1516985741039}, {"current_trial": 58, "trialdata": {"rt": -1000, "trial_type": "single-audio", "word": "kitchen", "stimulus": "/static/audio/wordpool/KITCHEN.wav", "conditions": [18, 1200, "a", 18000], "internal_node_id": "0.0-40.0", "trial": 1, "time_elapsed": 221878, "serialpos": 3, "key_press": -1, "wordID": 777, "type": "PRES_AUD", "trial_index": 58}, "uniqueid": "MTK2311:39ZSFO5CA93RYWYETDNU37N8MPKUJJ", "dateTime": 1516985743203}, {"current_trial": 59, "trialdata": {"rt": -1000, "trial_type": "single-audio", "word": "portrait", "stimulus": "/static/audio/wordpool/PORTRAIT.wav", "conditions": [18, 1200, "a", 18000], "internal_node_id": "0.0-41.0", "trial": 1, "time_elapsed": 224275, "serialpos": 4, "key_press": -1, "wordID": 1110, "type": "PRES_AUD", "trial_index": 59}, "uniqueid": "MTK2311:39ZSFO5CA93RYWYETDNU37N8MPKUJJ", "dateTime": 1516985745600}, {"current_trial": 60, "trialdata": {"rt": -1000, "trial_type": "single-audio", "word": "journal", "stimulus": "/static/audio/wordpool/JOURNAL.wav", "conditions": [18, 1200, "a", 18000], "internal_node_id": "0.0-42.0", "trial": 1, "time_elapsed": 226580, "serialpos": 5, "key_press": -1, "wordID": 759, "type": "PRES_AUD", "trial_index": 60}, "uniqueid": "MTK2311:39ZSFO5CA93RYWYETDNU37N8MPKUJJ", "dateTime": 1516985747905}, {"current_trial": 61, "trialdata": {"rt": -1000, "trial_type": "single-audio", "word": "breast", "stimulus": "/static/audio/wordpool/BREAST.wav", "conditions": [18, 1200, "a", 18000], "internal_node_id": "0.0-43.0", "trial": 1, "time_elapsed": 228761, "serialpos": 6, "key_press": -1, "wordID": 170, "type": "PRES_AUD", "trial_index": 61}, "uniqueid": "MTK2311:39ZSFO5CA93RYWYETDNU37N8MPKUJJ", "dateTime": 1516985750086}, {"current_trial": 62, "trialdata": {"rt": -1000, "trial_type": "single-audio", "word": "airplane", "stimulus": "/static/audio/wordpool/AIRPLANE.wav", "conditions": [18, 1200, "a", 18000], "internal_node_id": "0.0-44.0", "trial": 1, "time_elapsed": 230822, "serialpos": 7, "key_press": -1, "wordID": 11, "type": "PRES_AUD", "trial_index": 62}, "uniqueid": "MTK2311:39ZSFO5CA93RYWYETDNU37N8MPKUJJ", "dateTime": 1516985752147}, {"current_trial": 63, "trialdata": {"rt": -1000, "trial_type": "single-audio", "word": "preacher", "stimulus": "/static/audio/wordpool/PREACHER.wav", "conditions": [18, 1200, "a", 18000], "internal_node_id": "0.0-45.0", "trial": 1, "time_elapsed": 232888, "serialpos": 8, "key_press": -1, "wordID": 1118, "type": "PRES_AUD", "trial_index": 63}, "uniqueid": "MTK2311:39ZSFO5CA93RYWYETDNU37N8MPKUJJ", "dateTime": 1516985754213}, {"current_trial": 64, "trialdata": {"rt": -1000, "trial_type": "single-audio", "word": "champagne", "stimulus": "/static/audio/wordpool/CHAMPAGNE.wav", "conditions": [18, 1200, "a", 18000], "internal_node_id": "0.0-46.0", "trial": 1, "time_elapsed": 235016, "serialpos": 9, "key_press": -1, "wordID": 277, "type": "PRES_AUD", "trial_index": 64}, "uniqueid": "MTK2311:39ZSFO5CA93RYWYETDNU37N8MPKUJJ", "dateTime": 1516985756341}, {"current_trial": 65, "trialdata": {"rt": -1000, "trial_type": "single-audio", "word": "washer", "stimulus": "/static/audio/wordpool/WASHER.wav", "conditions": [18, 1200, "a", 18000], "internal_node_id": "0.0-47.0", "trial": 1, "time_elapsed": 237178, "serialpos": 10, "key_press": -1, "wordID": 1591, "type": "PRES_AUD", "trial_index": 65}, "uniqueid": "MTK2311:39ZSFO5CA93RYWYETDNU37N8MPKUJJ", "dateTime": 1516985758503}, {"current_trial": 66, "trialdata": {"rt": -1000, "trial_type": "single-audio", "word": "grill", "stimulus": "/static/audio/wordpool/GRILL.wav", "conditions": [18, 1200, "a", 18000], "internal_node_id": "0.0-48.0", "trial": 1, "time_elapsed": 239520, "serialpos": 11, "key_press": -1, "wordID": 660, "type": "PRES_AUD", "trial_index": 66}, "uniqueid": "MTK2311:39ZSFO5CA93RYWYETDNU37N8MPKUJJ", "dateTime": 1516985760845}, {"current_trial": 67, "trialdata": {"rt": -1000, "trial_type": "single-audio", "word": "branch", "stimulus": "/static/audio/wordpool/BRANCH.wav", "conditions": [18, 1200, "a", 18000], "internal_node_id": "0.0-49.0", "trial": 1, "time_elapsed": 241752, "serialpos": 12, "key_press": -1, "wordID": 167, "type": "PRES_AUD", "trial_index": 67}, "uniqueid": "MTK2311:39ZSFO5CA93RYWYETDNU37N8MPKUJJ", "dateTime": 1516985763077}, {"current_trial": 68, "trialdata": {"rt": -1000, "trial_type": "single-audio", "word": "cellar", "stimulus": "/static/audio/wordpool/CELLAR.wav", "conditions": [18, 1200, "a", 18000], "internal_node_id": "0.0-50.0", "trial": 1, "time_elapsed": 244016, "serialpos": 13, "key_press": -1, "wordID": 266, "type": "PRES_AUD", "trial_index": 68}, "uniqueid": "MTK2311:39ZSFO5CA93RYWYETDNU37N8MPKUJJ", "dateTime": 1516985765353}, {"current_trial": 69, "trialdata": {"rt": -1000, "trial_type": "single-audio", "word": "marker", "stimulus": "/static/audio/wordpool/MARKER.wav", "conditions": [18, 1200, "a", 18000], "internal_node_id": "0.0-51.0", "trial": 1, "time_elapsed": 246352, "serialpos": 14, "key_press": -1, "wordID": 869, "type": "PRES_AUD", "trial_index": 69}, "uniqueid": "MTK2311:39ZSFO5CA93RYWYETDNU37N8MPKUJJ", "dateTime": 1516985767677}, {"current_trial": 70, "trialdata": {"rt": -1000, "trial_type": "single-audio", "word": "jello", "stimulus": "/static/audio/wordpool/JELLO.wav", "conditions": [18, 1200, "a", 18000], "internal_node_id": "0.0-52.0", "trial": 1, "time_elapsed": 248504, "serialpos": 15, "key_press": -1, "wordID": 753, "type": "PRES_AUD", "trial_index": 70}, "uniqueid": "MTK2311:39ZSFO5CA93RYWYETDNU37N8MPKUJJ", "dateTime": 1516985769830}, {"current_trial": 71, "trialdata": {"rt": -1000, "trial_type": "single-audio", "word": "husband", "stimulus": "/static/audio/wordpool/HUSBAND.wav", "conditions": [18, 1200, "a", 18000], "internal_node_id": "0.0-53.0", "trial": 1, "time_elapsed": 250795, "serialpos": 16, "key_press": -1, "wordID": 727, "type": "PRES_AUD", "trial_index": 71}, "uniqueid": "MTK2311:39ZSFO5CA93RYWYETDNU37N8MPKUJJ", "dateTime": 1516985772120}, {"current_trial": 72, "trialdata": {"rt": -1000, "trial_type": "single-audio", "word": "cottage", "stimulus": "/static/audio/wordpool/COTTAGE.wav", "conditions": [18, 1200, "a", 18000], "internal_node_id": "0.0-54.0", "trial": 1, "time_elapsed": 253177, "serialpos": 17, "key_press": -1, "wordID": 383, "type": "PRES_AUD", "trial_index": 72}, "uniqueid": "MTK2311:39ZSFO5CA93RYWYETDNU37N8MPKUJJ", "dateTime": 1516985774502}, {"current_trial": 73, "trialdata": {"rt": -1, "trial_type": "single-stim", "stimulus": "", "internal_node_id": "0.0-55.0-0.0", "time_elapsed": 254446, "key_press": -1, "type": "PRE_RECALL_DELAY", "trial_index": 73}, "uniqueid": "MTK2311:39ZSFO5CA93RYWYETDNU37N8MPKUJJ", "dateTime": 1516985775771}, {"current_trial": 74, "trialdata": {"rt": -1000, "trial_type": "single-audio", "stimulus": "/static/audio/400Hz.wav", "internal_node_id": "0.0-56.0", "time_elapsed": 254947, "key_press": -1, "type": "PRE_RECALL_ALERT", "trial_index": 74}, "uniqueid": "MTK2311:39ZSFO5CA93RYWYETDNU37N8MPKUJJ", "dateTime": 1516985776272}], "currenttrial": 75, "condition": 1, "mode": "live"}