{"assignmentId": "36U2A8VAG263QPO1LZKV77TYYUUKYQ", "workerId": "MTK2612", "questiondata": {"avail_screen_height": 1040, "color_depth": 24, "screen_width": 1920, "pixel_depth": 24, "avail_screen_width": 1920, "screen_height": 1080}, "bonus": 0, "hitId": "3R4QIDVOJPJ0B0H6ZASWDPSTCFZEEK", "counterbalance": 1640, "useragent": "Mozilla/5.0 (Windows NT 6.1; Win64; x64) AppleWebKit/537.36 (KHTML, like Gecko) Chrome/64.0.3282.167 Safari/537.36", "eventdata": [{"eventtype": "initialized", "interval": 0, "value": null, "timestamp": 1519156187416}, {"eventtype": "window_resize", "interval": 0, "value": [1920, 1034], "timestamp": 1519156187416}, {"eventtype": "window_resize", "interval": 9115, "value": [1778, 914], "timestamp": 1519156196531}, {"eventtype": "window_resize", "interval": 7903, "value": [1920, 990], "timestamp": 1519156204434}, {"eventtype": "focus", "interval": 1040908, "value": "off", "timestamp": 1519157245342}], "data": [{"current_trial": 0, "trialdata": {"rt": 11403, "trial_type": "text", "internal_node_id": "0.0-0.0", "time_elapsed": 11405, "key_press": 32, "type": "INSTRUCTIONS", "trial_index": 0}, "uniqueid": "MTK2612:36U2A8VAG263QPO1LZKV77TYYUUKYQ", "dateTime": 1519156199645}, {"current_trial": 1, "trialdata": {"rt": 48015, "trial_type": "text", "internal_node_id": "0.0-1.0", "time_elapsed": 59421, "key_press": 32, "type": "INSTRUCTIONS", "trial_index": 1}, "uniqueid": "MTK2612:36U2A8VAG263QPO1LZKV77TYYUUKYQ", "dateTime": 1519156247661}, {"current_trial": 2, "trialdata": {"rt": [5887], "trial_type": "audio-test", "responses": ["ocean"], "internal_node_id": "0.0-2.0", "time_elapsed": 65318, "type": "AUDIO_TEST", "trial_index": 2}, "uniqueid": "MTK2612:36U2A8VAG263QPO1LZKV77TYYUUKYQ", "dateTime": 1519156253558}, {"current_trial": 3, "trialdata": {"rt": [13587], "trial_type": "audio-test", "responses": ["crystal"], "internal_node_id": "0.0-3.0", "time_elapsed": 78910, "type": "AUDIO_TEST", "trial_index": 3}, "uniqueid": "MTK2612:36U2A8VAG263QPO1LZKV77TYYUUKYQ", "dateTime": 1519156267150}, {"current_trial": 4, "trialdata": {"rt": [8371], "trial_type": "audio-test", "responses": ["spice"], "internal_node_id": "0.0-4.0", "time_elapsed": 87284, "type": "AUDIO_TEST", "trial_index": 4}, "uniqueid": "MTK2612:36U2A8VAG263QPO1LZKV77TYYUUKYQ", "dateTime": 1519156275524}, {"current_trial": 5, "trialdata": {"rt": 32382, "trial_type": "survey-text", "responses": "{\"Q0\":\"11 pm\",\"Q1\":\"5 am\",\"Q2\":\"3\"}", "internal_node_id": "0.0-5.0", "time_elapsed": 120419, "type": "SLEEP_SURVEY", "trial_index": 5}, "uniqueid": "MTK2612:36U2A8VAG263QPO1LZKV77TYYUUKYQ", "dateTime": 1519156308659}, {"current_trial": 6, "trialdata": {"rt": 80134, "trial_type": "text", "internal_node_id": "0.0-6.0", "time_elapsed": 201556, "key_press": 32, "type": "INSTRUCTIONS", "trial_index": 6}, "uniqueid": "MTK2612:36U2A8VAG263QPO1LZKV77TYYUUKYQ", "dateTime": 1519156389796}, {"current_trial": 7, "trialdata": {"rt": 32619, "trial_type": "text", "internal_node_id": "0.0-7.0", "time_elapsed": 234677, "key_press": 32, "type": "INSTRUCTIONS", "trial_index": 7}, "uniqueid": "MTK2612:36U2A8VAG263QPO1LZKV77TYYUUKYQ", "dateTime": 1519156422917}, {"current_trial": 8, "trialdata": {"rt": 20706, "trial_type": "text", "internal_node_id": "0.0-8.0", "time_elapsed": 255884, "key_press": 32, "type": "INSTRUCTIONS", "trial_index": 8}, "uniqueid": "MTK2612:36U2A8VAG263QPO1LZKV77TYYUUKYQ", "dateTime": 1519156444124}, {"current_trial": 9, "trialdata": {"rt": [10349, 14565], "trial_type": "math-distractor", "key_times": [9694, 9973, 10349, 12637, 12909, 14565, 17613, 17845], "responses": ["25", "11"], "num2": [9, 2, 4], "num3": [8, 8, 6], "conditions": [18, 1200, "v", 18000], "internal_node_id": "0.0-9.0", "key_presses": [98, 101, 13, 97, 97, 13, 97, 100], "trial": 0, "time_elapsed": 274889, "type": "DISTRACTOR", "trial_index": 9, "num1": [8, 1, 4]}, "uniqueid": "MTK2612:36U2A8VAG263QPO1LZKV77TYYUUKYQ", "dateTime": 1519156463129}, {"current_trial": 10, "trialdata": {"rt": -1, "trial_type": "single-stim", "stimulus": "<p id=\"stim\">10</p>", "internal_node_id": "0.0-10.0-0.0", "time_elapsed": 277890, "key_press": -1, "trial_index": 10}, "uniqueid": "MTK2612:36U2A8VAG263QPO1LZKV77TYYUUKYQ", "dateTime": 1519156466130}, {"current_trial": 11, "trialdata": {"rt": -1, "trial_type": "single-stim", "stimulus": "<p id=\"stim\">9</p>", "internal_node_id": "0.0-10.0-1.0", "time_elapsed": 278892, "key_press": -1, "trial_index": 11}, "uniqueid": "MTK2612:36U2A8VAG263QPO1LZKV77TYYUUKYQ", "dateTime": 1519156467132}, {"current_trial": 12, "trialdata": {"rt": -1, "trial_type": "single-stim", "stimulus": "<p id=\"stim\">8</p>", "internal_node_id": "0.0-10.0-2.0", "time_elapsed": 279893, "key_press": -1, "trial_index": 12}, "uniqueid": "MTK2612:36U2A8VAG263QPO1LZKV77TYYUUKYQ", "dateTime": 1519156468133}, {"current_trial": 13, "trialdata": {"rt": -1, "trial_type": "single-stim", "stimulus": "<p id=\"stim\">7</p>", "internal_node_id": "0.0-10.0-3.0", "time_elapsed": 280894, "key_press": -1, "trial_index": 13}, "uniqueid": "MTK2612:36U2A8VAG263QPO1LZKV77TYYUUKYQ", "dateTime": 1519156469134}, {"current_trial": 14, "trialdata": {"rt": -1, "trial_type": "single-stim", "stimulus": "<p id=\"stim\">6</p>", "internal_node_id": "0.0-10.0-4.0", "time_elapsed": 281895, "key_press": -1, "trial_index": 14}, "uniqueid": "MTK2612:36U2A8VAG263QPO1LZKV77TYYUUKYQ", "dateTime": 1519156470135}, {"current_trial": 15, "trialdata": {"rt": -1, "trial_type": "single-stim", "stimulus": "<p id=\"stim\">5</p>", "internal_node_id": "0.0-10.0-5.0", "time_elapsed": 282897, "key_press": -1, "trial_index": 15}, "uniqueid": "MTK2612:36U2A8VAG263QPO1LZKV77TYYUUKYQ", "dateTime": 1519156471137}, {"current_trial": 16, "trialdata": {"rt": -1, "trial_type": "single-stim", "stimulus": "<p id=\"stim\">4</p>", "internal_node_id": "0.0-10.0-6.0", "time_elapsed": 283897, "key_press": -1, "trial_index": 16}, "uniqueid": "MTK2612:36U2A8VAG263QPO1LZKV77TYYUUKYQ", "dateTime": 1519156472137}, {"current_trial": 17, "trialdata": {"rt": -1, "trial_type": "single-stim", "stimulus": "<p id=\"stim\">3</p>", "internal_node_id": "0.0-10.0-7.0", "time_elapsed": 284900, "key_press": -1, "trial_index": 17}, "uniqueid": "MTK2612:36U2A8VAG263QPO1LZKV77TYYUUKYQ", "dateTime": 1519156473140}, {"current_trial": 18, "trialdata": {"rt": -1, "trial_type": "single-stim", "stimulus": "<p id=\"stim\">2</p>", "internal_node_id": "0.0-10.0-8.0", "time_elapsed": 285900, "key_press": -1, "trial_index": 18}, "uniqueid": "MTK2612:36U2A8VAG263QPO1LZKV77TYYUUKYQ", "dateTime": 1519156474141}, {"current_trial": 19, "trialdata": {"rt": -1, "trial_type": "single-stim", "stimulus": "<p id=\"stim\">1</p>", "internal_node_id": "0.0-10.0-9.0", "time_elapsed": 286902, "key_press": -1, "trial_index": 19}, "uniqueid": "MTK2612:36U2A8VAG263QPO1LZKV77TYYUUKYQ", "dateTime": 1519156475142}, {"current_trial": 20, "trialdata": {"rt": -1, "trial_type": "single-stim", "stimulus": "<p id=\"stim\">+</p>", "internal_node_id": "0.0-11.0-0.0", "time_elapsed": 288403, "key_press": -1, "type": "FIXATION", "trial_index": 20}, "uniqueid": "MTK2612:36U2A8VAG263QPO1LZKV77TYYUUKYQ", "dateTime": 1519156476643}, {"current_trial": 21, "trialdata": {"rt": -1, "trial_type": "single-stim", "word": "airplane", "stimulus": "<p id=\"stim\">AIRPLANE</p>", "conditions": [18, 1200, "v", 18000], "internal_node_id": "0.0-12.0", "trial": 0, "time_elapsed": 289605, "serialpos": 0, "key_press": -1, "wordID": 11, "type": "PRES_VIS", "trial_index": 21}, "uniqueid": "MTK2612:36U2A8VAG263QPO1LZKV77TYYUUKYQ", "dateTime": 1519156477845}, {"current_trial": 22, "trialdata": {"rt": -1, "trial_type": "single-stim", "word": "dorm", "stimulus": "<p id=\"stim\">DORM</p>", "conditions": [18, 1200, "v", 18000], "internal_node_id": "0.0-13.0", "trial": 0, "time_elapsed": 291807, "serialpos": 1, "key_press": -1, "wordID": 487, "type": "PRES_VIS", "trial_index": 22}, "uniqueid": "MTK2612:36U2A8VAG263QPO1LZKV77TYYUUKYQ", "dateTime": 1519156480047}, {"current_trial": 23, "trialdata": {"rt": -1, "trial_type": "single-stim", "word": "braces", "stimulus": "<p id=\"stim\">BRACES</p>", "conditions": [18, 1200, "v", 18000], "internal_node_id": "0.0-14.0", "trial": 0, "time_elapsed": 293975, "serialpos": 2, "key_press": -1, "wordID": 163, "type": "PRES_VIS", "trial_index": 23}, "uniqueid": "MTK2612:36U2A8VAG263QPO1LZKV77TYYUUKYQ", "dateTime": 1519156482215}, {"current_trial": 24, "trialdata": {"rt": -1, "trial_type": "single-stim", "word": "radish", "stimulus": "<p id=\"stim\">RADISH</p>", "conditions": [18, 1200, "v", 18000], "internal_node_id": "0.0-15.0", "trial": 0, "time_elapsed": 296033, "serialpos": 3, "key_press": -1, "wordID": 1157, "type": "PRES_VIS", "trial_index": 24}, "uniqueid": "MTK2612:36U2A8VAG263QPO1LZKV77TYYUUKYQ", "dateTime": 1519156484273}, {"current_trial": 25, "trialdata": {"rt": -1, "trial_type": "single-stim", "word": "zebra", "stimulus": "<p id=\"stim\">ZEBRA</p>", "conditions": [18, 1200, "v", 18000], "internal_node_id": "0.0-16.0", "trial": 0, "time_elapsed": 298241, "serialpos": 4, "key_press": -1, "wordID": 1634, "type": "PRES_VIS", "trial_index": 25}, "uniqueid": "MTK2612:36U2A8VAG263QPO1LZKV77TYYUUKYQ", "dateTime": 1519156486481}, {"current_trial": 26, "trialdata": {"rt": -1, "trial_type": "single-stim", "word": "crayon", "stimulus": "<p id=\"stim\">CRAYON</p>", "conditions": [18, 1200, "v", 18000], "internal_node_id": "0.0-17.0", "trial": 0, "time_elapsed": 300355, "serialpos": 5, "key_press": -1, "wordID": 400, "type": "PRES_VIS", "trial_index": 26}, "uniqueid": "MTK2612:36U2A8VAG263QPO1LZKV77TYYUUKYQ", "dateTime": 1519156488595}, {"current_trial": 27, "trialdata": {"rt": -1, "trial_type": "single-stim", "word": "virus", "stimulus": "<p id=\"stim\">VIRUS</p>", "conditions": [18, 1200, "v", 18000], "internal_node_id": "0.0-18.0", "trial": 0, "time_elapsed": 302509, "serialpos": 6, "key_press": -1, "wordID": 1571, "type": "PRES_VIS", "trial_index": 27}, "uniqueid": "MTK2612:36U2A8VAG263QPO1LZKV77TYYUUKYQ", "dateTime": 1519156490749}, {"current_trial": 28, "trialdata": {"rt": -1, "trial_type": "single-stim", "word": "globe", "stimulus": "<p id=\"stim\">GLOBE</p>", "conditions": [18, 1200, "v", 18000], "internal_node_id": "0.0-19.0", "trial": 0, "time_elapsed": 304525, "serialpos": 7, "key_press": -1, "wordID": 640, "type": "PRES_VIS", "trial_index": 28}, "uniqueid": "MTK2612:36U2A8VAG263QPO1LZKV77TYYUUKYQ", "dateTime": 1519156492765}, {"current_trial": 29, "trialdata": {"rt": -1, "trial_type": "single-stim", "word": "army", "stimulus": "<p id=\"stim\">ARMY</p>", "conditions": [18, 1200, "v", 18000], "internal_node_id": "0.0-20.0", "trial": 0, "time_elapsed": 306597, "serialpos": 8, "key_press": -1, "wordID": 38, "type": "PRES_VIS", "trial_index": 29}, "uniqueid": "MTK2612:36U2A8VAG263QPO1LZKV77TYYUUKYQ", "dateTime": 1519156494837}, {"current_trial": 30, "trialdata": {"rt": -1, "trial_type": "single-stim", "word": "blockade", "stimulus": "<p id=\"stim\">BLOCKADE</p>", "conditions": [18, 1200, "v", 18000], "internal_node_id": "0.0-21.0", "trial": 0, "time_elapsed": 308818, "serialpos": 9, "key_press": -1, "wordID": 136, "type": "PRES_VIS", "trial_index": 30}, "uniqueid": "MTK2612:36U2A8VAG263QPO1LZKV77TYYUUKYQ", "dateTime": 1519156497058}, {"current_trial": 31, "trialdata": {"rt": -1, "trial_type": "single-stim", "word": "pastry", "stimulus": "<p id=\"stim\">PASTRY</p>", "conditions": [18, 1200, "v", 18000], "internal_node_id": "0.0-22.0", "trial": 0, "time_elapsed": 310860, "serialpos": 10, "key_press": -1, "wordID": 1021, "type": "PRES_VIS", "trial_index": 31}, "uniqueid": "MTK2612:36U2A8VAG263QPO1LZKV77TYYUUKYQ", "dateTime": 1519156499100}, {"current_trial": 32, "trialdata": {"rt": -1, "trial_type": "single-stim", "word": "gavel", "stimulus": "<p id=\"stim\">GAVEL</p>", "conditions": [18, 1200, "v", 18000], "internal_node_id": "0.0-23.0", "trial": 0, "time_elapsed": 313086, "serialpos": 11, "key_press": -1, "wordID": 626, "type": "PRES_VIS", "trial_index": 32}, "uniqueid": "MTK2612:36U2A8VAG263QPO1LZKV77TYYUUKYQ", "dateTime": 1519156501326}, {"current_trial": 33, "trialdata": {"rt": -1, "trial_type": "single-stim", "word": "scribble", "stimulus": "<p id=\"stim\">SCRIBBLE</p>", "conditions": [18, 1200, "v", 18000], "internal_node_id": "0.0-24.0", "trial": 0, "time_elapsed": 315158, "serialpos": 12, "key_press": -1, "wordID": 1255, "type": "PRES_VIS", "trial_index": 33}, "uniqueid": "MTK2612:36U2A8VAG263QPO1LZKV77TYYUUKYQ", "dateTime": 1519156503398}, {"current_trial": 34, "trialdata": {"rt": -1, "trial_type": "single-stim", "word": "relish", "stimulus": "<p id=\"stim\">RELISH</p>", "conditions": [18, 1200, "v", 18000], "internal_node_id": "0.0-25.0", "trial": 0, "time_elapsed": 317349, "serialpos": 13, "key_press": -1, "wordID": 1182, "type": "PRES_VIS", "trial_index": 34}, "uniqueid": "MTK2612:36U2A8VAG263QPO1LZKV77TYYUUKYQ", "dateTime": 1519156505589}, {"current_trial": 35, "trialdata": {"rt": -1, "trial_type": "single-stim", "word": "infant", "stimulus": "<p id=\"stim\">INFANT</p>", "conditions": [18, 1200, "v", 18000], "internal_node_id": "0.0-26.0", "trial": 0, "time_elapsed": 319371, "serialpos": 14, "key_press": -1, "wordID": 736, "type": "PRES_VIS", "trial_index": 35}, "uniqueid": "MTK2612:36U2A8VAG263QPO1LZKV77TYYUUKYQ", "dateTime": 1519156507611}, {"current_trial": 36, "trialdata": {"rt": -1, "trial_type": "single-stim", "word": "female", "stimulus": "<p id=\"stim\">FEMALE</p>", "conditions": [18, 1200, "v", 18000], "internal_node_id": "0.0-27.0", "trial": 0, "time_elapsed": 321521, "serialpos": 15, "key_press": -1, "wordID": 558, "type": "PRES_VIS", "trial_index": 36}, "uniqueid": "MTK2612:36U2A8VAG263QPO1LZKV77TYYUUKYQ", "dateTime": 1519156509761}, {"current_trial": 37, "trialdata": {"rt": -1, "trial_type": "single-stim", "word": "jello", "stimulus": "<p id=\"stim\">JELLO</p>", "conditions": [18, 1200, "v", 18000], "internal_node_id": "0.0-28.0", "trial": 0, "time_elapsed": 323853, "serialpos": 16, "key_press": -1, "wordID": 753, "type": "PRES_VIS", "trial_index": 37}, "uniqueid": "MTK2612:36U2A8VAG263QPO1LZKV77TYYUUKYQ", "dateTime": 1519156512093}, {"current_trial": 38, "trialdata": {"rt": -1, "trial_type": "single-stim", "word": "tweezers", "stimulus": "<p id=\"stim\">TWEEZERS</p>", "conditions": [18, 1200, "v", 18000], "internal_node_id": "0.0-29.0", "trial": 0, "time_elapsed": 325968, "serialpos": 17, "key_press": -1, "wordID": 1525, "type": "PRES_VIS", "trial_index": 38}, "uniqueid": "MTK2612:36U2A8VAG263QPO1LZKV77TYYUUKYQ", "dateTime": 1519156514208}, {"current_trial": 39, "trialdata": {"rt": -1, "trial_type": "single-stim", "stimulus": "", "internal_node_id": "0.0-30.0-0.0", "time_elapsed": 328176, "key_press": -1, "type": "PRE_RECALL_DELAY", "trial_index": 39}, "uniqueid": "MTK2612:36U2A8VAG263QPO1LZKV77TYYUUKYQ", "dateTime": 1519156516416}, {"current_trial": 40, "trialdata": {"rt": -1000, "trial_type": "single-audio", "stimulus": "/static/audio/400Hz.wav", "internal_node_id": "0.0-31.0", "time_elapsed": 328677, "key_press": -1, "type": "PRE_RECALL_ALERT", "trial_index": 40}, "uniqueid": "MTK2612:36U2A8VAG263QPO1LZKV77TYYUUKYQ", "dateTime": 1519156516917}, {"current_trial": 41, "trialdata": {"rt": [6590, 9758, 12878, 16486, 25535, 35095, 51990], "recwords": ["twwizzers", "female", "virus", "zebra", "airplane", "panio", "patlo"], "key_times": [2558, 3343, 3638, 3902, 4126, 4358, 4973, 5158, 5550, 5814, 6054, 6590, 8198, 8494, 8750, 8838, 9054, 9238, 9758, 11158, 11390, 11558, 11854, 12062, 12878, 14694, 14942, 15606, 15806, 16086, 16486, 23391, 23911, 24063, 24263, 24447, 24510, 24775, 24950, 25535, 31566, 31718, 32111, 32446, 32663, 35095, 47158, 47374, 48006, 48399, 48678, 48902, 49919, 50166, 50431, 51078, 51286, 51990], "trial_type": "free-recall", "conditions": [18, 1200, "v", 18000], "internal_node_id": "0.0-32.0-0.0", "key_presses": [82, 8, 84, 87, 87, 73, 90, 90, 69, 82, 83, 13, 70, 69, 77, 65, 76, 69, 13, 86, 73, 82, 85, 83, 13, 90, 69, 66, 82, 65, 13, 65, 73, 82, 80, 76, 65, 78, 69, 13, 80, 65, 78, 73, 79, 13, 80, 65, 84, 69, 76, 79, 8, 8, 8, 76, 79, 13], "trial": 0, "time_elapsed": 388681, "type": "FREE_RECALL", "trial_index": 41}, "uniqueid": "MTK2612:36U2A8VAG263QPO1LZKV77TYYUUKYQ", "dateTime": 1519156576922}, {"current_trial": 42, "trialdata": {"rt": 2905, "trial_type": "text", "internal_node_id": "0.0-33.0", "time_elapsed": 393588, "key_press": 32, "type": "INSTRUCTIONS", "trial_index": 42}, "uniqueid": "MTK2612:36U2A8VAG263QPO1LZKV77TYYUUKYQ", "dateTime": 1519156581828}, {"current_trial": 43, "trialdata": {"rt": [9606, 15598, 17551], "trial_type": "math-distractor", "key_times": [8854, 9086, 9606, 14942, 15190, 15598, 16903, 17103, 17551], "responses": ["10", "20", "25"], "num2": [2, 9, 5, 8], "num3": [3, 6, 5, 9], "conditions": [18, 1200, "v", 18000], "internal_node_id": "0.0-34.0", "key_presses": [97, 96, 13, 98, 96, 13, 98, 101, 13], "trial": 1, "time_elapsed": 413593, "type": "DISTRACTOR", "trial_index": 43, "num1": [5, 5, 5, 9]}, "uniqueid": "MTK2612:36U2A8VAG263QPO1LZKV77TYYUUKYQ", "dateTime": 1519156601833}, {"current_trial": 44, "trialdata": {"rt": -1, "trial_type": "single-stim", "stimulus": "<p id=\"stim\">10</p>", "internal_node_id": "0.0-35.0-0.0", "time_elapsed": 416595, "key_press": -1, "trial_index": 44}, "uniqueid": "MTK2612:36U2A8VAG263QPO1LZKV77TYYUUKYQ", "dateTime": 1519156604835}, {"current_trial": 45, "trialdata": {"rt": -1, "trial_type": "single-stim", "stimulus": "<p id=\"stim\">9</p>", "internal_node_id": "0.0-35.0-1.0", "time_elapsed": 417595, "key_press": -1, "trial_index": 45}, "uniqueid": "MTK2612:36U2A8VAG263QPO1LZKV77TYYUUKYQ", "dateTime": 1519156605835}, {"current_trial": 46, "trialdata": {"rt": -1, "trial_type": "single-stim", "stimulus": "<p id=\"stim\">8</p>", "internal_node_id": "0.0-35.0-2.0", "time_elapsed": 418596, "key_press": -1, "trial_index": 46}, "uniqueid": "MTK2612:36U2A8VAG263QPO1LZKV77TYYUUKYQ", "dateTime": 1519156606836}, {"current_trial": 47, "trialdata": {"rt": -1, "trial_type": "single-stim", "stimulus": "<p id=\"stim\">7</p>", "internal_node_id": "0.0-35.0-3.0", "time_elapsed": 419598, "key_press": -1, "trial_index": 47}, "uniqueid": "MTK2612:36U2A8VAG263QPO1LZKV77TYYUUKYQ", "dateTime": 1519156607838}, {"current_trial": 48, "trialdata": {"rt": -1, "trial_type": "single-stim", "stimulus": "<p id=\"stim\">6</p>", "internal_node_id": "0.0-35.0-4.0", "time_elapsed": 420600, "key_press": -1, "trial_index": 48}, "uniqueid": "MTK2612:36U2A8VAG263QPO1LZKV77TYYUUKYQ", "dateTime": 1519156608840}, {"current_trial": 49, "trialdata": {"rt": -1, "trial_type": "single-stim", "stimulus": "<p id=\"stim\">5</p>", "internal_node_id": "0.0-35.0-5.0", "time_elapsed": 421600, "key_press": -1, "trial_index": 49}, "uniqueid": "MTK2612:36U2A8VAG263QPO1LZKV77TYYUUKYQ", "dateTime": 1519156609840}, {"current_trial": 50, "trialdata": {"rt": -1, "trial_type": "single-stim", "stimulus": "<p id=\"stim\">4</p>", "internal_node_id": "0.0-35.0-6.0", "time_elapsed": 422602, "key_press": -1, "trial_index": 50}, "uniqueid": "MTK2612:36U2A8VAG263QPO1LZKV77TYYUUKYQ", "dateTime": 1519156610843}, {"current_trial": 51, "trialdata": {"rt": -1, "trial_type": "single-stim", "stimulus": "<p id=\"stim\">3</p>", "internal_node_id": "0.0-35.0-7.0", "time_elapsed": 423603, "key_press": -1, "trial_index": 51}, "uniqueid": "MTK2612:36U2A8VAG263QPO1LZKV77TYYUUKYQ", "dateTime": 1519156611843}, {"current_trial": 52, "trialdata": {"rt": -1, "trial_type": "single-stim", "stimulus": "<p id=\"stim\">2</p>", "internal_node_id": "0.0-35.0-8.0", "time_elapsed": 424604, "key_press": -1, "trial_index": 52}, "uniqueid": "MTK2612:36U2A8VAG263QPO1LZKV77TYYUUKYQ", "dateTime": 1519156612844}, {"current_trial": 53, "trialdata": {"rt": -1, "trial_type": "single-stim", "stimulus": "<p id=\"stim\">1</p>", "internal_node_id": "0.0-35.0-9.0", "time_elapsed": 425605, "key_press": -1, "trial_index": 53}, "uniqueid": "MTK2612:36U2A8VAG263QPO1LZKV77TYYUUKYQ", "dateTime": 1519156613845}, {"current_trial": 54, "trialdata": {"rt": -1, "trial_type": "single-stim", "stimulus": "<p id=\"stim\">+</p>", "internal_node_id": "0.0-36.0-0.0", "time_elapsed": 427105, "key_press": -1, "type": "FIXATION", "trial_index": 54}, "uniqueid": "MTK2612:36U2A8VAG263QPO1LZKV77TYYUUKYQ", "dateTime": 1519156615345}, {"current_trial": 55, "trialdata": {"rt": -1, "trial_type": "single-stim", "word": "tortoise", "stimulus": "<p id=\"stim\">TORTOISE</p>", "conditions": [18, 1200, "v", 18000], "internal_node_id": "0.0-37.0", "trial": 1, "time_elapsed": 428307, "serialpos": 0, "key_press": -1, "wordID": 1485, "type": "PRES_VIS", "trial_index": 55}, "uniqueid": "MTK2612:36U2A8VAG263QPO1LZKV77TYYUUKYQ", "dateTime": 1519156616547}, {"current_trial": 56, "trialdata": {"rt": -1, "trial_type": "single-stim", "word": "postage", "stimulus": "<p id=\"stim\">POSTAGE</p>", "conditions": [18, 1200, "v", 18000], "internal_node_id": "0.0-38.0", "trial": 1, "time_elapsed": 430637, "serialpos": 1, "key_press": -1, "wordID": 1112, "type": "PRES_VIS", "trial_index": 56}, "uniqueid": "MTK2612:36U2A8VAG263QPO1LZKV77TYYUUKYQ", "dateTime": 1519156618877}, {"current_trial": 57, "trialdata": {"rt": -1, "trial_type": "single-stim", "word": "briefcase", "stimulus": "<p id=\"stim\">BRIEFCASE</p>", "conditions": [18, 1200, "v", 18000], "internal_node_id": "0.0-39.0", "trial": 1, "time_elapsed": 432922, "serialpos": 2, "key_press": -1, "wordID": 174, "type": "PRES_VIS", "trial_index": 57}, "uniqueid": "MTK2612:36U2A8VAG263QPO1LZKV77TYYUUKYQ", "dateTime": 1519156621162}, {"current_trial": 58, "trialdata": {"rt": -1, "trial_type": "single-stim", "word": "rattle", "stimulus": "<p id=\"stim\">RATTLE</p>", "conditions": [18, 1200, "v", 18000], "internal_node_id": "0.0-40.0", "trial": 1, "time_elapsed": 435232, "serialpos": 3, "key_press": -1, "wordID": 1169, "type": "PRES_VIS", "trial_index": 58}, "uniqueid": "MTK2612:36U2A8VAG263QPO1LZKV77TYYUUKYQ", "dateTime": 1519156623473}, {"current_trial": 59, "trialdata": {"rt": -1, "trial_type": "single-stim", "word": "scissors", "stimulus": "<p id=\"stim\">SCISSORS</p>", "conditions": [18, 1200, "v", 18000], "internal_node_id": "0.0-41.0", "trial": 1, "time_elapsed": 437468, "serialpos": 4, "key_press": -1, "wordID": 1249, "type": "PRES_VIS", "trial_index": 59}, "uniqueid": "MTK2612:36U2A8VAG263QPO1LZKV77TYYUUKYQ", "dateTime": 1519156625708}, {"current_trial": 60, "trialdata": {"rt": -1, "trial_type": "single-stim", "word": "atom", "stimulus": "<p id=\"stim\">ATOM</p>", "conditions": [18, 1200, "v", 18000], "internal_node_id": "0.0-42.0", "trial": 1, "time_elapsed": 439510, "serialpos": 5, "key_press": -1, "wordID": 54, "type": "PRES_VIS", "trial_index": 60}, "uniqueid": "MTK2612:36U2A8VAG263QPO1LZKV77TYYUUKYQ", "dateTime": 1519156627750}, {"current_trial": 61, "trialdata": {"rt": -1, "trial_type": "single-stim", "word": "keeper", "stimulus": "<p id=\"stim\">KEEPER</p>", "conditions": [18, 1200, "v", 18000], "internal_node_id": "0.0-43.0", "trial": 1, "time_elapsed": 441689, "serialpos": 6, "key_press": -1, "wordID": 768, "type": "PRES_VIS", "trial_index": 61}, "uniqueid": "MTK2612:36U2A8VAG263QPO1LZKV77TYYUUKYQ", "dateTime": 1519156629929}, {"current_trial": 62, "trialdata": {"rt": -1, "trial_type": "single-stim", "word": "waitress", "stimulus": "<p id=\"stim\">WAITRESS</p>", "conditions": [18, 1200, "v", 18000], "internal_node_id": "0.0-44.0", "trial": 1, "time_elapsed": 443809, "serialpos": 7, "key_press": -1, "wordID": 1580, "type": "PRES_VIS", "trial_index": 62}, "uniqueid": "MTK2612:36U2A8VAG263QPO1LZKV77TYYUUKYQ", "dateTime": 1519156632049}, {"current_trial": 63, "trialdata": {"rt": -1, "trial_type": "single-stim", "word": "robber", "stimulus": "<p id=\"stim\">ROBBER</p>", "conditions": [18, 1200, "v", 18000], "internal_node_id": "0.0-45.0", "trial": 1, "time_elapsed": 445975, "serialpos": 8, "key_press": -1, "wordID": 1196, "type": "PRES_VIS", "trial_index": 63}, "uniqueid": "MTK2612:36U2A8VAG263QPO1LZKV77TYYUUKYQ", "dateTime": 1519156634215}, {"current_trial": 64, "trialdata": {"rt": -1, "trial_type": "single-stim", "word": "scarf", "stimulus": "<p id=\"stim\">SCARF</p>", "conditions": [18, 1200, "v", 18000], "internal_node_id": "0.0-46.0", "trial": 1, "time_elapsed": 448010, "serialpos": 9, "key_press": -1, "wordID": 1245, "type": "PRES_VIS", "trial_index": 64}, "uniqueid": "MTK2612:36U2A8VAG263QPO1LZKV77TYYUUKYQ", "dateTime": 1519156636251}, {"current_trial": 65, "trialdata": {"rt": -1, "trial_type": "single-stim", "word": "husband", "stimulus": "<p id=\"stim\">HUSBAND</p>", "conditions": [18, 1200, "v", 18000], "internal_node_id": "0.0-47.0", "trial": 1, "time_elapsed": 450099, "serialpos": 10, "key_press": -1, "wordID": 727, "type": "PRES_VIS", "trial_index": 65}, "uniqueid": "MTK2612:36U2A8VAG263QPO1LZKV77TYYUUKYQ", "dateTime": 1519156638340}, {"current_trial": 66, "trialdata": {"rt": -1, "trial_type": "single-stim", "word": "razor", "stimulus": "<p id=\"stim\">RAZOR</p>", "conditions": [18, 1200, "v", 18000], "internal_node_id": "0.0-48.0", "trial": 1, "time_elapsed": 452126, "serialpos": 11, "key_press": -1, "wordID": 1170, "type": "PRES_VIS", "trial_index": 66}, "uniqueid": "MTK2612:36U2A8VAG263QPO1LZKV77TYYUUKYQ", "dateTime": 1519156640366}, {"current_trial": 67, "trialdata": {"rt": -1, "trial_type": "single-stim", "word": "brandy", "stimulus": "<p id=\"stim\">BRANDY</p>", "conditions": [18, 1200, "v", 18000], "internal_node_id": "0.0-49.0", "trial": 1, "time_elapsed": 454296, "serialpos": 12, "key_press": -1, "wordID": 168, "type": "PRES_VIS", "trial_index": 67}, "uniqueid": "MTK2612:36U2A8VAG263QPO1LZKV77TYYUUKYQ", "dateTime": 1519156642536}, {"current_trial": 68, "trialdata": {"rt": -1, "trial_type": "single-stim", "word": "princess", "stimulus": "<p id=\"stim\">PRINCESS</p>", "conditions": [18, 1200, "v", 18000], "internal_node_id": "0.0-50.0", "trial": 1, "time_elapsed": 456421, "serialpos": 13, "key_press": -1, "wordID": 1124, "type": "PRES_VIS", "trial_index": 68}, "uniqueid": "MTK2612:36U2A8VAG263QPO1LZKV77TYYUUKYQ", "dateTime": 1519156644663}, {"current_trial": 69, "trialdata": {"rt": -1, "trial_type": "single-stim", "word": "swimmer", "stimulus": "<p id=\"stim\">SWIMMER</p>", "conditions": [18, 1200, "v", 18000], "internal_node_id": "0.0-51.0", "trial": 1, "time_elapsed": 458717, "serialpos": 14, "key_press": -1, "wordID": 1419, "type": "PRES_VIS", "trial_index": 69}, "uniqueid": "MTK2612:36U2A8VAG263QPO1LZKV77TYYUUKYQ", "dateTime": 1519156646957}, {"current_trial": 70, "trialdata": {"rt": -1, "trial_type": "single-stim", "word": "leopard", "stimulus": "<p id=\"stim\">LEOPARD</p>", "conditions": [18, 1200, "v", 18000], "internal_node_id": "0.0-52.0", "trial": 1, "time_elapsed": 460795, "serialpos": 15, "key_press": -1, "wordID": 811, "type": "PRES_VIS", "trial_index": 70}, "uniqueid": "MTK2612:36U2A8VAG263QPO1LZKV77TYYUUKYQ", "dateTime": 1519156649035}, {"current_trial": 71, "trialdata": {"rt": -1, "trial_type": "single-stim", "word": "lava", "stimulus": "<p id=\"stim\">LAVA</p>", "conditions": [18, 1200, "v", 18000], "internal_node_id": "0.0-53.0", "trial": 1, "time_elapsed": 462818, "serialpos": 16, "key_press": -1, "wordID": 803, "type": "PRES_VIS", "trial_index": 71}, "uniqueid": "MTK2612:36U2A8VAG263QPO1LZKV77TYYUUKYQ", "dateTime": 1519156651058}, {"current_trial": 72, "trialdata": {"rt": -1, "trial_type": "single-stim", "word": "citrus", "stimulus": "<p id=\"stim\">CITRUS</p>", "conditions": [18, 1200, "v", 18000], "internal_node_id": "0.0-54.0", "trial": 1, "time_elapsed": 464859, "serialpos": 17, "key_press": -1, "wordID": 312, "type": "PRES_VIS", "trial_index": 72}, "uniqueid": "MTK2612:36U2A8VAG263QPO1LZKV77TYYUUKYQ", "dateTime": 1519156653099}, {"current_trial": 73, "trialdata": {"rt": -1, "trial_type": "single-stim", "stimulus": "", "internal_node_id": "0.0-55.0-0.0", "time_elapsed": 467438, "key_press": -1, "type": "PRE_RECALL_DELAY", "trial_index": 73}, "uniqueid": "MTK2612:36U2A8VAG263QPO1LZKV77TYYUUKYQ", "dateTime": 1519156655678}, {"current_trial": 74, "trialdata": {"rt": -1000, "trial_type": "single-audio", "stimulus": "/static/audio/400Hz.wav", "internal_node_id": "0.0-56.0", "time_elapsed": 467940, "key_press": -1, "type": "PRE_RECALL_ALERT", "trial_index": 74}, "uniqueid": "MTK2612:36U2A8VAG263QPO1LZKV77TYYUUKYQ", "dateTime": 1519156656181}, {"current_trial": 75, "trialdata": {"rt": [3920, 6999, 10031, 16823, 37263], "recwords": ["crius", "princess", "keeper", "scciors", "husband"], "key_times": [2096, 2383, 2953, 3183, 3384, 3920, 4592, 4768, 5024, 5535, 5736, 5964, 6232, 6495, 6999, 8424, 8592, 8815, 8984, 9175, 9423, 10031, 13896, 14208, 14407, 14744, 15623, 15911, 16143, 16263, 16512, 16823, 34983, 35287, 35456, 35679, 35807, 36030, 36847, 37263], "trial_type": "free-recall", "conditions": [18, 1200, "v", 18000], "internal_node_id": "0.0-57.0-0.0", "key_presses": [67, 82, 73, 85, 83, 13, 80, 82, 73, 78, 67, 69, 83, 83, 32, 75, 69, 69, 80, 69, 82, 13, 83, 67, 67, 79, 8, 73, 79, 82, 83, 13, 72, 85, 83, 66, 65, 78, 68, 13], "trial": 1, "time_elapsed": 527943, "type": "FREE_RECALL", "trial_index": 75}, "uniqueid": "MTK2612:36U2A8VAG263QPO1LZKV77TYYUUKYQ", "dateTime": 1519156716185}, {"current_trial": 76, "trialdata": {"rt": 28043, "trial_type": "text", "internal_node_id": "0.0-58.0", "time_elapsed": 557988, "key_press": 32, "type": "INSTRUCTIONS", "trial_index": 76}, "uniqueid": "MTK2612:36U2A8VAG263QPO1LZKV77TYYUUKYQ", "dateTime": 1519156746229}, {"current_trial": 77, "trialdata": {"rt": [5607, 8246, 11817], "trial_type": "math-distractor", "key_times": [5006, 5294, 5607, 7750, 8006, 8246, 11335, 11534, 11817], "responses": ["18", "16", "10"], "num2": [6, 2, 5, 7], "num3": [5, 6, 2, 2], "conditions": [12, 800, "v", 12000], "internal_node_id": "0.0-59.0", "key_presses": [97, 104, 13, 97, 102, 13, 97, 96, 13], "trial": 2, "time_elapsed": 570991, "type": "DISTRACTOR", "trial_index": 77, "num1": [7, 8, 3, 9]}, "uniqueid": "MTK2612:36U2A8VAG263QPO1LZKV77TYYUUKYQ", "dateTime": 1519156759231}, {"current_trial": 78, "trialdata": {"rt": -1, "trial_type": "single-stim", "stimulus": "<p id=\"stim\">10</p>", "internal_node_id": "0.0-60.0-0.0", "time_elapsed": 573993, "key_press": -1, "trial_index": 78}, "uniqueid": "MTK2612:36U2A8VAG263QPO1LZKV77TYYUUKYQ", "dateTime": 1519156762233}, {"current_trial": 79, "trialdata": {"rt": -1, "trial_type": "single-stim", "stimulus": "<p id=\"stim\">9</p>", "internal_node_id": "0.0-60.0-1.0", "time_elapsed": 574993, "key_press": -1, "trial_index": 79}, "uniqueid": "MTK2612:36U2A8VAG263QPO1LZKV77TYYUUKYQ", "dateTime": 1519156763234}, {"current_trial": 80, "trialdata": {"rt": -1, "trial_type": "single-stim", "stimulus": "<p id=\"stim\">8</p>", "internal_node_id": "0.0-60.0-2.0", "time_elapsed": 575995, "key_press": -1, "trial_index": 80}, "uniqueid": "MTK2612:36U2A8VAG263QPO1LZKV77TYYUUKYQ", "dateTime": 1519156764235}, {"current_trial": 81, "trialdata": {"rt": -1, "trial_type": "single-stim", "stimulus": "<p id=\"stim\">7</p>", "internal_node_id": "0.0-60.0-3.0", "time_elapsed": 576996, "key_press": -1, "trial_index": 81}, "uniqueid": "MTK2612:36U2A8VAG263QPO1LZKV77TYYUUKYQ", "dateTime": 1519156765236}, {"current_trial": 82, "trialdata": {"rt": -1, "trial_type": "single-stim", "stimulus": "<p id=\"stim\">6</p>", "internal_node_id": "0.0-60.0-4.0", "time_elapsed": 577997, "key_press": -1, "trial_index": 82}, "uniqueid": "MTK2612:36U2A8VAG263QPO1LZKV77TYYUUKYQ", "dateTime": 1519156766237}, {"current_trial": 83, "trialdata": {"rt": -1, "trial_type": "single-stim", "stimulus": "<p id=\"stim\">5</p>", "internal_node_id": "0.0-60.0-5.0", "time_elapsed": 578998, "key_press": -1, "trial_index": 83}, "uniqueid": "MTK2612:36U2A8VAG263QPO1LZKV77TYYUUKYQ", "dateTime": 1519156767238}, {"current_trial": 84, "trialdata": {"rt": -1, "trial_type": "single-stim", "stimulus": "<p id=\"stim\">4</p>", "internal_node_id": "0.0-60.0-6.0", "time_elapsed": 579999, "key_press": -1, "trial_index": 84}, "uniqueid": "MTK2612:36U2A8VAG263QPO1LZKV77TYYUUKYQ", "dateTime": 1519156768239}, {"current_trial": 85, "trialdata": {"rt": -1, "trial_type": "single-stim", "stimulus": "<p id=\"stim\">3</p>", "internal_node_id": "0.0-60.0-7.0", "time_elapsed": 581000, "key_press": -1, "trial_index": 85}, "uniqueid": "MTK2612:36U2A8VAG263QPO1LZKV77TYYUUKYQ", "dateTime": 1519156769240}, {"current_trial": 86, "trialdata": {"rt": -1, "trial_type": "single-stim", "stimulus": "<p id=\"stim\">2</p>", "internal_node_id": "0.0-60.0-8.0", "time_elapsed": 582002, "key_press": -1, "trial_index": 86}, "uniqueid": "MTK2612:36U2A8VAG263QPO1LZKV77TYYUUKYQ", "dateTime": 1519156770243}, {"current_trial": 87, "trialdata": {"rt": -1, "trial_type": "single-stim", "stimulus": "<p id=\"stim\">1</p>", "internal_node_id": "0.0-60.0-9.0", "time_elapsed": 583004, "key_press": -1, "trial_index": 87}, "uniqueid": "MTK2612:36U2A8VAG263QPO1LZKV77TYYUUKYQ", "dateTime": 1519156771244}, {"current_trial": 88, "trialdata": {"rt": -1, "trial_type": "single-stim", "stimulus": "<p id=\"stim\">+</p>", "internal_node_id": "0.0-61.0-0.0", "time_elapsed": 584505, "key_press": -1, "type": "FIXATION", "trial_index": 88}, "uniqueid": "MTK2612:36U2A8VAG263QPO1LZKV77TYYUUKYQ", "dateTime": 1519156772745}, {"current_trial": 89, "trialdata": {"rt": -1, "trial_type": "single-stim", "word": "vagrant", "stimulus": "<p id=\"stim\">VAGRANT</p>", "conditions": [12, 800, "v", 12000], "internal_node_id": "0.0-62.0", "trial": 2, "time_elapsed": 585307, "serialpos": 0, "key_press": -1, "wordID": 1543, "type": "PRES_VIS", "trial_index": 89}, "uniqueid": "MTK2612:36U2A8VAG263QPO1LZKV77TYYUUKYQ", "dateTime": 1519156773547}, {"current_trial": 90, "trialdata": {"rt": -1, "trial_type": "single-stim", "word": "brick", "stimulus": "<p id=\"stim\">BRICK</p>", "conditions": [12, 800, "v", 12000], "internal_node_id": "0.0-63.0", "trial": 2, "time_elapsed": 587118, "serialpos": 1, "key_press": -1, "wordID": 171, "type": "PRES_VIS", "trial_index": 90}, "uniqueid": "MTK2612:36U2A8VAG263QPO1LZKV77TYYUUKYQ", "dateTime": 1519156775358}, {"current_trial": 91, "trialdata": {"rt": -1, "trial_type": "single-stim", "word": "cobra", "stimulus": "<p id=\"stim\">COBRA</p>", "conditions": [12, 800, "v", 12000], "internal_node_id": "0.0-64.0", "trial": 2, "time_elapsed": 589045, "serialpos": 2, "key_press": -1, "wordID": 335, "type": "PRES_VIS", "trial_index": 91}, "uniqueid": "MTK2612:36U2A8VAG263QPO1LZKV77TYYUUKYQ", "dateTime": 1519156777285}, {"current_trial": 92, "trialdata": {"rt": -1, "trial_type": "single-stim", "word": "trombone", "stimulus": "<p id=\"stim\">TROMBONE</p>", "conditions": [12, 800, "v", 12000], "internal_node_id": "0.0-65.0", "trial": 2, "time_elapsed": 590669, "serialpos": 3, "key_press": -1, "wordID": 1507, "type": "PRES_VIS", "trial_index": 92}, "uniqueid": "MTK2612:36U2A8VAG263QPO1LZKV77TYYUUKYQ", "dateTime": 1519156778909}, {"current_trial": 93, "trialdata": {"rt": -1, "trial_type": "single-stim", "word": "banjo", "stimulus": "<p id=\"stim\">BANJO</p>", "conditions": [12, 800, "v", 12000], "internal_node_id": "0.0-66.0", "trial": 2, "time_elapsed": 592347, "serialpos": 4, "key_press": -1, "wordID": 81, "type": "PRES_VIS", "trial_index": 93}, "uniqueid": "MTK2612:36U2A8VAG263QPO1LZKV77TYYUUKYQ", "dateTime": 1519156780587}, {"current_trial": 94, "trialdata": {"rt": -1, "trial_type": "single-stim", "word": "powder", "stimulus": "<p id=\"stim\">POWDER</p>", "conditions": [12, 800, "v", 12000], "internal_node_id": "0.0-67.0", "trial": 2, "time_elapsed": 594316, "serialpos": 5, "key_press": -1, "wordID": 1116, "type": "PRES_VIS", "trial_index": 94}, "uniqueid": "MTK2612:36U2A8VAG263QPO1LZKV77TYYUUKYQ", "dateTime": 1519156782556}, {"current_trial": 95, "trialdata": {"rt": -1, "trial_type": "single-stim", "word": "tablet", "stimulus": "<p id=\"stim\">TABLET</p>", "conditions": [12, 800, "v", 12000], "internal_node_id": "0.0-68.0", "trial": 2, "time_elapsed": 595972, "serialpos": 6, "key_press": -1, "wordID": 1426, "type": "PRES_VIS", "trial_index": 95}, "uniqueid": "MTK2612:36U2A8VAG263QPO1LZKV77TYYUUKYQ", "dateTime": 1519156784212}, {"current_trial": 96, "trialdata": {"rt": -1, "trial_type": "single-stim", "word": "venus", "stimulus": "<p id=\"stim\">VENUS</p>", "conditions": [12, 800, "v", 12000], "internal_node_id": "0.0-69.0", "trial": 2, "time_elapsed": 597911, "serialpos": 7, "key_press": -1, "wordID": 1556, "type": "PRES_VIS", "trial_index": 96}, "uniqueid": "MTK2612:36U2A8VAG263QPO1LZKV77TYYUUKYQ", "dateTime": 1519156786151}, {"current_trial": 97, "trialdata": {"rt": -1, "trial_type": "single-stim", "word": "sister", "stimulus": "<p id=\"stim\">SISTER</p>", "conditions": [12, 800, "v", 12000], "internal_node_id": "0.0-70.0", "trial": 2, "time_elapsed": 599736, "serialpos": 8, "key_press": -1, "wordID": 1311, "type": "PRES_VIS", "trial_index": 97}, "uniqueid": "MTK2612:36U2A8VAG263QPO1LZKV77TYYUUKYQ", "dateTime": 1519156787976}, {"current_trial": 98, "trialdata": {"rt": -1, "trial_type": "single-stim", "word": "sibling", "stimulus": "<p id=\"stim\">SIBLING</p>", "conditions": [12, 800, "v", 12000], "internal_node_id": "0.0-71.0", "trial": 2, "time_elapsed": 601589, "serialpos": 9, "key_press": -1, "wordID": 1300, "type": "PRES_VIS", "trial_index": 98}, "uniqueid": "MTK2612:36U2A8VAG263QPO1LZKV77TYYUUKYQ", "dateTime": 1519156789829}, {"current_trial": 99, "trialdata": {"rt": -1, "trial_type": "single-stim", "word": "stone", "stimulus": "<p id=\"stim\">STONE</p>", "conditions": [12, 800, "v", 12000], "internal_node_id": "0.0-72.0", "trial": 2, "time_elapsed": 603474, "serialpos": 10, "key_press": -1, "wordID": 1384, "type": "PRES_VIS", "trial_index": 99}, "uniqueid": "MTK2612:36U2A8VAG263QPO1LZKV77TYYUUKYQ", "dateTime": 1519156791714}, {"current_trial": 100, "trialdata": {"rt": -1, "trial_type": "single-stim", "word": "film", "stimulus": "<p id=\"stim\">FILM</p>", "conditions": [12, 800, "v", 12000], "internal_node_id": "0.0-73.0", "trial": 2, "time_elapsed": 605300, "serialpos": 11, "key_press": -1, "wordID": 564, "type": "PRES_VIS", "trial_index": 100}, "uniqueid": "MTK2612:36U2A8VAG263QPO1LZKV77TYYUUKYQ", "dateTime": 1519156793540}, {"current_trial": 101, "trialdata": {"rt": -1, "trial_type": "single-stim", "stimulus": "", "internal_node_id": "0.0-74.0-0.0", "time_elapsed": 607692, "key_press": -1, "type": "PRE_RECALL_DELAY", "trial_index": 101}, "uniqueid": "MTK2612:36U2A8VAG263QPO1LZKV77TYYUUKYQ", "dateTime": 1519156795932}, {"current_trial": 102, "trialdata": {"rt": -1000, "trial_type": "single-audio", "stimulus": "/static/audio/400Hz.wav", "internal_node_id": "0.0-75.0", "time_elapsed": 608193, "key_press": -1, "type": "PRE_RECALL_ALERT", "trial_index": 102}, "uniqueid": "MTK2612:36U2A8VAG263QPO1LZKV77TYYUUKYQ", "dateTime": 1519156796433}, {"current_trial": 103, "trialdata": {"rt": [3634, 6731, 10123, 13482, 17586, 20939, 22835, 32002], "recwords": ["flim", "stone", "sister", "tablet", "powder", "cobra", "brick", "vagnent"], "key_times": [2515, 2746, 2954, 3180, 3634, 5211, 5523, 5699, 5923, 6394, 6731, 8763, 9067, 9322, 9539, 9634, 9859, 10123, 12050, 12201, 12387, 12770, 12914, 13187, 13482, 15458, 15650, 15826, 16170, 16403, 16610, 17586, 19562, 19826, 20147, 20306, 20571, 20939, 21267, 21474, 21722, 22034, 22331, 22835, 25755, 25946, 26251, 26579, 26771, 27090, 27354, 28602, 28842, 29042, 29291, 30290, 30794, 31034, 31195, 32002], "trial_type": "free-recall", "conditions": [12, 800, "v", 12000], "internal_node_id": "0.0-76.0-0.0", "key_presses": [70, 76, 73, 77, 13, 83, 84, 79, 78, 69, 13, 83, 73, 83, 84, 69, 82, 32, 84, 65, 66, 76, 69, 84, 13, 80, 79, 87, 68, 69, 82, 13, 67, 79, 66, 82, 65, 13, 66, 82, 73, 67, 75, 13, 86, 65, 71, 65, 78, 69, 84, 8, 8, 8, 8, 78, 69, 78, 84, 13], "trial": 2, "time_elapsed": 668196, "type": "FREE_RECALL", "trial_index": 103}, "uniqueid": "MTK2612:36U2A8VAG263QPO1LZKV77TYYUUKYQ", "dateTime": 1519156856437}, {"current_trial": 104, "trialdata": {"rt": 1664, "trial_type": "text", "internal_node_id": "0.0-77.0", "time_elapsed": 671861, "key_press": 32, "type": "INSTRUCTIONS", "trial_index": 104}, "uniqueid": "MTK2612:36U2A8VAG263QPO1LZKV77TYYUUKYQ", "dateTime": 1519156860101}, {"current_trial": 105, "trialdata": {"rt": [3622, 7007, 10917], "trial_type": "math-distractor", "key_times": [2997, 3325, 3622, 6501, 6758, 7007, 10238, 10533, 10917], "responses": ["18", "15", "24"], "num2": [9, 4, 9, 5], "num3": [1, 6, 9, 7], "conditions": [12, 1600, "v", 12000], "internal_node_id": "0.0-78.0", "key_presses": [97, 104, 13, 97, 101, 13, 98, 100, 13], "trial": 3, "time_elapsed": 685864, "type": "DISTRACTOR", "trial_index": 105, "num1": [8, 5, 5, 2]}, "uniqueid": "MTK2612:36U2A8VAG263QPO1LZKV77TYYUUKYQ", "dateTime": 1519156874104}, {"current_trial": 106, "trialdata": {"rt": -1, "trial_type": "single-stim", "stimulus": "<p id=\"stim\">10</p>", "internal_node_id": "0.0-79.0-0.0", "time_elapsed": 688865, "key_press": -1, "trial_index": 106}, "uniqueid": "MTK2612:36U2A8VAG263QPO1LZKV77TYYUUKYQ", "dateTime": 1519156877105}, {"current_trial": 107, "trialdata": {"rt": -1, "trial_type": "single-stim", "stimulus": "<p id=\"stim\">9</p>", "internal_node_id": "0.0-79.0-1.0", "time_elapsed": 689867, "key_press": -1, "trial_index": 107}, "uniqueid": "MTK2612:36U2A8VAG263QPO1LZKV77TYYUUKYQ", "dateTime": 1519156878107}, {"current_trial": 108, "trialdata": {"rt": -1, "trial_type": "single-stim", "stimulus": "<p id=\"stim\">8</p>", "internal_node_id": "0.0-79.0-2.0", "time_elapsed": 690868, "key_press": -1, "trial_index": 108}, "uniqueid": "MTK2612:36U2A8VAG263QPO1LZKV77TYYUUKYQ", "dateTime": 1519156879108}, {"current_trial": 109, "trialdata": {"rt": -1, "trial_type": "single-stim", "stimulus": "<p id=\"stim\">7</p>", "internal_node_id": "0.0-79.0-3.0", "time_elapsed": 691869, "key_press": -1, "trial_index": 109}, "uniqueid": "MTK2612:36U2A8VAG263QPO1LZKV77TYYUUKYQ", "dateTime": 1519156880109}, {"current_trial": 110, "trialdata": {"rt": -1, "trial_type": "single-stim", "stimulus": "<p id=\"stim\">6</p>", "internal_node_id": "0.0-79.0-4.0", "time_elapsed": 692870, "key_press": -1, "trial_index": 110}, "uniqueid": "MTK2612:36U2A8VAG263QPO1LZKV77TYYUUKYQ", "dateTime": 1519156881110}, {"current_trial": 111, "trialdata": {"rt": -1, "trial_type": "single-stim", "stimulus": "<p id=\"stim\">5</p>", "internal_node_id": "0.0-79.0-5.0", "time_elapsed": 693871, "key_press": -1, "trial_index": 111}, "uniqueid": "MTK2612:36U2A8VAG263QPO1LZKV77TYYUUKYQ", "dateTime": 1519156882111}, {"current_trial": 112, "trialdata": {"rt": -1, "trial_type": "single-stim", "stimulus": "<p id=\"stim\">4</p>", "internal_node_id": "0.0-79.0-6.0", "time_elapsed": 694871, "key_press": -1, "trial_index": 112}, "uniqueid": "MTK2612:36U2A8VAG263QPO1LZKV77TYYUUKYQ", "dateTime": 1519156883112}, {"current_trial": 113, "trialdata": {"rt": -1, "trial_type": "single-stim", "stimulus": "<p id=\"stim\">3</p>", "internal_node_id": "0.0-79.0-7.0", "time_elapsed": 695873, "key_press": -1, "trial_index": 113}, "uniqueid": "MTK2612:36U2A8VAG263QPO1LZKV77TYYUUKYQ", "dateTime": 1519156884113}, {"current_trial": 114, "trialdata": {"rt": -1, "trial_type": "single-stim", "stimulus": "<p id=\"stim\">2</p>", "internal_node_id": "0.0-79.0-8.0", "time_elapsed": 696874, "key_press": -1, "trial_index": 114}, "uniqueid": "MTK2612:36U2A8VAG263QPO1LZKV77TYYUUKYQ", "dateTime": 1519156885114}, {"current_trial": 115, "trialdata": {"rt": -1, "trial_type": "single-stim", "stimulus": "<p id=\"stim\">1</p>", "internal_node_id": "0.0-79.0-9.0", "time_elapsed": 697876, "key_press": -1, "trial_index": 115}, "uniqueid": "MTK2612:36U2A8VAG263QPO1LZKV77TYYUUKYQ", "dateTime": 1519156886116}, {"current_trial": 116, "trialdata": {"rt": -1, "trial_type": "single-stim", "stimulus": "<p id=\"stim\">+</p>", "internal_node_id": "0.0-80.0-0.0", "time_elapsed": 699377, "key_press": -1, "type": "FIXATION", "trial_index": 116}, "uniqueid": "MTK2612:36U2A8VAG263QPO1LZKV77TYYUUKYQ", "dateTime": 1519156887617}, {"current_trial": 117, "trialdata": {"rt": -1, "trial_type": "single-stim", "word": "agent", "stimulus": "<p id=\"stim\">AGENT</p>", "conditions": [12, 1600, "v", 12000], "internal_node_id": "0.0-81.0", "trial": 3, "time_elapsed": 700978, "serialpos": 0, "key_press": -1, "wordID": 9, "type": "PRES_VIS", "trial_index": 117}, "uniqueid": "MTK2612:36U2A8VAG263QPO1LZKV77TYYUUKYQ", "dateTime": 1519156889219}, {"current_trial": 118, "trialdata": {"rt": -1, "trial_type": "single-stim", "word": "cousin", "stimulus": "<p id=\"stim\">COUSIN</p>", "conditions": [12, 1600, "v", 12000], "internal_node_id": "0.0-82.0", "trial": 3, "time_elapsed": 703512, "serialpos": 1, "key_press": -1, "wordID": 391, "type": "PRES_VIS", "trial_index": 118}, "uniqueid": "MTK2612:36U2A8VAG263QPO1LZKV77TYYUUKYQ", "dateTime": 1519156891752}, {"current_trial": 119, "trialdata": {"rt": -1, "trial_type": "single-stim", "word": "goblin", "stimulus": "<p id=\"stim\">GOBLIN</p>", "conditions": [12, 1600, "v", 12000], "internal_node_id": "0.0-83.0", "trial": 3, "time_elapsed": 705973, "serialpos": 2, "key_press": -1, "wordID": 644, "type": "PRES_VIS", "trial_index": 119}, "uniqueid": "MTK2612:36U2A8VAG263QPO1LZKV77TYYUUKYQ", "dateTime": 1519156894213}, {"current_trial": 120, "trialdata": {"rt": -1, "trial_type": "single-stim", "word": "waiter", "stimulus": "<p id=\"stim\">WAITER</p>", "conditions": [12, 1600, "v", 12000], "internal_node_id": "0.0-84.0", "trial": 3, "time_elapsed": 708501, "serialpos": 3, "key_press": -1, "wordID": 1579, "type": "PRES_VIS", "trial_index": 120}, "uniqueid": "MTK2612:36U2A8VAG263QPO1LZKV77TYYUUKYQ", "dateTime": 1519156896741}, {"current_trial": 121, "trialdata": {"rt": -1, "trial_type": "single-stim", "word": "lodge", "stimulus": "<p id=\"stim\">LODGE</p>", "conditions": [12, 1600, "v", 12000], "internal_node_id": "0.0-85.0", "trial": 3, "time_elapsed": 711088, "serialpos": 4, "key_press": -1, "wordID": 838, "type": "PRES_VIS", "trial_index": 121}, "uniqueid": "MTK2612:36U2A8VAG263QPO1LZKV77TYYUUKYQ", "dateTime": 1519156899328}, {"current_trial": 122, "trialdata": {"rt": -1, "trial_type": "single-stim", "word": "daughter", "stimulus": "<p id=\"stim\">DAUGHTER</p>", "conditions": [12, 1600, "v", 12000], "internal_node_id": "0.0-86.0", "trial": 3, "time_elapsed": 713669, "serialpos": 5, "key_press": -1, "wordID": 441, "type": "PRES_VIS", "trial_index": 122}, "uniqueid": "MTK2612:36U2A8VAG263QPO1LZKV77TYYUUKYQ", "dateTime": 1519156901909}, {"current_trial": 123, "trialdata": {"rt": -1, "trial_type": "single-stim", "word": "baby", "stimulus": "<p id=\"stim\">BABY</p>", "conditions": [12, 1600, "v", 12000], "internal_node_id": "0.0-87.0", "trial": 3, "time_elapsed": 716305, "serialpos": 6, "key_press": -1, "wordID": 63, "type": "PRES_VIS", "trial_index": 123}, "uniqueid": "MTK2612:36U2A8VAG263QPO1LZKV77TYYUUKYQ", "dateTime": 1519156904545}, {"current_trial": 124, "trialdata": {"rt": -1, "trial_type": "single-stim", "word": "pocket", "stimulus": "<p id=\"stim\">POCKET</p>", "conditions": [12, 1600, "v", 12000], "internal_node_id": "0.0-88.0", "trial": 3, "time_elapsed": 719093, "serialpos": 7, "key_press": -1, "wordID": 1092, "type": "PRES_VIS", "trial_index": 124}, "uniqueid": "MTK2612:36U2A8VAG263QPO1LZKV77TYYUUKYQ", "dateTime": 1519156907333}, {"current_trial": 125, "trialdata": {"rt": -1, "trial_type": "single-stim", "word": "foot", "stimulus": "<p id=\"stim\">FOOT</p>", "conditions": [12, 1600, "v", 12000], "internal_node_id": "0.0-89.0", "trial": 3, "time_elapsed": 721529, "serialpos": 8, "key_press": -1, "wordID": 589, "type": "PRES_VIS", "trial_index": 125}, "uniqueid": "MTK2612:36U2A8VAG263QPO1LZKV77TYYUUKYQ", "dateTime": 1519156909770}, {"current_trial": 126, "trialdata": {"rt": -1, "trial_type": "single-stim", "word": "office", "stimulus": "<p id=\"stim\">OFFICE</p>", "conditions": [12, 1600, "v", 12000], "internal_node_id": "0.0-90.0", "trial": 3, "time_elapsed": 724114, "serialpos": 9, "key_press": -1, "wordID": 971, "type": "PRES_VIS", "trial_index": 126}, "uniqueid": "MTK2612:36U2A8VAG263QPO1LZKV77TYYUUKYQ", "dateTime": 1519156912354}, {"current_trial": 127, "trialdata": {"rt": -1, "trial_type": "single-stim", "word": "dragon", "stimulus": "<p id=\"stim\">DRAGON</p>", "conditions": [12, 1600, "v", 12000], "internal_node_id": "0.0-91.0", "trial": 3, "time_elapsed": 726672, "serialpos": 10, "key_press": -1, "wordID": 491, "type": "PRES_VIS", "trial_index": 127}, "uniqueid": "MTK2612:36U2A8VAG263QPO1LZKV77TYYUUKYQ", "dateTime": 1519156914912}, {"current_trial": 128, "trialdata": {"rt": -1, "trial_type": "single-stim", "word": "gymnast", "stimulus": "<p id=\"stim\">GYMNAST</p>", "conditions": [12, 1600, "v", 12000], "internal_node_id": "0.0-92.0", "trial": 3, "time_elapsed": 729436, "serialpos": 11, "key_press": -1, "wordID": 674, "type": "PRES_VIS", "trial_index": 128}, "uniqueid": "MTK2612:36U2A8VAG263QPO1LZKV77TYYUUKYQ", "dateTime": 1519156917676}, {"current_trial": 129, "trialdata": {"rt": -1, "trial_type": "single-stim", "stimulus": "", "internal_node_id": "0.0-93.0-0.0", "time_elapsed": 731927, "key_press": -1, "type": "PRE_RECALL_DELAY", "trial_index": 129}, "uniqueid": "MTK2612:36U2A8VAG263QPO1LZKV77TYYUUKYQ", "dateTime": 1519156920167}, {"current_trial": 130, "trialdata": {"rt": -1000, "trial_type": "single-audio", "stimulus": "/static/audio/400Hz.wav", "internal_node_id": "0.0-94.0", "time_elapsed": 732428, "key_press": -1, "type": "PRE_RECALL_ALERT", "trial_index": 130}, "uniqueid": "MTK2612:36U2A8VAG263QPO1LZKV77TYYUUKYQ", "dateTime": 1519156920668}, {"current_trial": 131, "trialdata": {"rt": [5591, 8953, 11503, 16160, 18319, 21999, 24955, 29791, 34695, 39200, 41584, 47544], "recwords": ["dragon", "office", "foot", "pocket", "baby", "daughter", "lodge", "waiter", "golbin", "cousin", "agent", "gymnast"], "key_times": [3135, 3375, 3615, 3975, 4328, 4624, 5591, 7743, 7935, 8144, 8296, 8479, 8640, 8953, 10679, 10910, 11087, 11223, 11503, 13511, 13816, 14232, 14448, 14584, 14879, 16160, 16655, 16856, 17080, 17775, 18319, 19360, 19543, 19791, 20039, 20255, 20472, 20608, 20823, 21999, 23056, 23272, 23624, 23863, 24047, 24955, 26591, 26823, 27040, 27183, 28303, 28463, 28647, 28913, 29791, 31815, 32103, 32343, 32767, 33065, 33383, 34695, 37105, 37369, 37616, 37768, 37952, 38200, 39200, 39784, 40152, 40368, 40600, 40816, 41584, 43744, 43992, 45152, 45848, 45992, 46232, 46576, 47544], "trial_type": "free-recall", "conditions": [12, 1600, "v", 12000], "internal_node_id": "0.0-95.0-0.0", "key_presses": [68, 82, 65, 71, 79, 78, 13, 79, 70, 70, 73, 67, 69, 13, 70, 79, 79, 84, 32, 80, 79, 67, 75, 69, 84, 13, 66, 65, 66, 89, 13, 68, 65, 85, 71, 72, 84, 69, 82, 13, 76, 79, 68, 71, 69, 13, 87, 65, 73, 82, 8, 84, 69, 82, 13, 71, 79, 76, 66, 73, 78, 13, 67, 79, 85, 83, 73, 78, 13, 65, 71, 69, 78, 84, 13, 71, 89, 77, 78, 65, 83, 84, 13], "trial": 3, "time_elapsed": 792431, "type": "FREE_RECALL", "trial_index": 131}, "uniqueid": "MTK2612:36U2A8VAG263QPO1LZKV77TYYUUKYQ", "dateTime": 1519156980672}, {"current_trial": 132, "trialdata": {"rt": 1733, "trial_type": "text", "internal_node_id": "0.0-96.0", "time_elapsed": 796165, "key_press": 32, "type": "INSTRUCTIONS", "trial_index": 132}, "uniqueid": "MTK2612:36U2A8VAG263QPO1LZKV77TYYUUKYQ", "dateTime": 1519156984405}, {"current_trial": 133, "trialdata": {"rt": [3039, 8199, 11287], "trial_type": "math-distractor", "key_times": [2526, 2735, 3039, 7561, 7871, 8199, 9926, 10766, 11038, 11287], "responses": ["12", "19", "5"], "num2": [2, 7, 2, 9], "num3": [6, 7, 1, 1], "conditions": [24, 1600, "v", 12000], "internal_node_id": "0.0-97.0", "key_presses": [97, 98, 13, 97, 105, 13, 100, 8, 101, 13], "trial": 4, "time_elapsed": 810168, "type": "DISTRACTOR", "trial_index": 133, "num1": [4, 5, 2, 5]}, "uniqueid": "MTK2612:36U2A8VAG263QPO1LZKV77TYYUUKYQ", "dateTime": 1519156998408}, {"current_trial": 134, "trialdata": {"rt": -1, "trial_type": "single-stim", "stimulus": "<p id=\"stim\">10</p>", "internal_node_id": "0.0-98.0-0.0", "time_elapsed": 813170, "key_press": -1, "trial_index": 134}, "uniqueid": "MTK2612:36U2A8VAG263QPO1LZKV77TYYUUKYQ", "dateTime": 1519157001410}, {"current_trial": 135, "trialdata": {"rt": -1, "trial_type": "single-stim", "stimulus": "<p id=\"stim\">9</p>", "internal_node_id": "0.0-98.0-1.0", "time_elapsed": 814171, "key_press": -1, "trial_index": 135}, "uniqueid": "MTK2612:36U2A8VAG263QPO1LZKV77TYYUUKYQ", "dateTime": 1519157002411}, {"current_trial": 136, "trialdata": {"rt": -1, "trial_type": "single-stim", "stimulus": "<p id=\"stim\">8</p>", "internal_node_id": "0.0-98.0-2.0", "time_elapsed": 815172, "key_press": -1, "trial_index": 136}, "uniqueid": "MTK2612:36U2A8VAG263QPO1LZKV77TYYUUKYQ", "dateTime": 1519157003412}, {"current_trial": 137, "trialdata": {"rt": -1, "trial_type": "single-stim", "stimulus": "<p id=\"stim\">7</p>", "internal_node_id": "0.0-98.0-3.0", "time_elapsed": 816175, "key_press": -1, "trial_index": 137}, "uniqueid": "MTK2612:36U2A8VAG263QPO1LZKV77TYYUUKYQ", "dateTime": 1519157004415}, {"current_trial": 138, "trialdata": {"rt": -1, "trial_type": "single-stim", "stimulus": "<p id=\"stim\">6</p>", "internal_node_id": "0.0-98.0-4.0", "time_elapsed": 817176, "key_press": -1, "trial_index": 138}, "uniqueid": "MTK2612:36U2A8VAG263QPO1LZKV77TYYUUKYQ", "dateTime": 1519157005416}, {"current_trial": 139, "trialdata": {"rt": -1, "trial_type": "single-stim", "stimulus": "<p id=\"stim\">5</p>", "internal_node_id": "0.0-98.0-5.0", "time_elapsed": 818177, "key_press": -1, "trial_index": 139}, "uniqueid": "MTK2612:36U2A8VAG263QPO1LZKV77TYYUUKYQ", "dateTime": 1519157006417}, {"current_trial": 140, "trialdata": {"rt": -1, "trial_type": "single-stim", "stimulus": "<p id=\"stim\">4</p>", "internal_node_id": "0.0-98.0-6.0", "time_elapsed": 819178, "key_press": -1, "trial_index": 140}, "uniqueid": "MTK2612:36U2A8VAG263QPO1LZKV77TYYUUKYQ", "dateTime": 1519157007419}, {"current_trial": 141, "trialdata": {"rt": -1, "trial_type": "single-stim", "stimulus": "<p id=\"stim\">3</p>", "internal_node_id": "0.0-98.0-7.0", "time_elapsed": 820179, "key_press": -1, "trial_index": 141}, "uniqueid": "MTK2612:36U2A8VAG263QPO1LZKV77TYYUUKYQ", "dateTime": 1519157008419}, {"current_trial": 142, "trialdata": {"rt": -1, "trial_type": "single-stim", "stimulus": "<p id=\"stim\">2</p>", "internal_node_id": "0.0-98.0-8.0", "time_elapsed": 821180, "key_press": -1, "trial_index": 142}, "uniqueid": "MTK2612:36U2A8VAG263QPO1LZKV77TYYUUKYQ", "dateTime": 1519157009420}, {"current_trial": 143, "trialdata": {"rt": -1, "trial_type": "single-stim", "stimulus": "<p id=\"stim\">1</p>", "internal_node_id": "0.0-98.0-9.0", "time_elapsed": 822181, "key_press": -1, "trial_index": 143}, "uniqueid": "MTK2612:36U2A8VAG263QPO1LZKV77TYYUUKYQ", "dateTime": 1519157010421}, {"current_trial": 144, "trialdata": {"rt": -1, "trial_type": "single-stim", "stimulus": "<p id=\"stim\">+</p>", "internal_node_id": "0.0-99.0-0.0", "time_elapsed": 823683, "key_press": -1, "type": "FIXATION", "trial_index": 144}, "uniqueid": "MTK2612:36U2A8VAG263QPO1LZKV77TYYUUKYQ", "dateTime": 1519157011923}, {"current_trial": 145, "trialdata": {"rt": -1, "trial_type": "single-stim", "word": "candy", "stimulus": "<p id=\"stim\">CANDY</p>", "conditions": [24, 1600, "v", 12000], "internal_node_id": "0.0-100.0", "trial": 4, "time_elapsed": 825283, "serialpos": 0, "key_press": -1, "wordID": 229, "type": "PRES_VIS", "trial_index": 145}, "uniqueid": "MTK2612:36U2A8VAG263QPO1LZKV77TYYUUKYQ", "dateTime": 1519157013523}, {"current_trial": 146, "trialdata": {"rt": -1, "trial_type": "single-stim", "word": "pizza", "stimulus": "<p id=\"stim\">PIZZA</p>", "conditions": [24, 1600, "v", 12000], "internal_node_id": "0.0-101.0", "trial": 4, "time_elapsed": 827844, "serialpos": 1, "key_press": -1, "wordID": 1078, "type": "PRES_VIS", "trial_index": 146}, "uniqueid": "MTK2612:36U2A8VAG263QPO1LZKV77TYYUUKYQ", "dateTime": 1519157016084}, {"current_trial": 147, "trialdata": {"rt": -1, "trial_type": "single-stim", "word": "diner", "stimulus": "<p id=\"stim\">DINER</p>", "conditions": [24, 1600, "v", 12000], "internal_node_id": "0.0-102.0", "trial": 4, "time_elapsed": 830397, "serialpos": 2, "key_press": -1, "wordID": 466, "type": "PRES_VIS", "trial_index": 147}, "uniqueid": "MTK2612:36U2A8VAG263QPO1LZKV77TYYUUKYQ", "dateTime": 1519157018637}, {"current_trial": 148, "trialdata": {"rt": -1, "trial_type": "single-stim", "word": "daisy", "stimulus": "<p id=\"stim\">DAISY</p>", "conditions": [24, 1600, "v", 12000], "internal_node_id": "0.0-103.0", "trial": 4, "time_elapsed": 832982, "serialpos": 3, "key_press": -1, "wordID": 434, "type": "PRES_VIS", "trial_index": 148}, "uniqueid": "MTK2612:36U2A8VAG263QPO1LZKV77TYYUUKYQ", "dateTime": 1519157021222}, {"current_trial": 149, "trialdata": {"rt": -1, "trial_type": "single-stim", "word": "soda", "stimulus": "<p id=\"stim\">SODA</p>", "conditions": [24, 1600, "v", 12000], "internal_node_id": "0.0-104.0", "trial": 4, "time_elapsed": 835574, "serialpos": 4, "key_press": -1, "wordID": 1340, "type": "PRES_VIS", "trial_index": 149}, "uniqueid": "MTK2612:36U2A8VAG263QPO1LZKV77TYYUUKYQ", "dateTime": 1519157023814}, {"current_trial": 150, "trialdata": {"rt": -1, "trial_type": "single-stim", "word": "freckle", "stimulus": "<p id=\"stim\">FRECKLE</p>", "conditions": [24, 1600, "v", 12000], "internal_node_id": "0.0-105.0", "trial": 4, "time_elapsed": 838312, "serialpos": 5, "key_press": -1, "wordID": 601, "type": "PRES_VIS", "trial_index": 150}, "uniqueid": "MTK2612:36U2A8VAG263QPO1LZKV77TYYUUKYQ", "dateTime": 1519157026552}, {"current_trial": 151, "trialdata": {"rt": -1, "trial_type": "single-stim", "word": "picnic", "stimulus": "<p id=\"stim\">PICNIC</p>", "conditions": [24, 1600, "v", 12000], "internal_node_id": "0.0-106.0", "trial": 4, "time_elapsed": 840835, "serialpos": 6, "key_press": -1, "wordID": 1059, "type": "PRES_VIS", "trial_index": 151}, "uniqueid": "MTK2612:36U2A8VAG263QPO1LZKV77TYYUUKYQ", "dateTime": 1519157029075}, {"current_trial": 152, "trialdata": {"rt": -1, "trial_type": "single-stim", "word": "sphinx", "stimulus": "<p id=\"stim\">SPHINX</p>", "conditions": [24, 1600, "v", 12000], "internal_node_id": "0.0-107.0", "trial": 4, "time_elapsed": 843620, "serialpos": 7, "key_press": -1, "wordID": 1348, "type": "PRES_VIS", "trial_index": 152}, "uniqueid": "MTK2612:36U2A8VAG263QPO1LZKV77TYYUUKYQ", "dateTime": 1519157031860}, {"current_trial": 153, "trialdata": {"rt": -1, "trial_type": "single-stim", "word": "raft", "stimulus": "<p id=\"stim\">RAFT</p>", "conditions": [24, 1600, "v", 12000], "internal_node_id": "0.0-108.0", "trial": 4, "time_elapsed": 846301, "serialpos": 8, "key_press": -1, "wordID": 1158, "type": "PRES_VIS", "trial_index": 153}, "uniqueid": "MTK2612:36U2A8VAG263QPO1LZKV77TYYUUKYQ", "dateTime": 1519157034541}, {"current_trial": 154, "trialdata": {"rt": -1, "trial_type": "single-stim", "word": "rod", "stimulus": "<p id=\"stim\">ROD</p>", "conditions": [24, 1600, "v", 12000], "internal_node_id": "0.0-109.0", "trial": 4, "time_elapsed": 848940, "serialpos": 9, "key_press": -1, "wordID": 1202, "type": "PRES_VIS", "trial_index": 154}, "uniqueid": "MTK2612:36U2A8VAG263QPO1LZKV77TYYUUKYQ", "dateTime": 1519157037180}, {"current_trial": 155, "trialdata": {"rt": -1, "trial_type": "single-stim", "word": "costume", "stimulus": "<p id=\"stim\">COSTUME</p>", "conditions": [24, 1600, "v", 12000], "internal_node_id": "0.0-110.0", "trial": 4, "time_elapsed": 851560, "serialpos": 10, "key_press": -1, "wordID": 382, "type": "PRES_VIS", "trial_index": 155}, "uniqueid": "MTK2612:36U2A8VAG263QPO1LZKV77TYYUUKYQ", "dateTime": 1519157039800}, {"current_trial": 156, "trialdata": {"rt": -1, "trial_type": "single-stim", "word": "drink", "stimulus": "<p id=\"stim\">DRINK</p>", "conditions": [24, 1600, "v", 12000], "internal_node_id": "0.0-111.0", "trial": 4, "time_elapsed": 854187, "serialpos": 11, "key_press": -1, "wordID": 497, "type": "PRES_VIS", "trial_index": 156}, "uniqueid": "MTK2612:36U2A8VAG263QPO1LZKV77TYYUUKYQ", "dateTime": 1519157042427}, {"current_trial": 157, "trialdata": {"rt": -1, "trial_type": "single-stim", "word": "truck", "stimulus": "<p id=\"stim\">TRUCK</p>", "conditions": [24, 1600, "v", 12000], "internal_node_id": "0.0-112.0", "trial": 4, "time_elapsed": 856820, "serialpos": 12, "key_press": -1, "wordID": 1511, "type": "PRES_VIS", "trial_index": 157}, "uniqueid": "MTK2612:36U2A8VAG263QPO1LZKV77TYYUUKYQ", "dateTime": 1519157045061}, {"current_trial": 158, "trialdata": {"rt": -1, "trial_type": "single-stim", "word": "pasta", "stimulus": "<p id=\"stim\">PASTA</p>", "conditions": [24, 1600, "v", 12000], "internal_node_id": "0.0-113.0", "trial": 4, "time_elapsed": 859281, "serialpos": 13, "key_press": -1, "wordID": 1020, "type": "PRES_VIS", "trial_index": 158}, "uniqueid": "MTK2612:36U2A8VAG263QPO1LZKV77TYYUUKYQ", "dateTime": 1519157047521}, {"current_trial": 159, "trialdata": {"rt": -1, "trial_type": "single-stim", "word": "sponge", "stimulus": "<p id=\"stim\">SPONGE</p>", "conditions": [24, 1600, "v", 12000], "internal_node_id": "0.0-114.0", "trial": 4, "time_elapsed": 861786, "serialpos": 14, "key_press": -1, "wordID": 1354, "type": "PRES_VIS", "trial_index": 159}, "uniqueid": "MTK2612:36U2A8VAG263QPO1LZKV77TYYUUKYQ", "dateTime": 1519157050026}, {"current_trial": 160, "trialdata": {"rt": -1, "trial_type": "single-stim", "word": "cigar", "stimulus": "<p id=\"stim\">CIGAR</p>", "conditions": [24, 1600, "v", 12000], "internal_node_id": "0.0-115.0", "trial": 4, "time_elapsed": 864312, "serialpos": 15, "key_press": -1, "wordID": 307, "type": "PRES_VIS", "trial_index": 160}, "uniqueid": "MTK2612:36U2A8VAG263QPO1LZKV77TYYUUKYQ", "dateTime": 1519157052552}, {"current_trial": 161, "trialdata": {"rt": -1, "trial_type": "single-stim", "word": "poet", "stimulus": "<p id=\"stim\">POET</p>", "conditions": [24, 1600, "v", 12000], "internal_node_id": "0.0-116.0", "trial": 4, "time_elapsed": 867082, "serialpos": 16, "key_press": -1, "wordID": 1094, "type": "PRES_VIS", "trial_index": 161}, "uniqueid": "MTK2612:36U2A8VAG263QPO1LZKV77TYYUUKYQ", "dateTime": 1519157055322}, {"current_trial": 162, "trialdata": {"rt": -1, "trial_type": "single-stim", "word": "balloon", "stimulus": "<p id=\"stim\">BALLOON</p>", "conditions": [24, 1600, "v", 12000], "internal_node_id": "0.0-117.0", "trial": 4, "time_elapsed": 869549, "serialpos": 17, "key_press": -1, "wordID": 74, "type": "PRES_VIS", "trial_index": 162}, "uniqueid": "MTK2612:36U2A8VAG263QPO1LZKV77TYYUUKYQ", "dateTime": 1519157057789}, {"current_trial": 163, "trialdata": {"rt": -1, "trial_type": "single-stim", "word": "arm", "stimulus": "<p id=\"stim\">ARM</p>", "conditions": [24, 1600, "v", 12000], "internal_node_id": "0.0-118.0", "trial": 4, "time_elapsed": 872283, "serialpos": 18, "key_press": -1, "wordID": 37, "type": "PRES_VIS", "trial_index": 163}, "uniqueid": "MTK2612:36U2A8VAG263QPO1LZKV77TYYUUKYQ", "dateTime": 1519157060523}, {"current_trial": 164, "trialdata": {"rt": -1, "trial_type": "single-stim", "word": "transplant", "stimulus": "<p id=\"stim\">TRANSPLANT</p>", "conditions": [24, 1600, "v", 12000], "internal_node_id": "0.0-119.0", "trial": 4, "time_elapsed": 875074, "serialpos": 19, "key_press": -1, "wordID": 1495, "type": "PRES_VIS", "trial_index": 164}, "uniqueid": "MTK2612:36U2A8VAG263QPO1LZKV77TYYUUKYQ", "dateTime": 1519157063314}, {"current_trial": 165, "trialdata": {"rt": -1, "trial_type": "single-stim", "word": "kidney", "stimulus": "<p id=\"stim\">KIDNEY</p>", "conditions": [24, 1600, "v", 12000], "internal_node_id": "0.0-120.0", "trial": 4, "time_elapsed": 877635, "serialpos": 20, "key_press": -1, "wordID": 775, "type": "PRES_VIS", "trial_index": 165}, "uniqueid": "MTK2612:36U2A8VAG263QPO1LZKV77TYYUUKYQ", "dateTime": 1519157065875}, {"current_trial": 166, "trialdata": {"rt": -1, "trial_type": "single-stim", "word": "child", "stimulus": "<p id=\"stim\">CHILD</p>", "conditions": [24, 1600, "v", 12000], "internal_node_id": "0.0-121.0", "trial": 4, "time_elapsed": 880231, "serialpos": 21, "key_press": -1, "wordID": 298, "type": "PRES_VIS", "trial_index": 166}, "uniqueid": "MTK2612:36U2A8VAG263QPO1LZKV77TYYUUKYQ", "dateTime": 1519157068471}, {"current_trial": 167, "trialdata": {"rt": -1, "trial_type": "single-stim", "word": "maple", "stimulus": "<p id=\"stim\">MAPLE</p>", "conditions": [24, 1600, "v", 12000], "internal_node_id": "0.0-122.0", "trial": 4, "time_elapsed": 882872, "serialpos": 22, "key_press": -1, "wordID": 865, "type": "PRES_VIS", "trial_index": 167}, "uniqueid": "MTK2612:36U2A8VAG263QPO1LZKV77TYYUUKYQ", "dateTime": 1519157071112}, {"current_trial": 168, "trialdata": {"rt": -1, "trial_type": "single-stim", "word": "driver", "stimulus": "<p id=\"stim\">DRIVER</p>", "conditions": [24, 1600, "v", 12000], "internal_node_id": "0.0-123.0", "trial": 4, "time_elapsed": 885447, "serialpos": 23, "key_press": -1, "wordID": 498, "type": "PRES_VIS", "trial_index": 168}, "uniqueid": "MTK2612:36U2A8VAG263QPO1LZKV77TYYUUKYQ", "dateTime": 1519157073687}, {"current_trial": 169, "trialdata": {"rt": -1, "trial_type": "single-stim", "stimulus": "", "internal_node_id": "0.0-124.0-0.0", "time_elapsed": 887834, "key_press": -1, "type": "PRE_RECALL_DELAY", "trial_index": 169}, "uniqueid": "MTK2612:36U2A8VAG263QPO1LZKV77TYYUUKYQ", "dateTime": 1519157076074}, {"current_trial": 170, "trialdata": {"rt": -1000, "trial_type": "single-audio", "stimulus": "/static/audio/400Hz.wav", "internal_node_id": "0.0-125.0", "time_elapsed": 888335, "key_press": -1, "type": "PRE_RECALL_ALERT", "trial_index": 170}, "uniqueid": "MTK2612:36U2A8VAG263QPO1LZKV77TYYUUKYQ", "dateTime": 1519157076575}, {"current_trial": 171, "trialdata": {"rt": [4733, 9045, 13149, 16373, 18533, 21221, 24591, 27205, 30317, 33213, 36540, 40429, 44053, 48191, 53492, 58012], "recwords": ["driver", "maple", "child", "kidney", "arm", "ballon", "poet", "cigar", "pasta", "truck", "drink", "costume", "rod", "raft", "sphinx", "picnic"], "key_times": [2324, 2550, 2861, 3254, 3413, 3637, 4733, 5733, 5918, 6214, 6517, 7190, 7445, 8038, 8197, 8341, 9045, 11509, 11694, 11958, 12181, 12373, 13149, 14325, 14517, 14732, 15005, 15245, 15581, 16373, 17861, 18110, 18309, 18533, 19669, 19925, 20109, 20277, 20452, 20717, 21221, 23125, 23349, 23501, 23765, 24591, 25845, 26117, 26429, 26556, 26772, 27205, 28293, 28437, 28701, 28909, 29053, 30317, 30965, 31197, 31429, 31661, 31909, 32543, 32885, 33213, 35477, 35708, 35893, 36100, 36333, 36540, 37933, 38164, 38861, 39372, 39589, 39796, 39949, 40429, 42348, 42549, 42805, 43573, 43749, 44053, 46285, 46620, 46765, 46949, 47197, 47373, 48191, 51317, 51556, 52061, 52277, 52484, 53173, 53492, 55789, 56076, 56733, 57044, 57252, 57621, 58012], "trial_type": "free-recall", "conditions": [24, 1600, "v", 12000], "internal_node_id": "0.0-126.0-0.0", "key_presses": [68, 82, 73, 86, 69, 82, 13, 77, 65, 79, 80, 8, 8, 80, 76, 69, 13, 67, 72, 73, 76, 68, 13, 75, 73, 68, 78, 69, 89, 13, 65, 82, 77, 32, 66, 65, 76, 76, 79, 78, 32, 80, 79, 69, 84, 13, 67, 73, 71, 65, 82, 13, 80, 65, 83, 84, 65, 32, 84, 82, 85, 67, 74, 8, 75, 32, 68, 82, 73, 78, 75, 32, 67, 79, 83, 84, 85, 77, 69, 13, 82, 79, 70, 8, 68, 13, 69, 8, 82, 65, 70, 84, 13, 83, 80, 72, 73, 78, 88, 13, 80, 73, 67, 78, 73, 67, 13], "trial": 4, "time_elapsed": 948338, "type": "FREE_RECALL", "trial_index": 171}, "uniqueid": "MTK2612:36U2A8VAG263QPO1LZKV77TYYUUKYQ", "dateTime": 1519157136579}, {"current_trial": 172, "trialdata": {"rt": 204, "trial_type": "text", "internal_node_id": "0.0-127.0", "time_elapsed": 950544, "key_press": 68, "type": "INSTRUCTIONS", "trial_index": 172}, "uniqueid": "MTK2612:36U2A8VAG263QPO1LZKV77TYYUUKYQ", "dateTime": 1519157138784}, {"current_trial": 173, "trialdata": {"rt": [4484, 8099, 10923, 14387, 16876, 22627], "trial_type": "math-distractor", "key_times": [1764, 2044, 3956, 4148, 4484, 7372, 7676, 8099, 10468, 10659, 10923, 13933, 14133, 14387, 16419, 16604, 16876, 19996, 20587, 20979, 20988, 21268, 22356, 22627], "responses": ["17", "17", "15", "15", "11", "21"], "num2": [1, 6, 7, 3, 6, 8, 1], "num3": [8, 9, 2, 3, 4, 4, 6], "conditions": [12, 800, "v", 24000], "internal_node_id": "0.0-128.0", "key_presses": [97, 104, 8, 103, 13, 97, 103, 13, 97, 101, 13, 97, 101, 13, 97, 97, 13, 97, 8, 98, 97, 97, 8, 13], "trial": 5, "time_elapsed": 976546, "type": "DISTRACTOR", "trial_index": 173, "num1": [8, 2, 6, 9, 1, 9, 1]}, "uniqueid": "MTK2612:36U2A8VAG263QPO1LZKV77TYYUUKYQ", "dateTime": 1519157164786}, {"current_trial": 174, "trialdata": {"rt": -1, "trial_type": "single-stim", "stimulus": "<p id=\"stim\">10</p>", "internal_node_id": "0.0-129.0-0.0", "time_elapsed": 979548, "key_press": -1, "trial_index": 174}, "uniqueid": "MTK2612:36U2A8VAG263QPO1LZKV77TYYUUKYQ", "dateTime": 1519157167788}, {"current_trial": 175, "trialdata": {"rt": -1, "trial_type": "single-stim", "stimulus": "<p id=\"stim\">9</p>", "internal_node_id": "0.0-129.0-1.0", "time_elapsed": 980550, "key_press": -1, "trial_index": 175}, "uniqueid": "MTK2612:36U2A8VAG263QPO1LZKV77TYYUUKYQ", "dateTime": 1519157168790}, {"current_trial": 176, "trialdata": {"rt": -1, "trial_type": "single-stim", "stimulus": "<p id=\"stim\">8</p>", "internal_node_id": "0.0-129.0-2.0", "time_elapsed": 981552, "key_press": -1, "trial_index": 176}, "uniqueid": "MTK2612:36U2A8VAG263QPO1LZKV77TYYUUKYQ", "dateTime": 1519157169792}, {"current_trial": 177, "trialdata": {"rt": -1, "trial_type": "single-stim", "stimulus": "<p id=\"stim\">7</p>", "internal_node_id": "0.0-129.0-3.0", "time_elapsed": 982552, "key_press": -1, "trial_index": 177}, "uniqueid": "MTK2612:36U2A8VAG263QPO1LZKV77TYYUUKYQ", "dateTime": 1519157170792}, {"current_trial": 178, "trialdata": {"rt": -1, "trial_type": "single-stim", "stimulus": "<p id=\"stim\">6</p>", "internal_node_id": "0.0-129.0-4.0", "time_elapsed": 983554, "key_press": -1, "trial_index": 178}, "uniqueid": "MTK2612:36U2A8VAG263QPO1LZKV77TYYUUKYQ", "dateTime": 1519157171794}, {"current_trial": 179, "trialdata": {"rt": -1, "trial_type": "single-stim", "stimulus": "<p id=\"stim\">5</p>", "internal_node_id": "0.0-129.0-5.0", "time_elapsed": 984555, "key_press": -1, "trial_index": 179}, "uniqueid": "MTK2612:36U2A8VAG263QPO1LZKV77TYYUUKYQ", "dateTime": 1519157172795}, {"current_trial": 180, "trialdata": {"rt": -1, "trial_type": "single-stim", "stimulus": "<p id=\"stim\">4</p>", "internal_node_id": "0.0-129.0-6.0", "time_elapsed": 985555, "key_press": -1, "trial_index": 180}, "uniqueid": "MTK2612:36U2A8VAG263QPO1LZKV77TYYUUKYQ", "dateTime": 1519157173795}, {"current_trial": 181, "trialdata": {"rt": -1, "trial_type": "single-stim", "stimulus": "<p id=\"stim\">3</p>", "internal_node_id": "0.0-129.0-7.0", "time_elapsed": 986557, "key_press": -1, "trial_index": 181}, "uniqueid": "MTK2612:36U2A8VAG263QPO1LZKV77TYYUUKYQ", "dateTime": 1519157174797}, {"current_trial": 182, "trialdata": {"rt": -1, "trial_type": "single-stim", "stimulus": "<p id=\"stim\">2</p>", "internal_node_id": "0.0-129.0-8.0", "time_elapsed": 987558, "key_press": -1, "trial_index": 182}, "uniqueid": "MTK2612:36U2A8VAG263QPO1LZKV77TYYUUKYQ", "dateTime": 1519157175798}, {"current_trial": 183, "trialdata": {"rt": -1, "trial_type": "single-stim", "stimulus": "<p id=\"stim\">1</p>", "internal_node_id": "0.0-129.0-9.0", "time_elapsed": 988559, "key_press": -1, "trial_index": 183}, "uniqueid": "MTK2612:36U2A8VAG263QPO1LZKV77TYYUUKYQ", "dateTime": 1519157176799}, {"current_trial": 184, "trialdata": {"rt": -1, "trial_type": "single-stim", "stimulus": "<p id=\"stim\">+</p>", "internal_node_id": "0.0-130.0-0.0", "time_elapsed": 990060, "key_press": -1, "type": "FIXATION", "trial_index": 184}, "uniqueid": "MTK2612:36U2A8VAG263QPO1LZKV77TYYUUKYQ", "dateTime": 1519157178300}, {"current_trial": 185, "trialdata": {"rt": -1, "trial_type": "single-stim", "word": "survey", "stimulus": "<p id=\"stim\">SURVEY</p>", "conditions": [12, 800, "v", 24000], "internal_node_id": "0.0-131.0", "trial": 5, "time_elapsed": 990861, "serialpos": 0, "key_press": -1, "wordID": 1413, "type": "PRES_VIS", "trial_index": 185}, "uniqueid": "MTK2612:36U2A8VAG263QPO1LZKV77TYYUUKYQ", "dateTime": 1519157179101}, {"current_trial": 186, "trialdata": {"rt": -1, "trial_type": "single-stim", "word": "report", "stimulus": "<p id=\"stim\">REPORT</p>", "conditions": [12, 800, "v", 24000], "internal_node_id": "0.0-132.0", "trial": 5, "time_elapsed": 992858, "serialpos": 1, "key_press": -1, "wordID": 1183, "type": "PRES_VIS", "trial_index": 186}, "uniqueid": "MTK2612:36U2A8VAG263QPO1LZKV77TYYUUKYQ", "dateTime": 1519157181098}, {"current_trial": 187, "trialdata": {"rt": -1, "trial_type": "single-stim", "word": "swamp", "stimulus": "<p id=\"stim\">SWAMP</p>", "conditions": [12, 800, "v", 24000], "internal_node_id": "0.0-133.0", "trial": 5, "time_elapsed": 994855, "serialpos": 2, "key_press": -1, "wordID": 1415, "type": "PRES_VIS", "trial_index": 187}, "uniqueid": "MTK2612:36U2A8VAG263QPO1LZKV77TYYUUKYQ", "dateTime": 1519157183095}, {"current_trial": 188, "trialdata": {"rt": -1, "trial_type": "single-stim", "word": "farmer", "stimulus": "<p id=\"stim\">FARMER</p>", "conditions": [12, 800, "v", 24000], "internal_node_id": "0.0-134.0", "trial": 5, "time_elapsed": 996724, "serialpos": 3, "key_press": -1, "wordID": 552, "type": "PRES_VIS", "trial_index": 188}, "uniqueid": "MTK2612:36U2A8VAG263QPO1LZKV77TYYUUKYQ", "dateTime": 1519157184964}, {"current_trial": 189, "trialdata": {"rt": -1, "trial_type": "single-stim", "word": "muffin", "stimulus": "<p id=\"stim\">MUFFIN</p>", "conditions": [12, 800, "v", 24000], "internal_node_id": "0.0-135.0", "trial": 5, "time_elapsed": 998423, "serialpos": 4, "key_press": -1, "wordID": 928, "type": "PRES_VIS", "trial_index": 189}, "uniqueid": "MTK2612:36U2A8VAG263QPO1LZKV77TYYUUKYQ", "dateTime": 1519157186663}, {"current_trial": 190, "trialdata": {"rt": -1, "trial_type": "single-stim", "word": "trout", "stimulus": "<p id=\"stim\">TROUT</p>", "conditions": [12, 800, "v", 24000], "internal_node_id": "0.0-136.0", "trial": 5, "time_elapsed": 1000200, "serialpos": 5, "key_press": -1, "wordID": 1510, "type": "PRES_VIS", "trial_index": 190}, "uniqueid": "MTK2612:36U2A8VAG263QPO1LZKV77TYYUUKYQ", "dateTime": 1519157188440}, {"current_trial": 191, "trialdata": {"rt": -1, "trial_type": "single-stim", "word": "whiskers", "stimulus": "<p id=\"stim\">WHISKERS</p>", "conditions": [12, 800, "v", 24000], "internal_node_id": "0.0-137.0", "trial": 5, "time_elapsed": 1002003, "serialpos": 6, "key_press": -1, "wordID": 1604, "type": "PRES_VIS", "trial_index": 191}, "uniqueid": "MTK2612:36U2A8VAG263QPO1LZKV77TYYUUKYQ", "dateTime": 1519157190243}, {"current_trial": 192, "trialdata": {"rt": -1, "trial_type": "single-stim", "word": "sandwich", "stimulus": "<p id=\"stim\">SANDWICH</p>", "conditions": [12, 800, "v", 24000], "internal_node_id": "0.0-138.0", "trial": 5, "time_elapsed": 1003900, "serialpos": 7, "key_press": -1, "wordID": 1231, "type": "PRES_VIS", "trial_index": 192}, "uniqueid": "MTK2612:36U2A8VAG263QPO1LZKV77TYYUUKYQ", "dateTime": 1519157192140}, {"current_trial": 193, "trialdata": {"rt": -1, "trial_type": "single-stim", "word": "mister", "stimulus": "<p id=\"stim\">MISTER</p>", "conditions": [12, 800, "v", 24000], "internal_node_id": "0.0-139.0", "trial": 5, "time_elapsed": 1005569, "serialpos": 8, "key_press": -1, "wordID": 900, "type": "PRES_VIS", "trial_index": 193}, "uniqueid": "MTK2612:36U2A8VAG263QPO1LZKV77TYYUUKYQ", "dateTime": 1519157193809}, {"current_trial": 194, "trialdata": {"rt": -1, "trial_type": "single-stim", "word": "dandruff", "stimulus": "<p id=\"stim\">DANDRUFF</p>", "conditions": [12, 800, "v", 24000], "internal_node_id": "0.0-140.0", "trial": 5, "time_elapsed": 1007532, "serialpos": 9, "key_press": -1, "wordID": 438, "type": "PRES_VIS", "trial_index": 194}, "uniqueid": "MTK2612:36U2A8VAG263QPO1LZKV77TYYUUKYQ", "dateTime": 1519157195772}, {"current_trial": 195, "trialdata": {"rt": -1, "trial_type": "single-stim", "word": "necklace", "stimulus": "<p id=\"stim\">NECKLACE</p>", "conditions": [12, 800, "v", 24000], "internal_node_id": "0.0-141.0", "trial": 5, "time_elapsed": 1009203, "serialpos": 10, "key_press": -1, "wordID": 939, "type": "PRES_VIS", "trial_index": 195}, "uniqueid": "MTK2612:36U2A8VAG263QPO1LZKV77TYYUUKYQ", "dateTime": 1519157197443}, {"current_trial": 196, "trialdata": {"rt": -1, "trial_type": "single-stim", "word": "mildew", "stimulus": "<p id=\"stim\">MILDEW</p>", "conditions": [12, 800, "v", 24000], "internal_node_id": "0.0-142.0", "trial": 5, "time_elapsed": 1011147, "serialpos": 11, "key_press": -1, "wordID": 892, "type": "PRES_VIS", "trial_index": 196}, "uniqueid": "MTK2612:36U2A8VAG263QPO1LZKV77TYYUUKYQ", "dateTime": 1519157199387}, {"current_trial": 197, "trialdata": {"rt": -1, "trial_type": "single-stim", "stimulus": "", "internal_node_id": "0.0-143.0-0.0", "time_elapsed": 1013504, "key_press": -1, "type": "PRE_RECALL_DELAY", "trial_index": 197}, "uniqueid": "MTK2612:36U2A8VAG263QPO1LZKV77TYYUUKYQ", "dateTime": 1519157201744}, {"current_trial": 198, "trialdata": {"rt": -1000, "trial_type": "single-audio", "stimulus": "/static/audio/400Hz.wav", "internal_node_id": "0.0-144.0", "time_elapsed": 1014005, "key_press": -1, "type": "PRE_RECALL_ALERT", "trial_index": 198}, "uniqueid": "MTK2612:36U2A8VAG263QPO1LZKV77TYYUUKYQ", "dateTime": 1519157202245}], "currenttrial": 199, "condition": 0, "mode": "live"}