{"assignmentId": "3S3AMIZX3VCI9GHMXQGJ636PA0YCDL", "workerId": "MTK2262", "questiondata": {"avail_screen_height": 728, "color_depth": 24, "screen_width": 1366, "pixel_depth": 24, "avail_screen_width": 1366, "screen_height": 768}, "bonus": 0, "hitId": "37G6BXQPLQSP837B81NW76H7V0EEQN", "counterbalance": 2293, "useragent": "Mozilla/5.0 (Windows NT 10.0; Win64; x64) AppleWebKit/537.36 (KHTML, like Gecko) Chrome/63.0.3239.132 Safari/537.36", "eventdata": [{"eventtype": "initialized", "interval": 0, "value": null, "timestamp": 1516908383218}, {"eventtype": "window_resize", "interval": 0, "value": [1366, 721], "timestamp": 1516908383218}, {"eventtype": "focus", "interval": 73987, "value": "off", "timestamp": 1516908457205}, {"eventtype": "focus", "interval": 17314, "value": "on", "timestamp": 1516908474519}, {"eventtype": "focus", "interval": 48034, "value": "off", "timestamp": 1516908522553}, {"eventtype": "focus", "interval": 4, "value": "on", "timestamp": 1516908522557}], "data": [{"current_trial": 0, "trialdata": {"rt": 3018, "trial_type": "text", "internal_node_id": "0.0-0.0", "time_elapsed": 3025, "key_press": 32, "type": "INSTRUCTIONS", "trial_index": 0}, "uniqueid": "MTK2262:3S3AMIZX3VCI9GHMXQGJ636PA0YCDL", "dateTime": 1516908456331}, {"current_trial": 1, "trialdata": {"rt": 698, "trial_type": "text", "internal_node_id": "0.0-1.0", "time_elapsed": 3730, "key_press": 91, "type": "INSTRUCTIONS", "trial_index": 1}, "uniqueid": "MTK2262:3S3AMIZX3VCI9GHMXQGJ636PA0YCDL", "dateTime": 1516908457032}, {"current_trial": 2, "trialdata": {"rt": [45138], "trial_type": "audio-test", "responses": ["ocean"], "internal_node_id": "0.0-2.0", "time_elapsed": 49008, "type": "AUDIO_TEST", "trial_index": 2}, "uniqueid": "MTK2262:3S3AMIZX3VCI9GHMXQGJ636PA0YCDL", "dateTime": 1516908502310}, {"current_trial": 3, "trialdata": {"rt": [9375], "trial_type": "audio-test", "responses": ["crystal"], "internal_node_id": "0.0-3.0", "time_elapsed": 58395, "type": "AUDIO_TEST", "trial_index": 3}, "uniqueid": "MTK2262:3S3AMIZX3VCI9GHMXQGJ636PA0YCDL", "dateTime": 1516908511697}, {"current_trial": 4, "trialdata": {"rt": [6848, 15669], "trial_type": "audio-test", "responses": ["dpivr", "spice"], "internal_node_id": "0.0-4.0", "time_elapsed": 74080, "type": "AUDIO_TEST", "trial_index": 4}, "uniqueid": "MTK2262:3S3AMIZX3VCI9GHMXQGJ636PA0YCDL", "dateTime": 1516908527382}, {"current_trial": 5, "trialdata": {"rt": 22422, "trial_type": "survey-text", "responses": "{\"Q0\":\"10\",\"Q1\":\"5\",\"Q2\":\"5\"}", "internal_node_id": "0.0-5.0", "time_elapsed": 97284, "type": "SLEEP_SURVEY", "trial_index": 5}, "uniqueid": "MTK2262:3S3AMIZX3VCI9GHMXQGJ636PA0YCDL", "dateTime": 1516908550585}, {"current_trial": 6, "trialdata": {"rt": 47904, "trial_type": "text", "internal_node_id": "0.0-6.0", "time_elapsed": 146193, "key_press": 32, "type": "INSTRUCTIONS", "trial_index": 6}, "uniqueid": "MTK2262:3S3AMIZX3VCI9GHMXQGJ636PA0YCDL", "dateTime": 1516908599494}, {"current_trial": 7, "trialdata": {"rt": 25540, "trial_type": "text", "internal_node_id": "0.0-7.0", "time_elapsed": 172270, "key_press": 32, "type": "INSTRUCTIONS", "trial_index": 7}, "uniqueid": "MTK2262:3S3AMIZX3VCI9GHMXQGJ636PA0YCDL", "dateTime": 1516908625571}, {"current_trial": 8, "trialdata": {"rt": 15030, "trial_type": "text", "internal_node_id": "0.0-8.0", "time_elapsed": 187812, "key_press": 32, "type": "INSTRUCTIONS", "trial_index": 8}, "uniqueid": "MTK2262:3S3AMIZX3VCI9GHMXQGJ636PA0YCDL", "dateTime": 1516908641114}, {"current_trial": 9, "trialdata": {"rt": [7287, 11167, 14495], "trial_type": "math-distractor", "key_times": [3724, 4823, 7287, 10703, 11167, 13868, 14495], "responses": ["9 ", "9", "8"], "num2": [1, 2, 1, 9], "num3": [1, 7, 4, 3], "conditions": [18, 1200, "a", 18000], "internal_node_id": "0.0-9.0", "key_presses": [57, 32, 13, 57, 13, 56, 13], "trial": 0, "time_elapsed": 206960, "type": "DISTRACTOR", "trial_index": 9, "num1": [7, 1, 3, 8]}, "uniqueid": "MTK2262:3S3AMIZX3VCI9GHMXQGJ636PA0YCDL", "dateTime": 1516908660261}, {"current_trial": 10, "trialdata": {"rt": -1, "trial_type": "single-stim", "stimulus": "<p id=\"stim\">10</p>", "internal_node_id": "0.0-10.0-0.0", "time_elapsed": 209965, "key_press": -1, "trial_index": 10}, "uniqueid": "MTK2262:3S3AMIZX3VCI9GHMXQGJ636PA0YCDL", "dateTime": 1516908663267}, {"current_trial": 11, "trialdata": {"rt": -1, "trial_type": "single-stim", "stimulus": "<p id=\"stim\">9</p>", "internal_node_id": "0.0-10.0-1.0", "time_elapsed": 210969, "key_press": -1, "trial_index": 11}, "uniqueid": "MTK2262:3S3AMIZX3VCI9GHMXQGJ636PA0YCDL", "dateTime": 1516908664271}, {"current_trial": 12, "trialdata": {"rt": -1, "trial_type": "single-stim", "stimulus": "<p id=\"stim\">8</p>", "internal_node_id": "0.0-10.0-2.0", "time_elapsed": 211972, "key_press": -1, "trial_index": 12}, "uniqueid": "MTK2262:3S3AMIZX3VCI9GHMXQGJ636PA0YCDL", "dateTime": 1516908665273}, {"current_trial": 13, "trialdata": {"rt": -1, "trial_type": "single-stim", "stimulus": "<p id=\"stim\">7</p>", "internal_node_id": "0.0-10.0-3.0", "time_elapsed": 212978, "key_press": -1, "trial_index": 13}, "uniqueid": "MTK2262:3S3AMIZX3VCI9GHMXQGJ636PA0YCDL", "dateTime": 1516908666279}, {"current_trial": 14, "trialdata": {"rt": -1, "trial_type": "single-stim", "stimulus": "<p id=\"stim\">6</p>", "internal_node_id": "0.0-10.0-4.0", "time_elapsed": 213980, "key_press": -1, "trial_index": 14}, "uniqueid": "MTK2262:3S3AMIZX3VCI9GHMXQGJ636PA0YCDL", "dateTime": 1516908667281}, {"current_trial": 15, "trialdata": {"rt": -1, "trial_type": "single-stim", "stimulus": "<p id=\"stim\">5</p>", "internal_node_id": "0.0-10.0-5.0", "time_elapsed": 214983, "key_press": -1, "trial_index": 15}, "uniqueid": "MTK2262:3S3AMIZX3VCI9GHMXQGJ636PA0YCDL", "dateTime": 1516908668284}, {"current_trial": 16, "trialdata": {"rt": -1, "trial_type": "single-stim", "stimulus": "<p id=\"stim\">4</p>", "internal_node_id": "0.0-10.0-6.0", "time_elapsed": 215986, "key_press": -1, "trial_index": 16}, "uniqueid": "MTK2262:3S3AMIZX3VCI9GHMXQGJ636PA0YCDL", "dateTime": 1516908669287}, {"current_trial": 17, "trialdata": {"rt": -1, "trial_type": "single-stim", "stimulus": "<p id=\"stim\">3</p>", "internal_node_id": "0.0-10.0-7.0", "time_elapsed": 216987, "key_press": -1, "trial_index": 17}, "uniqueid": "MTK2262:3S3AMIZX3VCI9GHMXQGJ636PA0YCDL", "dateTime": 1516908670289}, {"current_trial": 18, "trialdata": {"rt": -1, "trial_type": "single-stim", "stimulus": "<p id=\"stim\">2</p>", "internal_node_id": "0.0-10.0-8.0", "time_elapsed": 217990, "key_press": -1, "trial_index": 18}, "uniqueid": "MTK2262:3S3AMIZX3VCI9GHMXQGJ636PA0YCDL", "dateTime": 1516908671292}, {"current_trial": 19, "trialdata": {"rt": -1, "trial_type": "single-stim", "stimulus": "<p id=\"stim\">1</p>", "internal_node_id": "0.0-10.0-9.0", "time_elapsed": 218993, "key_press": -1, "trial_index": 19}, "uniqueid": "MTK2262:3S3AMIZX3VCI9GHMXQGJ636PA0YCDL", "dateTime": 1516908672295}, {"current_trial": 20, "trialdata": {"rt": -1, "trial_type": "single-stim", "stimulus": "<p id=\"stim\">+</p>", "internal_node_id": "0.0-11.0-0.0", "time_elapsed": 220496, "key_press": -1, "type": "FIXATION", "trial_index": 20}, "uniqueid": "MTK2262:3S3AMIZX3VCI9GHMXQGJ636PA0YCDL", "dateTime": 1516908673797}, {"current_trial": 21, "trialdata": {"rt": -1000, "trial_type": "single-audio", "word": "tuba", "stimulus": "/static/audio/wordpool/TUBA.wav", "conditions": [18, 1200, "a", 18000], "internal_node_id": "0.0-12.0", "trial": 0, "time_elapsed": 222749, "serialpos": 0, "key_press": -1, "wordID": 1514, "type": "PRES_AUD", "trial_index": 21}, "uniqueid": "MTK2262:3S3AMIZX3VCI9GHMXQGJ636PA0YCDL", "dateTime": 1516908676050}, {"current_trial": 22, "trialdata": {"rt": -1000, "trial_type": "single-audio", "word": "shoulder", "stimulus": "/static/audio/wordpool/SHOULDER.wav", "conditions": [18, 1200, "a", 18000], "internal_node_id": "0.0-13.0", "trial": 0, "time_elapsed": 224857, "serialpos": 1, "key_press": -1, "wordID": 1293, "type": "PRES_AUD", "trial_index": 22}, "uniqueid": "MTK2262:3S3AMIZX3VCI9GHMXQGJ636PA0YCDL", "dateTime": 1516908678158}, {"current_trial": 23, "trialdata": {"rt": -1000, "trial_type": "single-audio", "word": "zipper", "stimulus": "/static/audio/wordpool/ZIPPER.wav", "conditions": [18, 1200, "a", 18000], "internal_node_id": "0.0-14.0", "trial": 0, "time_elapsed": 227026, "serialpos": 2, "key_press": -1, "wordID": 1635, "type": "PRES_AUD", "trial_index": 23}, "uniqueid": "MTK2262:3S3AMIZX3VCI9GHMXQGJ636PA0YCDL", "dateTime": 1516908680328}, {"current_trial": 24, "trialdata": {"rt": -1000, "trial_type": "single-audio", "word": "quail", "stimulus": "/static/audio/wordpool/QUAIL.wav", "conditions": [18, 1200, "a", 18000], "internal_node_id": "0.0-15.0", "trial": 0, "time_elapsed": 229227, "serialpos": 3, "key_press": -1, "wordID": 1146, "type": "PRES_AUD", "trial_index": 24}, "uniqueid": "MTK2262:3S3AMIZX3VCI9GHMXQGJ636PA0YCDL", "dateTime": 1516908682528}, {"current_trial": 25, "trialdata": {"rt": -1000, "trial_type": "single-audio", "word": "raft", "stimulus": "/static/audio/wordpool/RAFT.wav", "conditions": [18, 1200, "a", 18000], "internal_node_id": "0.0-16.0", "trial": 0, "time_elapsed": 231628, "serialpos": 4, "key_press": -1, "wordID": 1158, "type": "PRES_AUD", "trial_index": 25}, "uniqueid": "MTK2262:3S3AMIZX3VCI9GHMXQGJ636PA0YCDL", "dateTime": 1516908684929}, {"current_trial": 26, "trialdata": {"rt": -1000, "trial_type": "single-audio", "word": "finger", "stimulus": "/static/audio/wordpool/FINGER.wav", "conditions": [18, 1200, "a", 18000], "internal_node_id": "0.0-17.0", "trial": 0, "time_elapsed": 233955, "serialpos": 5, "key_press": -1, "wordID": 566, "type": "PRES_AUD", "trial_index": 26}, "uniqueid": "MTK2262:3S3AMIZX3VCI9GHMXQGJ636PA0YCDL", "dateTime": 1516908687257}, {"current_trial": 27, "trialdata": {"rt": -1000, "trial_type": "single-audio", "word": "dustpan", "stimulus": "/static/audio/wordpool/DUSTPAN.wav", "conditions": [18, 1200, "a", 18000], "internal_node_id": "0.0-18.0", "trial": 0, "time_elapsed": 236166, "serialpos": 6, "key_press": -1, "wordID": 508, "type": "PRES_AUD", "trial_index": 27}, "uniqueid": "MTK2262:3S3AMIZX3VCI9GHMXQGJ636PA0YCDL", "dateTime": 1516908689467}, {"current_trial": 28, "trialdata": {"rt": -1000, "trial_type": "single-audio", "word": "pecan", "stimulus": "/static/audio/wordpool/PECAN.wav", "conditions": [18, 1200, "a", 18000], "internal_node_id": "0.0-19.0", "trial": 0, "time_elapsed": 238271, "serialpos": 7, "key_press": -1, "wordID": 1035, "type": "PRES_AUD", "trial_index": 28}, "uniqueid": "MTK2262:3S3AMIZX3VCI9GHMXQGJ636PA0YCDL", "dateTime": 1516908691572}, {"current_trial": 29, "trialdata": {"rt": -1000, "trial_type": "single-audio", "word": "glove", "stimulus": "/static/audio/wordpool/GLOVE.wav", "conditions": [18, 1200, "a", 18000], "internal_node_id": "0.0-20.0", "trial": 0, "time_elapsed": 240418, "serialpos": 8, "key_press": -1, "wordID": 641, "type": "PRES_AUD", "trial_index": 29}, "uniqueid": "MTK2262:3S3AMIZX3VCI9GHMXQGJ636PA0YCDL", "dateTime": 1516908693719}, {"current_trial": 30, "trialdata": {"rt": -1000, "trial_type": "single-audio", "word": "dust", "stimulus": "/static/audio/wordpool/DUST.wav", "conditions": [18, 1200, "a", 18000], "internal_node_id": "0.0-21.0", "trial": 0, "time_elapsed": 242617, "serialpos": 9, "key_press": -1, "wordID": 507, "type": "PRES_AUD", "trial_index": 30}, "uniqueid": "MTK2262:3S3AMIZX3VCI9GHMXQGJ636PA0YCDL", "dateTime": 1516908695918}, {"current_trial": 31, "trialdata": {"rt": -1000, "trial_type": "single-audio", "word": "fox", "stimulus": "/static/audio/wordpool/FOX.wav", "conditions": [18, 1200, "a", 18000], "internal_node_id": "0.0-22.0", "trial": 0, "time_elapsed": 244809, "serialpos": 10, "key_press": -1, "wordID": 597, "type": "PRES_AUD", "trial_index": 31}, "uniqueid": "MTK2262:3S3AMIZX3VCI9GHMXQGJ636PA0YCDL", "dateTime": 1516908698111}, {"current_trial": 32, "trialdata": {"rt": -1000, "trial_type": "single-audio", "word": "sidewalk", "stimulus": "/static/audio/wordpool/SIDEWALK.wav", "conditions": [18, 1200, "a", 18000], "internal_node_id": "0.0-23.0", "trial": 0, "time_elapsed": 247000, "serialpos": 11, "key_press": -1, "wordID": 1302, "type": "PRES_AUD", "trial_index": 32}, "uniqueid": "MTK2262:3S3AMIZX3VCI9GHMXQGJ636PA0YCDL", "dateTime": 1516908700301}, {"current_trial": 33, "trialdata": {"rt": -1000, "trial_type": "single-audio", "word": "trench", "stimulus": "/static/audio/wordpool/TRENCH.wav", "conditions": [18, 1200, "a", 18000], "internal_node_id": "0.0-24.0", "trial": 0, "time_elapsed": 249206, "serialpos": 12, "key_press": -1, "wordID": 1502, "type": "PRES_AUD", "trial_index": 33}, "uniqueid": "MTK2262:3S3AMIZX3VCI9GHMXQGJ636PA0YCDL", "dateTime": 1516908702507}, {"current_trial": 34, "trialdata": {"rt": -1000, "trial_type": "single-audio", "word": "buggy", "stimulus": "/static/audio/wordpool/BUGGY.wav", "conditions": [18, 1200, "a", 18000], "internal_node_id": "0.0-25.0", "trial": 0, "time_elapsed": 251490, "serialpos": 13, "key_press": -1, "wordID": 187, "type": "PRES_AUD", "trial_index": 34}, "uniqueid": "MTK2262:3S3AMIZX3VCI9GHMXQGJ636PA0YCDL", "dateTime": 1516908704791}, {"current_trial": 35, "trialdata": {"rt": -1000, "trial_type": "single-audio", "word": "cricket", "stimulus": "/static/audio/wordpool/CRICKET.wav", "conditions": [18, 1200, "a", 18000], "internal_node_id": "0.0-26.0", "trial": 0, "time_elapsed": 253631, "serialpos": 14, "key_press": -1, "wordID": 407, "type": "PRES_AUD", "trial_index": 35}, "uniqueid": "MTK2262:3S3AMIZX3VCI9GHMXQGJ636PA0YCDL", "dateTime": 1516908706932}, {"current_trial": 36, "trialdata": {"rt": -1000, "trial_type": "single-audio", "word": "critic", "stimulus": "/static/audio/wordpool/CRITIC.wav", "conditions": [18, 1200, "a", 18000], "internal_node_id": "0.0-27.0", "trial": 0, "time_elapsed": 255918, "serialpos": 15, "key_press": -1, "wordID": 409, "type": "PRES_AUD", "trial_index": 36}, "uniqueid": "MTK2262:3S3AMIZX3VCI9GHMXQGJ636PA0YCDL", "dateTime": 1516908709219}, {"current_trial": 37, "trialdata": {"rt": -1000, "trial_type": "single-audio", "word": "peanut", "stimulus": "/static/audio/wordpool/PEANUT.wav", "conditions": [18, 1200, "a", 18000], "internal_node_id": "0.0-28.0", "trial": 0, "time_elapsed": 258305, "serialpos": 16, "key_press": -1, "wordID": 1031, "type": "PRES_AUD", "trial_index": 37}, "uniqueid": "MTK2262:3S3AMIZX3VCI9GHMXQGJ636PA0YCDL", "dateTime": 1516908711606}, {"current_trial": 38, "trialdata": {"rt": -1000, "trial_type": "single-audio", "word": "bureau", "stimulus": "/static/audio/wordpool/BUREAU.wav", "conditions": [18, 1200, "a", 18000], "internal_node_id": "0.0-29.0", "trial": 0, "time_elapsed": 260625, "serialpos": 17, "key_press": -1, "wordID": 198, "type": "PRES_AUD", "trial_index": 38}, "uniqueid": "MTK2262:3S3AMIZX3VCI9GHMXQGJ636PA0YCDL", "dateTime": 1516908713926}, {"current_trial": 39, "trialdata": {"rt": -1, "trial_type": "single-stim", "stimulus": "", "internal_node_id": "0.0-30.0-0.0", "time_elapsed": 261875, "key_press": -1, "type": "PRE_RECALL_DELAY", "trial_index": 39}, "uniqueid": "MTK2262:3S3AMIZX3VCI9GHMXQGJ636PA0YCDL", "dateTime": 1516908715176}, {"current_trial": 40, "trialdata": {"rt": -1000, "trial_type": "single-audio", "stimulus": "/static/audio/400Hz.wav", "internal_node_id": "0.0-31.0", "time_elapsed": 262383, "key_press": -1, "type": "PRE_RECALL_ALERT", "trial_index": 40}, "uniqueid": "MTK2262:3S3AMIZX3VCI9GHMXQGJ636PA0YCDL", "dateTime": 1516908715685}, {"current_trial": 41, "trialdata": {"rt": [6753, 9964, 12657, 17509, 20374, 22457, 37375, 44635], "recwords": ["tuba", "pecan", "glove", "sidewalk", "cricket", "glove", "buggy", "bureau"], "key_times": [4415, 4671, 4954, 5188, 6753, 7906, 8050, 8444, 8937, 9270, 9964, 10802, 11047, 11289, 11452, 11761, 12657, 14853, 15238, 15385, 15620, 15915, 16187, 16511, 16979, 17509, 17870, 18258, 18600, 18850, 19139, 19286, 19702, 20374, 20730, 21073, 21349, 21508, 21784, 22457, 33991, 34276, 35347, 35527, 36657, 37375, 41267, 41951, 43146, 43411, 43720, 43982, 44635], "trial_type": "free-recall", "conditions": [18, 1200, "a", 18000], "internal_node_id": "0.0-32.0-0.0", "key_presses": [84, 85, 66, 65, 32, 80, 69, 67, 65, 78, 13, 71, 76, 79, 86, 69, 13, 83, 73, 68, 69, 87, 65, 76, 75, 13, 67, 82, 73, 67, 75, 69, 84, 13, 71, 76, 79, 86, 69, 13, 66, 85, 71, 71, 89, 13, 66, 85, 82, 69, 65, 85, 13], "trial": 0, "time_elapsed": 322395, "type": "FREE_RECALL", "trial_index": 41}, "uniqueid": "MTK2262:3S3AMIZX3VCI9GHMXQGJ636PA0YCDL", "dateTime": 1516908775701}, {"current_trial": 42, "trialdata": {"rt": 1723, "trial_type": "text", "internal_node_id": "0.0-33.0", "time_elapsed": 326127, "key_press": 32, "type": "INSTRUCTIONS", "trial_index": 42}, "uniqueid": "MTK2262:3S3AMIZX3VCI9GHMXQGJ636PA0YCDL", "dateTime": 1516908779428}, {"current_trial": 43, "trialdata": {"rt": [4066, 6129, 8675, 13729], "trial_type": "math-distractor", "key_times": [3040, 3433, 4066, 5783, 5948, 6129, 7992, 8457, 8675, 11289, 11660, 12951, 13211, 13729, 17177, 17828], "responses": ["13", "12", "17", "12"], "num2": [1, 6, 7, 3, 9], "num3": [3, 2, 2, 1, 9], "conditions": [18, 1200, "a", 18000], "internal_node_id": "0.0-34.0", "key_presses": [49, 51, 13, 49, 50, 13, 49, 55, 13, 49, 51, 8, 50, 13, 50, 48], "trial": 1, "time_elapsed": 346148, "type": "DISTRACTOR", "trial_index": 43, "num1": [9, 4, 8, 8, 2]}, "uniqueid": "MTK2262:3S3AMIZX3VCI9GHMXQGJ636PA0YCDL", "dateTime": 1516908799449}, {"current_trial": 44, "trialdata": {"rt": -1, "trial_type": "single-stim", "stimulus": "<p id=\"stim\">10</p>", "internal_node_id": "0.0-35.0-0.0", "time_elapsed": 349173, "key_press": -1, "trial_index": 44}, "uniqueid": "MTK2262:3S3AMIZX3VCI9GHMXQGJ636PA0YCDL", "dateTime": 1516908802474}, {"current_trial": 45, "trialdata": {"rt": -1, "trial_type": "single-stim", "stimulus": "<p id=\"stim\">9</p>", "internal_node_id": "0.0-35.0-1.0", "time_elapsed": 350176, "key_press": -1, "trial_index": 45}, "uniqueid": "MTK2262:3S3AMIZX3VCI9GHMXQGJ636PA0YCDL", "dateTime": 1516908803477}, {"current_trial": 46, "trialdata": {"rt": -1, "trial_type": "single-stim", "stimulus": "<p id=\"stim\">8</p>", "internal_node_id": "0.0-35.0-2.0", "time_elapsed": 351178, "key_press": -1, "trial_index": 46}, "uniqueid": "MTK2262:3S3AMIZX3VCI9GHMXQGJ636PA0YCDL", "dateTime": 1516908804480}, {"current_trial": 47, "trialdata": {"rt": -1, "trial_type": "single-stim", "stimulus": "<p id=\"stim\">7</p>", "internal_node_id": "0.0-35.0-3.0", "time_elapsed": 352181, "key_press": -1, "trial_index": 47}, "uniqueid": "MTK2262:3S3AMIZX3VCI9GHMXQGJ636PA0YCDL", "dateTime": 1516908805482}, {"current_trial": 48, "trialdata": {"rt": -1, "trial_type": "single-stim", "stimulus": "<p id=\"stim\">6</p>", "internal_node_id": "0.0-35.0-4.0", "time_elapsed": 353194, "key_press": -1, "trial_index": 48}, "uniqueid": "MTK2262:3S3AMIZX3VCI9GHMXQGJ636PA0YCDL", "dateTime": 1516908806495}, {"current_trial": 49, "trialdata": {"rt": -1, "trial_type": "single-stim", "stimulus": "<p id=\"stim\">5</p>", "internal_node_id": "0.0-35.0-5.0", "time_elapsed": 354196, "key_press": -1, "trial_index": 49}, "uniqueid": "MTK2262:3S3AMIZX3VCI9GHMXQGJ636PA0YCDL", "dateTime": 1516908807497}, {"current_trial": 50, "trialdata": {"rt": -1, "trial_type": "single-stim", "stimulus": "<p id=\"stim\">4</p>", "internal_node_id": "0.0-35.0-6.0", "time_elapsed": 355199, "key_press": -1, "trial_index": 50}, "uniqueid": "MTK2262:3S3AMIZX3VCI9GHMXQGJ636PA0YCDL", "dateTime": 1516908808500}, {"current_trial": 51, "trialdata": {"rt": -1, "trial_type": "single-stim", "stimulus": "<p id=\"stim\">3</p>", "internal_node_id": "0.0-35.0-7.0", "time_elapsed": 356210, "key_press": -1, "trial_index": 51}, "uniqueid": "MTK2262:3S3AMIZX3VCI9GHMXQGJ636PA0YCDL", "dateTime": 1516908809511}, {"current_trial": 52, "trialdata": {"rt": -1, "trial_type": "single-stim", "stimulus": "<p id=\"stim\">2</p>", "internal_node_id": "0.0-35.0-8.0", "time_elapsed": 357213, "key_press": -1, "trial_index": 52}, "uniqueid": "MTK2262:3S3AMIZX3VCI9GHMXQGJ636PA0YCDL", "dateTime": 1516908810514}, {"current_trial": 53, "trialdata": {"rt": -1, "trial_type": "single-stim", "stimulus": "<p id=\"stim\">1</p>", "internal_node_id": "0.0-35.0-9.0", "time_elapsed": 358216, "key_press": -1, "trial_index": 53}, "uniqueid": "MTK2262:3S3AMIZX3VCI9GHMXQGJ636PA0YCDL", "dateTime": 1516908811517}, {"current_trial": 54, "trialdata": {"rt": -1, "trial_type": "single-stim", "stimulus": "<p id=\"stim\">+</p>", "internal_node_id": "0.0-36.0-0.0", "time_elapsed": 359719, "key_press": -1, "type": "FIXATION", "trial_index": 54}, "uniqueid": "MTK2262:3S3AMIZX3VCI9GHMXQGJ636PA0YCDL", "dateTime": 1516908813021}, {"current_trial": 55, "trialdata": {"rt": -1000, "trial_type": "single-audio", "word": "swamp", "stimulus": "/static/audio/wordpool/SWAMP.wav", "conditions": [18, 1200, "a", 18000], "internal_node_id": "0.0-37.0", "trial": 1, "time_elapsed": 362017, "serialpos": 0, "key_press": -1, "wordID": 1415, "type": "PRES_AUD", "trial_index": 55}, "uniqueid": "MTK2262:3S3AMIZX3VCI9GHMXQGJ636PA0YCDL", "dateTime": 1516908815320}, {"current_trial": 56, "trialdata": {"rt": -1000, "trial_type": "single-audio", "word": "curtain", "stimulus": "/static/audio/wordpool/CURTAIN.wav", "conditions": [18, 1200, "a", 18000], "internal_node_id": "0.0-38.0", "trial": 1, "time_elapsed": 364026, "serialpos": 1, "key_press": -1, "wordID": 426, "type": "PRES_AUD", "trial_index": 56}, "uniqueid": "MTK2262:3S3AMIZX3VCI9GHMXQGJ636PA0YCDL", "dateTime": 1516908817327}, {"current_trial": 57, "trialdata": {"rt": -1000, "trial_type": "single-audio", "word": "motel", "stimulus": "/static/audio/wordpool/MOTEL.wav", "conditions": [18, 1200, "a", 18000], "internal_node_id": "0.0-39.0", "trial": 1, "time_elapsed": 366363, "serialpos": 2, "key_press": -1, "wordID": 918, "type": "PRES_AUD", "trial_index": 57}, "uniqueid": "MTK2262:3S3AMIZX3VCI9GHMXQGJ636PA0YCDL", "dateTime": 1516908819664}, {"current_trial": 58, "trialdata": {"rt": -1000, "trial_type": "single-audio", "word": "actress", "stimulus": "/static/audio/wordpool/ACTRESS.wav", "conditions": [18, 1200, "a", 18000], "internal_node_id": "0.0-40.0", "trial": 1, "time_elapsed": 368421, "serialpos": 3, "key_press": -1, "wordID": 5, "type": "PRES_AUD", "trial_index": 58}, "uniqueid": "MTK2262:3S3AMIZX3VCI9GHMXQGJ636PA0YCDL", "dateTime": 1516908821722}, {"current_trial": 59, "trialdata": {"rt": -1000, "trial_type": "single-audio", "word": "shelter", "stimulus": "/static/audio/wordpool/SHELTER.wav", "conditions": [18, 1200, "a", 18000], "internal_node_id": "0.0-41.0", "trial": 1, "time_elapsed": 370751, "serialpos": 4, "key_press": -1, "wordID": 1281, "type": "PRES_AUD", "trial_index": 59}, "uniqueid": "MTK2262:3S3AMIZX3VCI9GHMXQGJ636PA0YCDL", "dateTime": 1516908824053}, {"current_trial": 60, "trialdata": {"rt": -1000, "trial_type": "single-audio", "word": "iceberg", "stimulus": "/static/audio/wordpool/ICEBERG.wav", "conditions": [18, 1200, "a", 18000], "internal_node_id": "0.0-42.0", "trial": 1, "time_elapsed": 373120, "serialpos": 5, "key_press": -1, "wordID": 730, "type": "PRES_AUD", "trial_index": 60}, "uniqueid": "MTK2262:3S3AMIZX3VCI9GHMXQGJ636PA0YCDL", "dateTime": 1516908826422}, {"current_trial": 61, "trialdata": {"rt": -1000, "trial_type": "single-audio", "word": "blender", "stimulus": "/static/audio/wordpool/BLENDER.wav", "conditions": [18, 1200, "a", 18000], "internal_node_id": "0.0-43.0", "trial": 1, "time_elapsed": 375471, "serialpos": 6, "key_press": -1, "wordID": 135, "type": "PRES_AUD", "trial_index": 61}, "uniqueid": "MTK2262:3S3AMIZX3VCI9GHMXQGJ636PA0YCDL", "dateTime": 1516908828772}, {"current_trial": 62, "trialdata": {"rt": -1000, "trial_type": "single-audio", "word": "bunny", "stimulus": "/static/audio/wordpool/BUNNY.wav", "conditions": [18, 1200, "a", 18000], "internal_node_id": "0.0-44.0", "trial": 1, "time_elapsed": 377612, "serialpos": 7, "key_press": -1, "wordID": 197, "type": "PRES_AUD", "trial_index": 62}, "uniqueid": "MTK2262:3S3AMIZX3VCI9GHMXQGJ636PA0YCDL", "dateTime": 1516908830913}, {"current_trial": 63, "trialdata": {"rt": -1000, "trial_type": "single-audio", "word": "cabbage", "stimulus": "/static/audio/wordpool/CABBAGE.wav", "conditions": [18, 1200, "a", 18000], "internal_node_id": "0.0-45.0", "trial": 1, "time_elapsed": 379860, "serialpos": 8, "key_press": -1, "wordID": 209, "type": "PRES_AUD", "trial_index": 63}, "uniqueid": "MTK2262:3S3AMIZX3VCI9GHMXQGJ636PA0YCDL", "dateTime": 1516908833161}, {"current_trial": 64, "trialdata": {"rt": -1000, "trial_type": "single-audio", "word": "balloon", "stimulus": "/static/audio/wordpool/BALLOON.wav", "conditions": [18, 1200, "a", 18000], "internal_node_id": "0.0-46.0", "trial": 1, "time_elapsed": 382080, "serialpos": 9, "key_press": -1, "wordID": 74, "type": "PRES_AUD", "trial_index": 64}, "uniqueid": "MTK2262:3S3AMIZX3VCI9GHMXQGJ636PA0YCDL", "dateTime": 1516908835381}, {"current_trial": 65, "trialdata": {"rt": -1000, "trial_type": "single-audio", "word": "market", "stimulus": "/static/audio/wordpool/MARKET.wav", "conditions": [18, 1200, "a", 18000], "internal_node_id": "0.0-47.0", "trial": 1, "time_elapsed": 384236, "serialpos": 10, "key_press": -1, "wordID": 870, "type": "PRES_AUD", "trial_index": 65}, "uniqueid": "MTK2262:3S3AMIZX3VCI9GHMXQGJ636PA0YCDL", "dateTime": 1516908837538}, {"current_trial": 66, "trialdata": {"rt": -1000, "trial_type": "single-audio", "word": "guitar", "stimulus": "/static/audio/wordpool/GUITAR.wav", "conditions": [18, 1200, "a", 18000], "internal_node_id": "0.0-48.0", "trial": 1, "time_elapsed": 386555, "serialpos": 11, "key_press": -1, "wordID": 669, "type": "PRES_AUD", "trial_index": 66}, "uniqueid": "MTK2262:3S3AMIZX3VCI9GHMXQGJ636PA0YCDL", "dateTime": 1516908839856}, {"current_trial": 67, "trialdata": {"rt": -1000, "trial_type": "single-audio", "word": "softball", "stimulus": "/static/audio/wordpool/SOFTBALL.wav", "conditions": [18, 1200, "a", 18000], "internal_node_id": "0.0-49.0", "trial": 1, "time_elapsed": 388776, "serialpos": 12, "key_press": -1, "wordID": 1342, "type": "PRES_AUD", "trial_index": 67}, "uniqueid": "MTK2262:3S3AMIZX3VCI9GHMXQGJ636PA0YCDL", "dateTime": 1516908842077}, {"current_trial": 68, "trialdata": {"rt": -1000, "trial_type": "single-audio", "word": "agent", "stimulus": "/static/audio/wordpool/AGENT.wav", "conditions": [18, 1200, "a", 18000], "internal_node_id": "0.0-50.0", "trial": 1, "time_elapsed": 390969, "serialpos": 13, "key_press": -1, "wordID": 9, "type": "PRES_AUD", "trial_index": 68}, "uniqueid": "MTK2262:3S3AMIZX3VCI9GHMXQGJ636PA0YCDL", "dateTime": 1516908844294}, {"current_trial": 69, "trialdata": {"rt": 1099.999999999966, "trial_type": "single-audio", "word": "diver", "stimulus": "/static/audio/wordpool/DIVER.wav", "conditions": [18, 1200, "a", 18000], "internal_node_id": "0.0-51.0", "trial": 1, "time_elapsed": 393393, "serialpos": 14, "key_press": 32, "wordID": 475, "type": "PRES_AUD", "trial_index": 69}, "uniqueid": "MTK2262:3S3AMIZX3VCI9GHMXQGJ636PA0YCDL", "dateTime": 1516908846694}, {"current_trial": 70, "trialdata": {"rt": -1000, "trial_type": "single-audio", "word": "football", "stimulus": "/static/audio/wordpool/FOOTBALL.wav", "conditions": [18, 1200, "a", 18000], "internal_node_id": "0.0-52.0", "trial": 1, "time_elapsed": 395444, "serialpos": 15, "key_press": -1, "wordID": 590, "type": "PRES_AUD", "trial_index": 70}, "uniqueid": "MTK2262:3S3AMIZX3VCI9GHMXQGJ636PA0YCDL", "dateTime": 1516908848746}, {"current_trial": 71, "trialdata": {"rt": -1000, "trial_type": "single-audio", "word": "marrow", "stimulus": "/static/audio/wordpool/MARROW.wav", "conditions": [18, 1200, "a", 18000], "internal_node_id": "0.0-53.0", "trial": 1, "time_elapsed": 397737, "serialpos": 16, "key_press": -1, "wordID": 871, "type": "PRES_AUD", "trial_index": 71}, "uniqueid": "MTK2262:3S3AMIZX3VCI9GHMXQGJ636PA0YCDL", "dateTime": 1516908851038}, {"current_trial": 72, "trialdata": {"rt": -1000, "trial_type": "single-audio", "word": "hostess", "stimulus": "/static/audio/wordpool/HOSTESS.wav", "conditions": [18, 1200, "a", 18000], "internal_node_id": "0.0-54.0", "trial": 1, "time_elapsed": 399923, "serialpos": 17, "key_press": -1, "wordID": 722, "type": "PRES_AUD", "trial_index": 72}, "uniqueid": "MTK2262:3S3AMIZX3VCI9GHMXQGJ636PA0YCDL", "dateTime": 1516908853224}, {"current_trial": 73, "trialdata": {"rt": -1, "trial_type": "single-stim", "stimulus": "", "internal_node_id": "0.0-55.0-0.0", "time_elapsed": 401183, "key_press": -1, "type": "PRE_RECALL_DELAY", "trial_index": 73}, "uniqueid": "MTK2262:3S3AMIZX3VCI9GHMXQGJ636PA0YCDL", "dateTime": 1516908854484}, {"current_trial": 74, "trialdata": {"rt": -1000, "trial_type": "single-audio", "stimulus": "/static/audio/400Hz.wav", "internal_node_id": "0.0-56.0", "time_elapsed": 401693, "key_press": -1, "type": "PRE_RECALL_ALERT", "trial_index": 74}, "uniqueid": "MTK2262:3S3AMIZX3VCI9GHMXQGJ636PA0YCDL", "dateTime": 1516908854995}, {"current_trial": 75, "trialdata": {"rt": [5303, 9420, 14376, 18677, 23587, 35562, 42556, 53969], "recwords": ["hostess", "softball", "football", "mirror", "cabbage", "cricket", "spice", "diver"], "key_times": [1883, 2490, 2646, 2927, 4219, 4507, 4703, 5303, 6136, 6618, 6809, 7139, 7509, 7875, 8162, 8567, 9420, 10165, 10756, 11248, 11871, 12698, 13000, 13418, 13636, 14376, 15536, 16092, 16492, 16722, 17084, 17276, 18677, 19222, 19578, 19988, 20200, 20501, 20718, 20968, 23587, 32961, 33485, 34100, 34253, 34577, 34789, 35154, 35562, 40821, 41300, 41645, 41881, 42274, 42556, 52548, 52918, 53164, 53536, 53736, 53969], "trial_type": "free-recall", "conditions": [18, 1200, "a", 18000], "internal_node_id": "0.0-57.0-0.0", "key_presses": [72, 79, 83, 84, 69, 83, 83, 32, 83, 79, 70, 84, 66, 65, 76, 76, 32, 70, 79, 79, 84, 66, 65, 76, 76, 32, 77, 73, 82, 82, 79, 82, 32, 67, 65, 66, 66, 65, 71, 69, 32, 67, 82, 73, 67, 75, 69, 84, 32, 83, 80, 73, 67, 69, 32, 68, 73, 86, 69, 82, 32], "trial": 1, "time_elapsed": 461714, "type": "FREE_RECALL", "trial_index": 75}, "uniqueid": "MTK2262:3S3AMIZX3VCI9GHMXQGJ636PA0YCDL", "dateTime": 1516908915023}, {"current_trial": 76, "trialdata": {"rt": 1036, "trial_type": "text", "internal_node_id": "0.0-58.0", "time_elapsed": 464761, "key_press": 32, "type": "INSTRUCTIONS", "trial_index": 76}, "uniqueid": "MTK2262:3S3AMIZX3VCI9GHMXQGJ636PA0YCDL", "dateTime": 1516908918062}, {"current_trial": 77, "trialdata": {"rt": [3370, 8392, 13834, 16132, 19328, 21757], "trial_type": "math-distractor", "key_times": [2839, 3370, 7423, 8128, 8392, 10599, 11229, 11970, 13017, 13834, 15662, 15893, 16132, 17995, 19067, 19328, 20947, 21583, 21757], "responses": ["9", "12", "15", "11", "12", "17"], "num2": [6, 2, 2, 8, 4, 7, 2], "num3": [2, 4, 8, 1, 4, 5, 3], "conditions": [24, 800, "a", 24000], "internal_node_id": "0.0-59.0", "key_presses": [57, 13, 49, 50, 13, 49, 53, 16, 16, 13, 49, 49, 13, 49, 50, 13, 49, 55, 13], "trial": 2, "time_elapsed": 489774, "type": "DISTRACTOR", "trial_index": 77, "num1": [1, 7, 5, 2, 4, 5, 9]}, "uniqueid": "MTK2262:3S3AMIZX3VCI9GHMXQGJ636PA0YCDL", "dateTime": 1516908943075}, {"current_trial": 78, "trialdata": {"rt": -1, "trial_type": "single-stim", "stimulus": "<p id=\"stim\">10</p>", "internal_node_id": "0.0-60.0-0.0", "time_elapsed": 492835, "key_press": -1, "trial_index": 78}, "uniqueid": "MTK2262:3S3AMIZX3VCI9GHMXQGJ636PA0YCDL", "dateTime": 1516908946136}, {"current_trial": 79, "trialdata": {"rt": -1, "trial_type": "single-stim", "stimulus": "<p id=\"stim\">9</p>", "internal_node_id": "0.0-60.0-1.0", "time_elapsed": 493839, "key_press": -1, "trial_index": 79}, "uniqueid": "MTK2262:3S3AMIZX3VCI9GHMXQGJ636PA0YCDL", "dateTime": 1516908947140}, {"current_trial": 80, "trialdata": {"rt": -1, "trial_type": "single-stim", "stimulus": "<p id=\"stim\">8</p>", "internal_node_id": "0.0-60.0-2.0", "time_elapsed": 494847, "key_press": -1, "trial_index": 80}, "uniqueid": "MTK2262:3S3AMIZX3VCI9GHMXQGJ636PA0YCDL", "dateTime": 1516908948149}, {"current_trial": 81, "trialdata": {"rt": -1, "trial_type": "single-stim", "stimulus": "<p id=\"stim\">7</p>", "internal_node_id": "0.0-60.0-3.0", "time_elapsed": 495862, "key_press": -1, "trial_index": 81}, "uniqueid": "MTK2262:3S3AMIZX3VCI9GHMXQGJ636PA0YCDL", "dateTime": 1516908949163}, {"current_trial": 82, "trialdata": {"rt": -1, "trial_type": "single-stim", "stimulus": "<p id=\"stim\">6</p>", "internal_node_id": "0.0-60.0-4.0", "time_elapsed": 496864, "key_press": -1, "trial_index": 82}, "uniqueid": "MTK2262:3S3AMIZX3VCI9GHMXQGJ636PA0YCDL", "dateTime": 1516908950165}, {"current_trial": 83, "trialdata": {"rt": -1, "trial_type": "single-stim", "stimulus": "<p id=\"stim\">5</p>", "internal_node_id": "0.0-60.0-5.0", "time_elapsed": 497873, "key_press": -1, "trial_index": 83}, "uniqueid": "MTK2262:3S3AMIZX3VCI9GHMXQGJ636PA0YCDL", "dateTime": 1516908951174}, {"current_trial": 84, "trialdata": {"rt": -1, "trial_type": "single-stim", "stimulus": "<p id=\"stim\">4</p>", "internal_node_id": "0.0-60.0-6.0", "time_elapsed": 498876, "key_press": -1, "trial_index": 84}, "uniqueid": "MTK2262:3S3AMIZX3VCI9GHMXQGJ636PA0YCDL", "dateTime": 1516908952177}, {"current_trial": 85, "trialdata": {"rt": -1, "trial_type": "single-stim", "stimulus": "<p id=\"stim\">3</p>", "internal_node_id": "0.0-60.0-7.0", "time_elapsed": 499879, "key_press": -1, "trial_index": 85}, "uniqueid": "MTK2262:3S3AMIZX3VCI9GHMXQGJ636PA0YCDL", "dateTime": 1516908953180}, {"current_trial": 86, "trialdata": {"rt": -1, "trial_type": "single-stim", "stimulus": "<p id=\"stim\">2</p>", "internal_node_id": "0.0-60.0-8.0", "time_elapsed": 500887, "key_press": -1, "trial_index": 86}, "uniqueid": "MTK2262:3S3AMIZX3VCI9GHMXQGJ636PA0YCDL", "dateTime": 1516908954188}, {"current_trial": 87, "trialdata": {"rt": -1, "trial_type": "single-stim", "stimulus": "<p id=\"stim\">1</p>", "internal_node_id": "0.0-60.0-9.0", "time_elapsed": 501891, "key_press": -1, "trial_index": 87}, "uniqueid": "MTK2262:3S3AMIZX3VCI9GHMXQGJ636PA0YCDL", "dateTime": 1516908955192}, {"current_trial": 88, "trialdata": {"rt": -1, "trial_type": "single-stim", "stimulus": "<p id=\"stim\">+</p>", "internal_node_id": "0.0-61.0-0.0", "time_elapsed": 503394, "key_press": -1, "type": "FIXATION", "trial_index": 88}, "uniqueid": "MTK2262:3S3AMIZX3VCI9GHMXQGJ636PA0YCDL", "dateTime": 1516908956696}, {"current_trial": 89, "trialdata": {"rt": -1000, "trial_type": "single-audio", "word": "contract", "stimulus": "/static/audio/wordpool/CONTRACT.wav", "conditions": [24, 800, "a", 24000], "internal_node_id": "0.0-62.0", "trial": 2, "time_elapsed": 505236, "serialpos": 0, "key_press": -1, "wordID": 367, "type": "PRES_AUD", "trial_index": 89}, "uniqueid": "MTK2262:3S3AMIZX3VCI9GHMXQGJ636PA0YCDL", "dateTime": 1516908958538}, {"current_trial": 90, "trialdata": {"rt": -1000, "trial_type": "single-audio", "word": "novel", "stimulus": "/static/audio/wordpool/NOVEL.wav", "conditions": [24, 800, "a", 24000], "internal_node_id": "0.0-63.0", "trial": 2, "time_elapsed": 507212, "serialpos": 1, "key_press": -1, "wordID": 959, "type": "PRES_AUD", "trial_index": 90}, "uniqueid": "MTK2262:3S3AMIZX3VCI9GHMXQGJ636PA0YCDL", "dateTime": 1516908960513}, {"current_trial": 91, "trialdata": {"rt": -1000, "trial_type": "single-audio", "word": "expert", "stimulus": "/static/audio/wordpool/EXPERT.wav", "conditions": [24, 800, "a", 24000], "internal_node_id": "0.0-64.0", "trial": 2, "time_elapsed": 508878, "serialpos": 2, "key_press": -1, "wordID": 542, "type": "PRES_AUD", "trial_index": 91}, "uniqueid": "MTK2262:3S3AMIZX3VCI9GHMXQGJ636PA0YCDL", "dateTime": 1516908962179}, {"current_trial": 92, "trialdata": {"rt": -1000, "trial_type": "single-audio", "word": "banker", "stimulus": "/static/audio/wordpool/BANKER.wav", "conditions": [24, 800, "a", 24000], "internal_node_id": "0.0-65.0", "trial": 2, "time_elapsed": 510708, "serialpos": 3, "key_press": -1, "wordID": 83, "type": "PRES_AUD", "trial_index": 92}, "uniqueid": "MTK2262:3S3AMIZX3VCI9GHMXQGJ636PA0YCDL", "dateTime": 1516908964010}, {"current_trial": 93, "trialdata": {"rt": -1000, "trial_type": "single-audio", "word": "bank", "stimulus": "/static/audio/wordpool/BANK.wav", "conditions": [24, 800, "a", 24000], "internal_node_id": "0.0-66.0", "trial": 2, "time_elapsed": 512334, "serialpos": 4, "key_press": -1, "wordID": 82, "type": "PRES_AUD", "trial_index": 93}, "uniqueid": "MTK2262:3S3AMIZX3VCI9GHMXQGJ636PA0YCDL", "dateTime": 1516908965636}, {"current_trial": 94, "trialdata": {"rt": -1000, "trial_type": "single-audio", "word": "banjo", "stimulus": "/static/audio/wordpool/BANJO.wav", "conditions": [24, 800, "a", 24000], "internal_node_id": "0.0-67.0", "trial": 2, "time_elapsed": 514164, "serialpos": 5, "key_press": -1, "wordID": 81, "type": "PRES_AUD", "trial_index": 94}, "uniqueid": "MTK2262:3S3AMIZX3VCI9GHMXQGJ636PA0YCDL", "dateTime": 1516908967465}, {"current_trial": 95, "trialdata": {"rt": -1000, "trial_type": "single-audio", "word": "sandwich", "stimulus": "/static/audio/wordpool/SANDWICH.wav", "conditions": [24, 800, "a", 24000], "internal_node_id": "0.0-68.0", "trial": 2, "time_elapsed": 515891, "serialpos": 6, "key_press": -1, "wordID": 1231, "type": "PRES_AUD", "trial_index": 95}, "uniqueid": "MTK2262:3S3AMIZX3VCI9GHMXQGJ636PA0YCDL", "dateTime": 1516908969192}, {"current_trial": 96, "trialdata": {"rt": -1000, "trial_type": "single-audio", "word": "seal", "stimulus": "/static/audio/wordpool/SEAL.wav", "conditions": [24, 800, "a", 24000], "internal_node_id": "0.0-69.0", "trial": 2, "time_elapsed": 517817, "serialpos": 7, "key_press": -1, "wordID": 1261, "type": "PRES_AUD", "trial_index": 96}, "uniqueid": "MTK2262:3S3AMIZX3VCI9GHMXQGJ636PA0YCDL", "dateTime": 1516908971119}, {"current_trial": 97, "trialdata": {"rt": -1000, "trial_type": "single-audio", "word": "icing", "stimulus": "/static/audio/wordpool/ICING.wav", "conditions": [24, 800, "a", 24000], "internal_node_id": "0.0-70.0", "trial": 2, "time_elapsed": 519609, "serialpos": 8, "key_press": -1, "wordID": 731, "type": "PRES_AUD", "trial_index": 97}, "uniqueid": "MTK2262:3S3AMIZX3VCI9GHMXQGJ636PA0YCDL", "dateTime": 1516908972911}, {"current_trial": 98, "trialdata": {"rt": -1000, "trial_type": "single-audio", "word": "binder", "stimulus": "/static/audio/wordpool/BINDER.wav", "conditions": [24, 800, "a", 24000], "internal_node_id": "0.0-71.0", "trial": 2, "time_elapsed": 521305, "serialpos": 9, "key_press": -1, "wordID": 126, "type": "PRES_AUD", "trial_index": 98}, "uniqueid": "MTK2262:3S3AMIZX3VCI9GHMXQGJ636PA0YCDL", "dateTime": 1516908974606}, {"current_trial": 99, "trialdata": {"rt": -1000, "trial_type": "single-audio", "word": "fiddle", "stimulus": "/static/audio/wordpool/FIDDLE.wav", "conditions": [24, 800, "a", 24000], "internal_node_id": "0.0-72.0", "trial": 2, "time_elapsed": 522984, "serialpos": 10, "key_press": -1, "wordID": 560, "type": "PRES_AUD", "trial_index": 99}, "uniqueid": "MTK2262:3S3AMIZX3VCI9GHMXQGJ636PA0YCDL", "dateTime": 1516908976285}, {"current_trial": 100, "trialdata": {"rt": -1000, "trial_type": "single-audio", "word": "onion", "stimulus": "/static/audio/wordpool/ONION.wav", "conditions": [24, 800, "a", 24000], "internal_node_id": "0.0-73.0", "trial": 2, "time_elapsed": 524757, "serialpos": 11, "key_press": -1, "wordID": 976, "type": "PRES_AUD", "trial_index": 100}, "uniqueid": "MTK2262:3S3AMIZX3VCI9GHMXQGJ636PA0YCDL", "dateTime": 1516908978058}, {"current_trial": 101, "trialdata": {"rt": -1000, "trial_type": "single-audio", "word": "rabbit", "stimulus": "/static/audio/wordpool/RABBIT.wav", "conditions": [24, 800, "a", 24000], "internal_node_id": "0.0-74.0", "trial": 2, "time_elapsed": 526717, "serialpos": 12, "key_press": -1, "wordID": 1151, "type": "PRES_AUD", "trial_index": 101}, "uniqueid": "MTK2262:3S3AMIZX3VCI9GHMXQGJ636PA0YCDL", "dateTime": 1516908980018}, {"current_trial": 102, "trialdata": {"rt": -1000, "trial_type": "single-audio", "word": "marker", "stimulus": "/static/audio/wordpool/MARKER.wav", "conditions": [24, 800, "a", 24000], "internal_node_id": "0.0-75.0", "trial": 2, "time_elapsed": 528530, "serialpos": 13, "key_press": -1, "wordID": 869, "type": "PRES_AUD", "trial_index": 102}, "uniqueid": "MTK2262:3S3AMIZX3VCI9GHMXQGJ636PA0YCDL", "dateTime": 1516908981831}, {"current_trial": 103, "trialdata": {"rt": -1000, "trial_type": "single-audio", "word": "snake", "stimulus": "/static/audio/wordpool/SNAKE.wav", "conditions": [24, 800, "a", 24000], "internal_node_id": "0.0-76.0", "trial": 2, "time_elapsed": 530188, "serialpos": 14, "key_press": -1, "wordID": 1332, "type": "PRES_AUD", "trial_index": 103}, "uniqueid": "MTK2262:3S3AMIZX3VCI9GHMXQGJ636PA0YCDL", "dateTime": 1516908983489}, {"current_trial": 104, "trialdata": {"rt": -1000, "trial_type": "single-audio", "word": "forehead", "stimulus": "/static/audio/wordpool/FOREHEAD.wav", "conditions": [24, 800, "a", 24000], "internal_node_id": "0.0-77.0", "trial": 2, "time_elapsed": 532181, "serialpos": 15, "key_press": -1, "wordID": 591, "type": "PRES_AUD", "trial_index": 104}, "uniqueid": "MTK2262:3S3AMIZX3VCI9GHMXQGJ636PA0YCDL", "dateTime": 1516908985482}, {"current_trial": 105, "trialdata": {"rt": -1000, "trial_type": "single-audio", "word": "snack", "stimulus": "/static/audio/wordpool/SNACK.wav", "conditions": [24, 800, "a", 24000], "internal_node_id": "0.0-78.0", "trial": 2, "time_elapsed": 533803, "serialpos": 16, "key_press": -1, "wordID": 1330, "type": "PRES_AUD", "trial_index": 105}, "uniqueid": "MTK2262:3S3AMIZX3VCI9GHMXQGJ636PA0YCDL", "dateTime": 1516908987104}, {"current_trial": 106, "trialdata": {"rt": -1000, "trial_type": "single-audio", "word": "poison", "stimulus": "/static/audio/wordpool/POISON.wav", "conditions": [24, 800, "a", 24000], "internal_node_id": "0.0-79.0", "trial": 2, "time_elapsed": 535826, "serialpos": 17, "key_press": -1, "wordID": 1095, "type": "PRES_AUD", "trial_index": 106}, "uniqueid": "MTK2262:3S3AMIZX3VCI9GHMXQGJ636PA0YCDL", "dateTime": 1516908989127}, {"current_trial": 107, "trialdata": {"rt": -1000, "trial_type": "single-audio", "word": "milk", "stimulus": "/static/audio/wordpool/MILK.wav", "conditions": [24, 800, "a", 24000], "internal_node_id": "0.0-80.0", "trial": 2, "time_elapsed": 537671, "serialpos": 18, "key_press": -1, "wordID": 894, "type": "PRES_AUD", "trial_index": 107}, "uniqueid": "MTK2262:3S3AMIZX3VCI9GHMXQGJ636PA0YCDL", "dateTime": 1516908990972}, {"current_trial": 108, "trialdata": {"rt": -1000, "trial_type": "single-audio", "word": "pigeon", "stimulus": "/static/audio/wordpool/PIGEON.wav", "conditions": [24, 800, "a", 24000], "internal_node_id": "0.0-81.0", "trial": 2, "time_elapsed": 539482, "serialpos": 19, "key_press": -1, "wordID": 1064, "type": "PRES_AUD", "trial_index": 108}, "uniqueid": "MTK2262:3S3AMIZX3VCI9GHMXQGJ636PA0YCDL", "dateTime": 1516908992783}, {"current_trial": 109, "trialdata": {"rt": -1000, "trial_type": "single-audio", "word": "ankle", "stimulus": "/static/audio/wordpool/ANKLE.wav", "conditions": [24, 800, "a", 24000], "internal_node_id": "0.0-82.0", "trial": 2, "time_elapsed": 541122, "serialpos": 20, "key_press": -1, "wordID": 23, "type": "PRES_AUD", "trial_index": 109}, "uniqueid": "MTK2262:3S3AMIZX3VCI9GHMXQGJ636PA0YCDL", "dateTime": 1516908994424}, {"current_trial": 110, "trialdata": {"rt": -1000, "trial_type": "single-audio", "word": "wrist", "stimulus": "/static/audio/wordpool/WRIST.wav", "conditions": [24, 800, "a", 24000], "internal_node_id": "0.0-83.0", "trial": 2, "time_elapsed": 542997, "serialpos": 21, "key_press": -1, "wordID": 1625, "type": "PRES_AUD", "trial_index": 110}, "uniqueid": "MTK2262:3S3AMIZX3VCI9GHMXQGJ636PA0YCDL", "dateTime": 1516908996298}, {"current_trial": 111, "trialdata": {"rt": -1000, "trial_type": "single-audio", "word": "rooster", "stimulus": "/static/audio/wordpool/ROOSTER.wav", "conditions": [24, 800, "a", 24000], "internal_node_id": "0.0-84.0", "trial": 2, "time_elapsed": 544811, "serialpos": 22, "key_press": -1, "wordID": 1208, "type": "PRES_AUD", "trial_index": 111}, "uniqueid": "MTK2262:3S3AMIZX3VCI9GHMXQGJ636PA0YCDL", "dateTime": 1516908998112}, {"current_trial": 112, "trialdata": {"rt": -1000, "trial_type": "single-audio", "word": "mailman", "stimulus": "/static/audio/wordpool/MAILMAN.wav", "conditions": [24, 800, "a", 24000], "internal_node_id": "0.0-85.0", "trial": 2, "time_elapsed": 546642, "serialpos": 23, "key_press": -1, "wordID": 857, "type": "PRES_AUD", "trial_index": 112}, "uniqueid": "MTK2262:3S3AMIZX3VCI9GHMXQGJ636PA0YCDL", "dateTime": 1516908999944}, {"current_trial": 113, "trialdata": {"rt": -1, "trial_type": "single-stim", "stimulus": "", "internal_node_id": "0.0-86.0-0.0", "time_elapsed": 548000, "key_press": -1, "type": "PRE_RECALL_DELAY", "trial_index": 113}, "uniqueid": "MTK2262:3S3AMIZX3VCI9GHMXQGJ636PA0YCDL", "dateTime": 1516909001301}, {"current_trial": 114, "trialdata": {"rt": -1000, "trial_type": "single-audio", "stimulus": "/static/audio/400Hz.wav", "internal_node_id": "0.0-87.0", "time_elapsed": 548509, "key_press": -1, "type": "PRE_RECALL_ALERT", "trial_index": 114}, "uniqueid": "MTK2262:3S3AMIZX3VCI9GHMXQGJ636PA0YCDL", "dateTime": 1516909001811}], "currenttrial": 115, "condition": 1, "mode": "live"}