{"assignmentId": "3QRYMNZ7FZO8H9AA86PCRIINBDVTN7", "workerId": "MTK2093", "questiondata": {"avail_screen_height": 728, "color_depth": 24, "screen_width": 1366, "pixel_depth": 24, "avail_screen_width": 1366, "screen_height": 768}, "bonus": 0, "hitId": "3N7PQ0KLI5WX1219AQB0UYOWL3QE30", "counterbalance": 319, "useragent": "Mozilla/5.0 (Windows NT 10.0; Win64; x64; rv:57.0) Gecko/20100101 Firefox/57.0", "eventdata": [{"eventtype": "initialized", "interval": 0, "value": null, "timestamp": 1516729538163}, {"eventtype": "window_resize", "interval": 1, "value": [1350, 658], "timestamp": 1516729538164}, {"eventtype": "focus", "interval": 6324, "value": "off", "timestamp": 1516729544488}, {"eventtype": "focus", "interval": 5185, "value": "on", "timestamp": 1516729549673}, {"eventtype": "focus", "interval": 2388130, "value": "off", "timestamp": 1516731937803}, {"eventtype": "focus", "interval": 9894, "value": "on", "timestamp": 1516731947697}], "data": [{"current_trial": 0, "trialdata": {"rt": 34063, "trial_type": "text", "internal_node_id": "0.0-0.0", "time_elapsed": 34068, "key_press": 32, "type": "INSTRUCTIONS", "trial_index": 0}, "uniqueid": "MTK2093:3QRYMNZ7FZO8H9AA86PCRIINBDVTN7", "dateTime": 1516729621319}, {"current_trial": 1, "trialdata": {"rt": 54862, "trial_type": "text", "internal_node_id": "0.0-1.0", "time_elapsed": 88937, "key_press": 32, "type": "INSTRUCTIONS", "trial_index": 1}, "uniqueid": "MTK2093:3QRYMNZ7FZO8H9AA86PCRIINBDVTN7", "dateTime": 1516729676188}, {"current_trial": 2, "trialdata": {"rt": [13825], "trial_type": "audio-test", "responses": ["ocean"], "internal_node_id": "0.0-2.0", "time_elapsed": 103086, "type": "AUDIO_TEST", "trial_index": 2}, "uniqueid": "MTK2093:3QRYMNZ7FZO8H9AA86PCRIINBDVTN7", "dateTime": 1516729690337}, {"current_trial": 3, "trialdata": {"rt": [39994], "trial_type": "audio-test", "responses": ["crystal"], "internal_node_id": "0.0-3.0", "time_elapsed": 143118, "type": "AUDIO_TEST", "trial_index": 3}, "uniqueid": "MTK2093:3QRYMNZ7FZO8H9AA86PCRIINBDVTN7", "dateTime": 1516729730368}, {"current_trial": 4, "trialdata": {"rt": [7725], "trial_type": "audio-test", "responses": ["spice"], "internal_node_id": "0.0-4.0", "time_elapsed": 150878, "type": "AUDIO_TEST", "trial_index": 4}, "uniqueid": "MTK2093:3QRYMNZ7FZO8H9AA86PCRIINBDVTN7", "dateTime": 1516729738128}, {"current_trial": 5, "trialdata": {"rt": 32302, "trial_type": "survey-text", "responses": "{\"Q0\":\"10:30\",\"Q1\":\"5:30\",\"Q2\":\"4\"}", "internal_node_id": "0.0-5.0", "time_elapsed": 183959, "type": "SLEEP_SURVEY", "trial_index": 5}, "uniqueid": "MTK2093:3QRYMNZ7FZO8H9AA86PCRIINBDVTN7", "dateTime": 1516729771209}, {"current_trial": 6, "trialdata": {"rt": 112707, "trial_type": "text", "internal_node_id": "0.0-6.0", "time_elapsed": 297690, "key_press": 32, "type": "INSTRUCTIONS", "trial_index": 6}, "uniqueid": "MTK2093:3QRYMNZ7FZO8H9AA86PCRIINBDVTN7", "dateTime": 1516729884940}, {"current_trial": 7, "trialdata": {"rt": 20105, "trial_type": "text", "internal_node_id": "0.0-7.0", "time_elapsed": 318299, "key_press": 32, "type": "INSTRUCTIONS", "trial_index": 7}, "uniqueid": "MTK2093:3QRYMNZ7FZO8H9AA86PCRIINBDVTN7", "dateTime": 1516729905549}, {"current_trial": 8, "trialdata": {"rt": 14818, "trial_type": "text", "internal_node_id": "0.0-8.0", "time_elapsed": 333626, "key_press": 32, "type": "INSTRUCTIONS", "trial_index": 8}, "uniqueid": "MTK2093:3QRYMNZ7FZO8H9AA86PCRIINBDVTN7", "dateTime": 1516729920876}, {"current_trial": 9, "trialdata": {"rt": [7708, 12266, 14368, 16969], "trial_type": "math-distractor", "key_times": [6777, 6893, 7708, 11565, 11644, 12266, 13936, 14063, 14368, 16138, 16353, 16969], "responses": ["21", "17", "16", "10"], "num2": [6, 9, 4, 5, 5], "num3": [9, 1, 8, 1, 2], "conditions": [18, 1200, "a", 18000], "internal_node_id": "0.0-9.0", "key_presses": [98, 97, 13, 97, 103, 13, 97, 102, 13, 97, 96, 13], "trial": 0, "time_elapsed": 352665, "type": "DISTRACTOR", "trial_index": 9, "num1": [6, 7, 4, 4, 2]}, "uniqueid": "MTK2093:3QRYMNZ7FZO8H9AA86PCRIINBDVTN7", "dateTime": 1516729939916}, {"current_trial": 10, "trialdata": {"rt": -1, "trial_type": "single-stim", "stimulus": "<p id=\"stim\">10</p>", "internal_node_id": "0.0-10.0-0.0", "time_elapsed": 355703, "key_press": -1, "trial_index": 10}, "uniqueid": "MTK2093:3QRYMNZ7FZO8H9AA86PCRIINBDVTN7", "dateTime": 1516729942953}, {"current_trial": 11, "trialdata": {"rt": -1, "trial_type": "single-stim", "stimulus": "<p id=\"stim\">9</p>", "internal_node_id": "0.0-10.0-1.0", "time_elapsed": 356720, "key_press": -1, "trial_index": 11}, "uniqueid": "MTK2093:3QRYMNZ7FZO8H9AA86PCRIINBDVTN7", "dateTime": 1516729943971}, {"current_trial": 12, "trialdata": {"rt": -1, "trial_type": "single-stim", "stimulus": "<p id=\"stim\">8</p>", "internal_node_id": "0.0-10.0-2.0", "time_elapsed": 357723, "key_press": -1, "trial_index": 12}, "uniqueid": "MTK2093:3QRYMNZ7FZO8H9AA86PCRIINBDVTN7", "dateTime": 1516729944973}, {"current_trial": 13, "trialdata": {"rt": -1, "trial_type": "single-stim", "stimulus": "<p id=\"stim\">7</p>", "internal_node_id": "0.0-10.0-3.0", "time_elapsed": 358732, "key_press": -1, "trial_index": 13}, "uniqueid": "MTK2093:3QRYMNZ7FZO8H9AA86PCRIINBDVTN7", "dateTime": 1516729945982}, {"current_trial": 14, "trialdata": {"rt": -1, "trial_type": "single-stim", "stimulus": "<p id=\"stim\">6</p>", "internal_node_id": "0.0-10.0-4.0", "time_elapsed": 359741, "key_press": -1, "trial_index": 14}, "uniqueid": "MTK2093:3QRYMNZ7FZO8H9AA86PCRIINBDVTN7", "dateTime": 1516729946991}, {"current_trial": 15, "trialdata": {"rt": -1, "trial_type": "single-stim", "stimulus": "<p id=\"stim\">5</p>", "internal_node_id": "0.0-10.0-5.0", "time_elapsed": 360750, "key_press": -1, "trial_index": 15}, "uniqueid": "MTK2093:3QRYMNZ7FZO8H9AA86PCRIINBDVTN7", "dateTime": 1516729948000}, {"current_trial": 16, "trialdata": {"rt": -1, "trial_type": "single-stim", "stimulus": "<p id=\"stim\">4</p>", "internal_node_id": "0.0-10.0-6.0", "time_elapsed": 361759, "key_press": -1, "trial_index": 16}, "uniqueid": "MTK2093:3QRYMNZ7FZO8H9AA86PCRIINBDVTN7", "dateTime": 1516729949009}, {"current_trial": 17, "trialdata": {"rt": -1, "trial_type": "single-stim", "stimulus": "<p id=\"stim\">3</p>", "internal_node_id": "0.0-10.0-7.0", "time_elapsed": 362769, "key_press": -1, "trial_index": 17}, "uniqueid": "MTK2093:3QRYMNZ7FZO8H9AA86PCRIINBDVTN7", "dateTime": 1516729950019}, {"current_trial": 18, "trialdata": {"rt": -1, "trial_type": "single-stim", "stimulus": "<p id=\"stim\">2</p>", "internal_node_id": "0.0-10.0-8.0", "time_elapsed": 363778, "key_press": -1, "trial_index": 18}, "uniqueid": "MTK2093:3QRYMNZ7FZO8H9AA86PCRIINBDVTN7", "dateTime": 1516729951028}, {"current_trial": 19, "trialdata": {"rt": -1, "trial_type": "single-stim", "stimulus": "<p id=\"stim\">1</p>", "internal_node_id": "0.0-10.0-9.0", "time_elapsed": 364786, "key_press": -1, "trial_index": 19}, "uniqueid": "MTK2093:3QRYMNZ7FZO8H9AA86PCRIINBDVTN7", "dateTime": 1516729952037}, {"current_trial": 20, "trialdata": {"rt": -1, "trial_type": "single-stim", "stimulus": "<p id=\"stim\">+</p>", "internal_node_id": "0.0-11.0-0.0", "time_elapsed": 366292, "key_press": -1, "type": "FIXATION", "trial_index": 20}, "uniqueid": "MTK2093:3QRYMNZ7FZO8H9AA86PCRIINBDVTN7", "dateTime": 1516729953543}, {"current_trial": 21, "trialdata": {"rt": -1000, "trial_type": "single-audio", "word": "notebook", "stimulus": "/static/audio/wordpool/NOTEBOOK.wav", "conditions": [18, 1200, "a", 18000], "internal_node_id": "0.0-12.0", "trial": 0, "time_elapsed": 368574, "serialpos": 0, "key_press": -1, "wordID": 958, "type": "PRES_AUD", "trial_index": 21}, "uniqueid": "MTK2093:3QRYMNZ7FZO8H9AA86PCRIINBDVTN7", "dateTime": 1516729955824}, {"current_trial": 22, "trialdata": {"rt": -1000, "trial_type": "single-audio", "word": "costume", "stimulus": "/static/audio/wordpool/COSTUME.wav", "conditions": [18, 1200, "a", 18000], "internal_node_id": "0.0-13.0", "trial": 0, "time_elapsed": 370607, "serialpos": 1, "key_press": -1, "wordID": 382, "type": "PRES_AUD", "trial_index": 22}, "uniqueid": "MTK2093:3QRYMNZ7FZO8H9AA86PCRIINBDVTN7", "dateTime": 1516729957857}, {"current_trial": 23, "trialdata": {"rt": -1000, "trial_type": "single-audio", "word": "igloo", "stimulus": "/static/audio/wordpool/IGLOO.wav", "conditions": [18, 1200, "a", 18000], "internal_node_id": "0.0-14.0", "trial": 0, "time_elapsed": 372687, "serialpos": 2, "key_press": -1, "wordID": 733, "type": "PRES_AUD", "trial_index": 23}, "uniqueid": "MTK2093:3QRYMNZ7FZO8H9AA86PCRIINBDVTN7", "dateTime": 1516729959937}, {"current_trial": 24, "trialdata": {"rt": -1000, "trial_type": "single-audio", "word": "rust", "stimulus": "/static/audio/wordpool/RUST.wav", "conditions": [18, 1200, "a", 18000], "internal_node_id": "0.0-15.0", "trial": 0, "time_elapsed": 374736, "serialpos": 3, "key_press": -1, "wordID": 1218, "type": "PRES_AUD", "trial_index": 24}, "uniqueid": "MTK2093:3QRYMNZ7FZO8H9AA86PCRIINBDVTN7", "dateTime": 1516729961986}, {"current_trial": 25, "trialdata": {"rt": -1000, "trial_type": "single-audio", "word": "yarn", "stimulus": "/static/audio/wordpool/YARN.wav", "conditions": [18, 1200, "a", 18000], "internal_node_id": "0.0-16.0", "trial": 0, "time_elapsed": 376800, "serialpos": 4, "key_press": -1, "wordID": 1630, "type": "PRES_AUD", "trial_index": 25}, "uniqueid": "MTK2093:3QRYMNZ7FZO8H9AA86PCRIINBDVTN7", "dateTime": 1516729964050}, {"current_trial": 26, "trialdata": {"rt": -1000, "trial_type": "single-audio", "word": "zebra", "stimulus": "/static/audio/wordpool/ZEBRA.wav", "conditions": [18, 1200, "a", 18000], "internal_node_id": "0.0-17.0", "trial": 0, "time_elapsed": 379020, "serialpos": 5, "key_press": -1, "wordID": 1634, "type": "PRES_AUD", "trial_index": 26}, "uniqueid": "MTK2093:3QRYMNZ7FZO8H9AA86PCRIINBDVTN7", "dateTime": 1516729966270}, {"current_trial": 27, "trialdata": {"rt": -1000, "trial_type": "single-audio", "word": "tombstone", "stimulus": "/static/audio/wordpool/TOMBSTONE.wav", "conditions": [18, 1200, "a", 18000], "internal_node_id": "0.0-18.0", "trial": 0, "time_elapsed": 381286, "serialpos": 6, "key_press": -1, "wordID": 1477, "type": "PRES_AUD", "trial_index": 27}, "uniqueid": "MTK2093:3QRYMNZ7FZO8H9AA86PCRIINBDVTN7", "dateTime": 1516729968536}, {"current_trial": 28, "trialdata": {"rt": -1000, "trial_type": "single-audio", "word": "ketchup", "stimulus": "/static/audio/wordpool/KETCHUP.wav", "conditions": [18, 1200, "a", 18000], "internal_node_id": "0.0-19.0", "trial": 0, "time_elapsed": 383661, "serialpos": 7, "key_press": -1, "wordID": 770, "type": "PRES_AUD", "trial_index": 28}, "uniqueid": "MTK2093:3QRYMNZ7FZO8H9AA86PCRIINBDVTN7", "dateTime": 1516729970912}, {"current_trial": 29, "trialdata": {"rt": -1000, "trial_type": "single-audio", "word": "match", "stimulus": "/static/audio/wordpool/MATCH.wav", "conditions": [18, 1200, "a", 18000], "internal_node_id": "0.0-20.0", "trial": 0, "time_elapsed": 385928, "serialpos": 8, "key_press": -1, "wordID": 877, "type": "PRES_AUD", "trial_index": 29}, "uniqueid": "MTK2093:3QRYMNZ7FZO8H9AA86PCRIINBDVTN7", "dateTime": 1516729973178}, {"current_trial": 30, "trialdata": {"rt": -1000, "trial_type": "single-audio", "word": "suspect", "stimulus": "/static/audio/wordpool/SUSPECT.wav", "conditions": [18, 1200, "a", 18000], "internal_node_id": "0.0-21.0", "trial": 0, "time_elapsed": 388086, "serialpos": 9, "key_press": -1, "wordID": 1414, "type": "PRES_AUD", "trial_index": 30}, "uniqueid": "MTK2093:3QRYMNZ7FZO8H9AA86PCRIINBDVTN7", "dateTime": 1516729975336}, {"current_trial": 31, "trialdata": {"rt": -1000, "trial_type": "single-audio", "word": "lily", "stimulus": "/static/audio/wordpool/LILY.wav", "conditions": [18, 1200, "a", 18000], "internal_node_id": "0.0-22.0", "trial": 0, "time_elapsed": 390197, "serialpos": 10, "key_press": -1, "wordID": 820, "type": "PRES_AUD", "trial_index": 31}, "uniqueid": "MTK2093:3QRYMNZ7FZO8H9AA86PCRIINBDVTN7", "dateTime": 1516729977447}, {"current_trial": 32, "trialdata": {"rt": -1000, "trial_type": "single-audio", "word": "baby", "stimulus": "/static/audio/wordpool/BABY.wav", "conditions": [18, 1200, "a", 18000], "internal_node_id": "0.0-23.0", "trial": 0, "time_elapsed": 392354, "serialpos": 11, "key_press": -1, "wordID": 63, "type": "PRES_AUD", "trial_index": 32}, "uniqueid": "MTK2093:3QRYMNZ7FZO8H9AA86PCRIINBDVTN7", "dateTime": 1516729979604}, {"current_trial": 33, "trialdata": {"rt": -1000, "trial_type": "single-audio", "word": "cigar", "stimulus": "/static/audio/wordpool/CIGAR.wav", "conditions": [18, 1200, "a", 18000], "internal_node_id": "0.0-24.0", "trial": 0, "time_elapsed": 394434, "serialpos": 12, "key_press": -1, "wordID": 307, "type": "PRES_AUD", "trial_index": 33}, "uniqueid": "MTK2093:3QRYMNZ7FZO8H9AA86PCRIINBDVTN7", "dateTime": 1516729981684}, {"current_trial": 34, "trialdata": {"rt": -1000, "trial_type": "single-audio", "word": "outdoors", "stimulus": "/static/audio/wordpool/OUTDOORS.wav", "conditions": [18, 1200, "a", 18000], "internal_node_id": "0.0-25.0", "trial": 0, "time_elapsed": 396669, "serialpos": 13, "key_press": -1, "wordID": 986, "type": "PRES_AUD", "trial_index": 34}, "uniqueid": "MTK2093:3QRYMNZ7FZO8H9AA86PCRIINBDVTN7", "dateTime": 1516729983920}, {"current_trial": 35, "trialdata": {"rt": -1000, "trial_type": "single-audio", "word": "muffin", "stimulus": "/static/audio/wordpool/MUFFIN.wav", "conditions": [18, 1200, "a", 18000], "internal_node_id": "0.0-26.0", "trial": 0, "time_elapsed": 398858, "serialpos": 14, "key_press": -1, "wordID": 928, "type": "PRES_AUD", "trial_index": 35}, "uniqueid": "MTK2093:3QRYMNZ7FZO8H9AA86PCRIINBDVTN7", "dateTime": 1516729986108}, {"current_trial": 36, "trialdata": {"rt": -1000, "trial_type": "single-audio", "word": "marrow", "stimulus": "/static/audio/wordpool/MARROW.wav", "conditions": [18, 1200, "a", 18000], "internal_node_id": "0.0-27.0", "trial": 0, "time_elapsed": 401171, "serialpos": 15, "key_press": -1, "wordID": 871, "type": "PRES_AUD", "trial_index": 36}, "uniqueid": "MTK2093:3QRYMNZ7FZO8H9AA86PCRIINBDVTN7", "dateTime": 1516729988421}, {"current_trial": 37, "trialdata": {"rt": -1000, "trial_type": "single-audio", "word": "marker", "stimulus": "/static/audio/wordpool/MARKER.wav", "conditions": [18, 1200, "a", 18000], "internal_node_id": "0.0-28.0", "trial": 0, "time_elapsed": 403530, "serialpos": 16, "key_press": -1, "wordID": 869, "type": "PRES_AUD", "trial_index": 37}, "uniqueid": "MTK2093:3QRYMNZ7FZO8H9AA86PCRIINBDVTN7", "dateTime": 1516729990781}, {"current_trial": 38, "trialdata": {"rt": -1000, "trial_type": "single-audio", "word": "message", "stimulus": "/static/audio/wordpool/MESSAGE.wav", "conditions": [18, 1200, "a", 18000], "internal_node_id": "0.0-29.0", "trial": 0, "time_elapsed": 405859, "serialpos": 17, "key_press": -1, "wordID": 887, "type": "PRES_AUD", "trial_index": 38}, "uniqueid": "MTK2093:3QRYMNZ7FZO8H9AA86PCRIINBDVTN7", "dateTime": 1516729993109}, {"current_trial": 39, "trialdata": {"rt": -1, "trial_type": "single-stim", "stimulus": "", "internal_node_id": "0.0-30.0-0.0", "time_elapsed": 407101, "key_press": -1, "type": "PRE_RECALL_DELAY", "trial_index": 39}, "uniqueid": "MTK2093:3QRYMNZ7FZO8H9AA86PCRIINBDVTN7", "dateTime": 1516729994351}, {"current_trial": 40, "trialdata": {"rt": -1000, "trial_type": "single-audio", "stimulus": "/static/audio/400Hz.wav", "internal_node_id": "0.0-31.0", "time_elapsed": 407613, "key_press": -1, "type": "PRE_RECALL_ALERT", "trial_index": 40}, "uniqueid": "MTK2093:3QRYMNZ7FZO8H9AA86PCRIINBDVTN7", "dateTime": 1516729994863}, {"current_trial": 41, "trialdata": {"rt": [4451, 7269, 8712, 9855, 16141, 25831, 36846, 40614, 45196], "recwords": ["igloo", "mattress", "baby", "rust", "ketchup", "lilly", "costume", "notebook", "soap"], "key_times": [1378, 1546, 1790, 3098, 3343, 3497, 4451, 5802, 5968, 6181, 6330, 6515, 6632, 6753, 6971, 7269, 7880, 8020, 8160, 8376, 8712, 9025, 9200, 9303, 9562, 9855, 12568, 12745, 13442, 13594, 14014, 15096, 15242, 15453, 15660, 16141, 24726, 24857, 25073, 25257, 25416, 25831, 34875, 35081, 35535, 35783, 36016, 36287, 36390, 36846, 38534, 39069, 39249, 39370, 39818, 39934, 40120, 40217, 40614, 43395, 44431, 44600, 44796, 45196], "trial_type": "free-recall", "conditions": [18, 1200, "a", 18000], "internal_node_id": "0.0-32.0-0.0", "key_presses": [16, 73, 71, 76, 79, 79, 13, 77, 65, 84, 84, 82, 69, 83, 83, 13, 66, 65, 66, 89, 13, 82, 85, 83, 84, 13, 75, 65, 8, 69, 84, 67, 72, 85, 80, 13, 76, 73, 76, 76, 89, 13, 67, 79, 83, 84, 85, 77, 69, 13, 78, 79, 84, 69, 66, 79, 79, 75, 13, 83, 79, 65, 80, 13], "trial": 0, "time_elapsed": 467625, "type": "FREE_RECALL", "trial_index": 41}, "uniqueid": "MTK2093:3QRYMNZ7FZO8H9AA86PCRIINBDVTN7", "dateTime": 1516730054884}, {"current_trial": 42, "trialdata": {"rt": 1763, "trial_type": "text", "internal_node_id": "0.0-33.0", "time_elapsed": 471405, "key_press": 32, "type": "INSTRUCTIONS", "trial_index": 42}, "uniqueid": "MTK2093:3QRYMNZ7FZO8H9AA86PCRIINBDVTN7", "dateTime": 1516730058655}, {"current_trial": 43, "trialdata": {"rt": [2414, 4463, 8563, 11801, 14950], "trial_type": "math-distractor", "key_times": [1948, 2032, 2414, 4053, 4221, 4463, 8117, 8283, 8563, 11353, 11517, 11801, 14436, 14658, 14950], "responses": ["12", "10", "18", "12", "17"], "num2": [8, 1, 3, 1, 4, 9], "num3": [2, 8, 6, 7, 5, 7], "conditions": [18, 1200, "a", 18000], "internal_node_id": "0.0-34.0", "key_presses": [97, 98, 13, 97, 96, 13, 97, 104, 13, 97, 98, 13, 97, 103, 13], "trial": 1, "time_elapsed": 491421, "type": "DISTRACTOR", "trial_index": 43, "num1": [2, 1, 9, 4, 8, 9]}, "uniqueid": "MTK2093:3QRYMNZ7FZO8H9AA86PCRIINBDVTN7", "dateTime": 1516730078671}, {"current_trial": 44, "trialdata": {"rt": -1, "trial_type": "single-stim", "stimulus": "<p id=\"stim\">10</p>", "internal_node_id": "0.0-35.0-0.0", "time_elapsed": 494433, "key_press": -1, "trial_index": 44}, "uniqueid": "MTK2093:3QRYMNZ7FZO8H9AA86PCRIINBDVTN7", "dateTime": 1516730081683}, {"current_trial": 45, "trialdata": {"rt": -1, "trial_type": "single-stim", "stimulus": "<p id=\"stim\">9</p>", "internal_node_id": "0.0-35.0-1.0", "time_elapsed": 495441, "key_press": -1, "trial_index": 45}, "uniqueid": "MTK2093:3QRYMNZ7FZO8H9AA86PCRIINBDVTN7", "dateTime": 1516730082691}, {"current_trial": 46, "trialdata": {"rt": -1, "trial_type": "single-stim", "stimulus": "<p id=\"stim\">8</p>", "internal_node_id": "0.0-35.0-2.0", "time_elapsed": 496450, "key_press": -1, "trial_index": 46}, "uniqueid": "MTK2093:3QRYMNZ7FZO8H9AA86PCRIINBDVTN7", "dateTime": 1516730083700}, {"current_trial": 47, "trialdata": {"rt": 756, "trial_type": "single-stim", "stimulus": "<p id=\"stim\">7</p>", "internal_node_id": "0.0-35.0-3.0", "time_elapsed": 497459, "key_press": 183, "trial_index": 47}, "uniqueid": "MTK2093:3QRYMNZ7FZO8H9AA86PCRIINBDVTN7", "dateTime": 1516730084710}, {"current_trial": 48, "trialdata": {"rt": 63, "trial_type": "single-stim", "stimulus": "<p id=\"stim\">6</p>", "internal_node_id": "0.0-35.0-4.0", "time_elapsed": 498468, "key_press": 183, "trial_index": 48}, "uniqueid": "MTK2093:3QRYMNZ7FZO8H9AA86PCRIINBDVTN7", "dateTime": 1516730085719}, {"current_trial": 49, "trialdata": {"rt": -1, "trial_type": "single-stim", "stimulus": "<p id=\"stim\">5</p>", "internal_node_id": "0.0-35.0-5.0", "time_elapsed": 499477, "key_press": -1, "trial_index": 49}, "uniqueid": "MTK2093:3QRYMNZ7FZO8H9AA86PCRIINBDVTN7", "dateTime": 1516730086727}, {"current_trial": 50, "trialdata": {"rt": -1, "trial_type": "single-stim", "stimulus": "<p id=\"stim\">4</p>", "internal_node_id": "0.0-35.0-6.0", "time_elapsed": 500486, "key_press": -1, "trial_index": 50}, "uniqueid": "MTK2093:3QRYMNZ7FZO8H9AA86PCRIINBDVTN7", "dateTime": 1516730087737}, {"current_trial": 51, "trialdata": {"rt": -1, "trial_type": "single-stim", "stimulus": "<p id=\"stim\">3</p>", "internal_node_id": "0.0-35.0-7.0", "time_elapsed": 501495, "key_press": -1, "trial_index": 51}, "uniqueid": "MTK2093:3QRYMNZ7FZO8H9AA86PCRIINBDVTN7", "dateTime": 1516730088745}, {"current_trial": 52, "trialdata": {"rt": -1, "trial_type": "single-stim", "stimulus": "<p id=\"stim\">2</p>", "internal_node_id": "0.0-35.0-8.0", "time_elapsed": 502504, "key_press": -1, "trial_index": 52}, "uniqueid": "MTK2093:3QRYMNZ7FZO8H9AA86PCRIINBDVTN7", "dateTime": 1516730089754}, {"current_trial": 53, "trialdata": {"rt": -1, "trial_type": "single-stim", "stimulus": "<p id=\"stim\">1</p>", "internal_node_id": "0.0-35.0-9.0", "time_elapsed": 503513, "key_press": -1, "trial_index": 53}, "uniqueid": "MTK2093:3QRYMNZ7FZO8H9AA86PCRIINBDVTN7", "dateTime": 1516730090763}, {"current_trial": 54, "trialdata": {"rt": -1, "trial_type": "single-stim", "stimulus": "<p id=\"stim\">+</p>", "internal_node_id": "0.0-36.0-0.0", "time_elapsed": 505019, "key_press": -1, "type": "FIXATION", "trial_index": 54}, "uniqueid": "MTK2093:3QRYMNZ7FZO8H9AA86PCRIINBDVTN7", "dateTime": 1516730092269}, {"current_trial": 55, "trialdata": {"rt": -1000, "trial_type": "single-audio", "word": "spouse", "stimulus": "/static/audio/wordpool/SPOUSE.wav", "conditions": [18, 1200, "a", 18000], "internal_node_id": "0.0-37.0", "trial": 1, "time_elapsed": 507331, "serialpos": 0, "key_press": -1, "wordID": 1357, "type": "PRES_AUD", "trial_index": 55}, "uniqueid": "MTK2093:3QRYMNZ7FZO8H9AA86PCRIINBDVTN7", "dateTime": 1516730094582}, {"current_trial": 56, "trialdata": {"rt": -1000, "trial_type": "single-audio", "word": "lightning", "stimulus": "/static/audio/wordpool/LIGHTNING.wav", "conditions": [18, 1200, "a", 18000], "internal_node_id": "0.0-38.0", "trial": 1, "time_elapsed": 509365, "serialpos": 1, "key_press": -1, "wordID": 819, "type": "PRES_AUD", "trial_index": 56}, "uniqueid": "MTK2093:3QRYMNZ7FZO8H9AA86PCRIINBDVTN7", "dateTime": 1516730096615}, {"current_trial": 57, "trialdata": {"rt": -1000, "trial_type": "single-audio", "word": "juggler", "stimulus": "/static/audio/wordpool/JUGGLER.wav", "conditions": [18, 1200, "a", 18000], "internal_node_id": "0.0-39.0", "trial": 1, "time_elapsed": 511771, "serialpos": 2, "key_press": -1, "wordID": 762, "type": "PRES_AUD", "trial_index": 57}, "uniqueid": "MTK2093:3QRYMNZ7FZO8H9AA86PCRIINBDVTN7", "dateTime": 1516730099021}, {"current_trial": 58, "trialdata": {"rt": -1000, "trial_type": "single-audio", "word": "stallion", "stimulus": "/static/audio/wordpool/STALLION.wav", "conditions": [18, 1200, "a", 18000], "internal_node_id": "0.0-40.0", "trial": 1, "time_elapsed": 513883, "serialpos": 3, "key_press": -1, "wordID": 1368, "type": "PRES_AUD", "trial_index": 58}, "uniqueid": "MTK2093:3QRYMNZ7FZO8H9AA86PCRIINBDVTN7", "dateTime": 1516730101133}, {"current_trial": 59, "trialdata": {"rt": -1000, "trial_type": "single-audio", "word": "lady", "stimulus": "/static/audio/wordpool/LADY.wav", "conditions": [18, 1200, "a", 18000], "internal_node_id": "0.0-41.0", "trial": 1, "time_elapsed": 516102, "serialpos": 4, "key_press": -1, "wordID": 793, "type": "PRES_AUD", "trial_index": 59}, "uniqueid": "MTK2093:3QRYMNZ7FZO8H9AA86PCRIINBDVTN7", "dateTime": 1516730103352}, {"current_trial": 60, "trialdata": {"rt": -1000, "trial_type": "single-audio", "word": "diver", "stimulus": "/static/audio/wordpool/DIVER.wav", "conditions": [18, 1200, "a", 18000], "internal_node_id": "0.0-42.0", "trial": 1, "time_elapsed": 518290, "serialpos": 5, "key_press": -1, "wordID": 475, "type": "PRES_AUD", "trial_index": 60}, "uniqueid": "MTK2093:3QRYMNZ7FZO8H9AA86PCRIINBDVTN7", "dateTime": 1516730105541}, {"current_trial": 61, "trialdata": {"rt": -1000, "trial_type": "single-audio", "word": "cottage", "stimulus": "/static/audio/wordpool/COTTAGE.wav", "conditions": [18, 1200, "a", 18000], "internal_node_id": "0.0-43.0", "trial": 1, "time_elapsed": 520619, "serialpos": 6, "key_press": -1, "wordID": 383, "type": "PRES_AUD", "trial_index": 61}, "uniqueid": "MTK2093:3QRYMNZ7FZO8H9AA86PCRIINBDVTN7", "dateTime": 1516730107869}, {"current_trial": 62, "trialdata": {"rt": -1000, "trial_type": "single-audio", "word": "forest", "stimulus": "/static/audio/wordpool/FOREST.wav", "conditions": [18, 1200, "a", 18000], "internal_node_id": "0.0-44.0", "trial": 1, "time_elapsed": 522761, "serialpos": 7, "key_press": -1, "wordID": 592, "type": "PRES_AUD", "trial_index": 62}, "uniqueid": "MTK2093:3QRYMNZ7FZO8H9AA86PCRIINBDVTN7", "dateTime": 1516730110011}, {"current_trial": 63, "trialdata": {"rt": -1000, "trial_type": "single-audio", "word": "cousin", "stimulus": "/static/audio/wordpool/COUSIN.wav", "conditions": [18, 1200, "a", 18000], "internal_node_id": "0.0-45.0", "trial": 1, "time_elapsed": 524966, "serialpos": 8, "key_press": -1, "wordID": 391, "type": "PRES_AUD", "trial_index": 63}, "uniqueid": "MTK2093:3QRYMNZ7FZO8H9AA86PCRIINBDVTN7", "dateTime": 1516730112216}, {"current_trial": 64, "trialdata": {"rt": -1000, "trial_type": "single-audio", "word": "napkin", "stimulus": "/static/audio/wordpool/NAPKIN.wav", "conditions": [18, 1200, "a", 18000], "internal_node_id": "0.0-46.0", "trial": 1, "time_elapsed": 527325, "serialpos": 9, "key_press": -1, "wordID": 936, "type": "PRES_AUD", "trial_index": 64}, "uniqueid": "MTK2093:3QRYMNZ7FZO8H9AA86PCRIINBDVTN7", "dateTime": 1516730114575}, {"current_trial": 65, "trialdata": {"rt": -1000, "trial_type": "single-audio", "word": "padding", "stimulus": "/static/audio/wordpool/PADDING.wav", "conditions": [18, 1200, "a", 18000], "internal_node_id": "0.0-47.0", "trial": 1, "time_elapsed": 529420, "serialpos": 10, "key_press": -1, "wordID": 998, "type": "PRES_AUD", "trial_index": 65}, "uniqueid": "MTK2093:3QRYMNZ7FZO8H9AA86PCRIINBDVTN7", "dateTime": 1516730116670}, {"current_trial": 66, "trialdata": {"rt": -1000, "trial_type": "single-audio", "word": "cafe", "stimulus": "/static/audio/wordpool/CAFE.wav", "conditions": [18, 1200, "a", 18000], "internal_node_id": "0.0-48.0", "trial": 1, "time_elapsed": 531780, "serialpos": 11, "key_press": -1, "wordID": 215, "type": "PRES_AUD", "trial_index": 66}, "uniqueid": "MTK2093:3QRYMNZ7FZO8H9AA86PCRIINBDVTN7", "dateTime": 1516730119030}, {"current_trial": 67, "trialdata": {"rt": -1000, "trial_type": "single-audio", "word": "popcorn", "stimulus": "/static/audio/wordpool/POPCORN.wav", "conditions": [18, 1200, "a", 18000], "internal_node_id": "0.0-49.0", "trial": 1, "time_elapsed": 533906, "serialpos": 12, "key_press": -1, "wordID": 1103, "type": "PRES_AUD", "trial_index": 67}, "uniqueid": "MTK2093:3QRYMNZ7FZO8H9AA86PCRIINBDVTN7", "dateTime": 1516730121157}, {"current_trial": 68, "trialdata": {"rt": -1000, "trial_type": "single-audio", "word": "cashew", "stimulus": "/static/audio/wordpool/CASHEW.wav", "conditions": [18, 1200, "a", 18000], "internal_node_id": "0.0-50.0", "trial": 1, "time_elapsed": 536064, "serialpos": 13, "key_press": -1, "wordID": 252, "type": "PRES_AUD", "trial_index": 68}, "uniqueid": "MTK2093:3QRYMNZ7FZO8H9AA86PCRIINBDVTN7", "dateTime": 1516730123315}, {"current_trial": 69, "trialdata": {"rt": -1000, "trial_type": "single-audio", "word": "harp", "stimulus": "/static/audio/wordpool/HARP.wav", "conditions": [18, 1200, "a", 18000], "internal_node_id": "0.0-51.0", "trial": 1, "time_elapsed": 538361, "serialpos": 14, "key_press": -1, "wordID": 688, "type": "PRES_AUD", "trial_index": 69}, "uniqueid": "MTK2093:3QRYMNZ7FZO8H9AA86PCRIINBDVTN7", "dateTime": 1516730125612}, {"current_trial": 70, "trialdata": {"rt": -1000, "trial_type": "single-audio", "word": "tractor", "stimulus": "/static/audio/wordpool/TRACTOR.wav", "conditions": [18, 1200, "a", 18000], "internal_node_id": "0.0-52.0", "trial": 1, "time_elapsed": 540426, "serialpos": 15, "key_press": -1, "wordID": 1492, "type": "PRES_AUD", "trial_index": 70}, "uniqueid": "MTK2093:3QRYMNZ7FZO8H9AA86PCRIINBDVTN7", "dateTime": 1516730127676}, {"current_trial": 71, "trialdata": {"rt": -1000, "trial_type": "single-audio", "word": "candy", "stimulus": "/static/audio/wordpool/CANDY.wav", "conditions": [18, 1200, "a", 18000], "internal_node_id": "0.0-53.0", "trial": 1, "time_elapsed": 542538, "serialpos": 16, "key_press": -1, "wordID": 229, "type": "PRES_AUD", "trial_index": 71}, "uniqueid": "MTK2093:3QRYMNZ7FZO8H9AA86PCRIINBDVTN7", "dateTime": 1516730129788}, {"current_trial": 72, "trialdata": {"rt": -1000, "trial_type": "single-audio", "word": "chauffeur", "stimulus": "/static/audio/wordpool/CHAUFFEUR.wav", "conditions": [18, 1200, "a", 18000], "internal_node_id": "0.0-54.0", "trial": 1, "time_elapsed": 544679, "serialpos": 17, "key_press": -1, "wordID": 282, "type": "PRES_AUD", "trial_index": 72}, "uniqueid": "MTK2093:3QRYMNZ7FZO8H9AA86PCRIINBDVTN7", "dateTime": 1516730131929}, {"current_trial": 73, "trialdata": {"rt": -1, "trial_type": "single-stim", "stimulus": "", "internal_node_id": "0.0-55.0-0.0", "time_elapsed": 545984, "key_press": -1, "type": "PRE_RECALL_DELAY", "trial_index": 73}, "uniqueid": "MTK2093:3QRYMNZ7FZO8H9AA86PCRIINBDVTN7", "dateTime": 1516730133234}, {"current_trial": 74, "trialdata": {"rt": -1000, "trial_type": "single-audio", "stimulus": "/static/audio/400Hz.wav", "internal_node_id": "0.0-56.0", "time_elapsed": 546496, "key_press": -1, "type": "PRE_RECALL_ALERT", "trial_index": 74}, "uniqueid": "MTK2093:3QRYMNZ7FZO8H9AA86PCRIINBDVTN7", "dateTime": 1516730133746}, {"current_trial": 75, "trialdata": {"rt": [2686, 9121, 11460, 16559, 20447, 26990], "recwords": ["candy", "spouse", "cousin", "diver", "cottage", "lady"], "key_times": [1030, 1133, 1325, 1485, 1784, 2020, 2686, 4105, 4189, 4486, 4762, 5270, 5404, 6028, 6284, 6476, 7266, 7987, 8234, 8391, 8475, 8578, 9121, 9713, 9807, 9900, 10022, 10349, 10476, 10669, 11460, 15528, 15649, 15810, 15967, 16192, 16319, 16559, 18755, 18838, 18997, 19407, 19639, 19788, 19971, 20097, 20447, 25416, 25556, 25740, 25923, 26386, 26523, 26648, 26990, 29420, 29500, 29682, 29789, 32552, 32782, 32950, 33076, 33959, 34478, 34511, 34545, 34578, 34611, 34644, 34678, 34711, 34744, 34777, 34811, 34844, 34877, 34910, 34944, 40962, 41482, 41517, 41550, 41583], "trial_type": "free-recall", "conditions": [18, 1200, "a", 18000], "internal_node_id": "0.0-57.0-0.0", "key_presses": [16, 67, 65, 78, 68, 89, 13, 16, 83, 79, 85, 8, 8, 80, 79, 85, 67, 83, 8, 8, 83, 69, 13, 16, 67, 79, 85, 83, 73, 78, 13, 16, 68, 73, 86, 69, 82, 13, 16, 67, 79, 84, 84, 65, 71, 69, 13, 16, 76, 65, 89, 8, 68, 89, 13, 16, 67, 72, 79, 80, 72, 69, 82, 8, 8, 8, 8, 8, 8, 8, 8, 8, 8, 8, 8, 8, 8, 8, 8, 16, 16, 16, 16, 16], "trial": 1, "time_elapsed": 606518, "type": "FREE_RECALL", "trial_index": 75}, "uniqueid": "MTK2093:3QRYMNZ7FZO8H9AA86PCRIINBDVTN7", "dateTime": 1516730193774}, {"current_trial": 76, "trialdata": {"rt": 1834, "trial_type": "text", "internal_node_id": "0.0-58.0", "time_elapsed": 610369, "key_press": 32, "type": "INSTRUCTIONS", "trial_index": 76}, "uniqueid": "MTK2093:3QRYMNZ7FZO8H9AA86PCRIINBDVTN7", "dateTime": 1516730197619}, {"current_trial": 77, "trialdata": {"rt": [3727, 6267, 8750], "trial_type": "math-distractor", "key_times": [2045, 3727, 5626, 6267, 8216, 8513, 8750], "responses": ["9", "5", "13"], "num2": [3, 1, 6, 3], "num3": [1, 1, 6, 8], "conditions": [24, 1600, "a", 12000], "internal_node_id": "0.0-59.0", "key_presses": [105, 13, 101, 13, 97, 99, 13], "trial": 2, "time_elapsed": 623390, "type": "DISTRACTOR", "trial_index": 77, "num1": [5, 3, 1, 3]}, "uniqueid": "MTK2093:3QRYMNZ7FZO8H9AA86PCRIINBDVTN7", "dateTime": 1516730210640}, {"current_trial": 78, "trialdata": {"rt": -1, "trial_type": "single-stim", "stimulus": "<p id=\"stim\">10</p>", "internal_node_id": "0.0-60.0-0.0", "time_elapsed": 626401, "key_press": -1, "trial_index": 78}, "uniqueid": "MTK2093:3QRYMNZ7FZO8H9AA86PCRIINBDVTN7", "dateTime": 1516730213651}, {"current_trial": 79, "trialdata": {"rt": -1, "trial_type": "single-stim", "stimulus": "<p id=\"stim\">9</p>", "internal_node_id": "0.0-60.0-1.0", "time_elapsed": 627410, "key_press": -1, "trial_index": 79}, "uniqueid": "MTK2093:3QRYMNZ7FZO8H9AA86PCRIINBDVTN7", "dateTime": 1516730214660}, {"current_trial": 80, "trialdata": {"rt": -1, "trial_type": "single-stim", "stimulus": "<p id=\"stim\">8</p>", "internal_node_id": "0.0-60.0-2.0", "time_elapsed": 628419, "key_press": -1, "trial_index": 80}, "uniqueid": "MTK2093:3QRYMNZ7FZO8H9AA86PCRIINBDVTN7", "dateTime": 1516730215669}, {"current_trial": 81, "trialdata": {"rt": -1, "trial_type": "single-stim", "stimulus": "<p id=\"stim\">7</p>", "internal_node_id": "0.0-60.0-3.0", "time_elapsed": 629428, "key_press": -1, "trial_index": 81}, "uniqueid": "MTK2093:3QRYMNZ7FZO8H9AA86PCRIINBDVTN7", "dateTime": 1516730216679}, {"current_trial": 82, "trialdata": {"rt": -1, "trial_type": "single-stim", "stimulus": "<p id=\"stim\">6</p>", "internal_node_id": "0.0-60.0-4.0", "time_elapsed": 630437, "key_press": -1, "trial_index": 82}, "uniqueid": "MTK2093:3QRYMNZ7FZO8H9AA86PCRIINBDVTN7", "dateTime": 1516730217688}, {"current_trial": 83, "trialdata": {"rt": -1, "trial_type": "single-stim", "stimulus": "<p id=\"stim\">5</p>", "internal_node_id": "0.0-60.0-5.0", "time_elapsed": 631446, "key_press": -1, "trial_index": 83}, "uniqueid": "MTK2093:3QRYMNZ7FZO8H9AA86PCRIINBDVTN7", "dateTime": 1516730218697}, {"current_trial": 84, "trialdata": {"rt": -1, "trial_type": "single-stim", "stimulus": "<p id=\"stim\">4</p>", "internal_node_id": "0.0-60.0-6.0", "time_elapsed": 632455, "key_press": -1, "trial_index": 84}, "uniqueid": "MTK2093:3QRYMNZ7FZO8H9AA86PCRIINBDVTN7", "dateTime": 1516730219705}, {"current_trial": 85, "trialdata": {"rt": -1, "trial_type": "single-stim", "stimulus": "<p id=\"stim\">3</p>", "internal_node_id": "0.0-60.0-7.0", "time_elapsed": 633464, "key_press": -1, "trial_index": 85}, "uniqueid": "MTK2093:3QRYMNZ7FZO8H9AA86PCRIINBDVTN7", "dateTime": 1516730220714}, {"current_trial": 86, "trialdata": {"rt": -1, "trial_type": "single-stim", "stimulus": "<p id=\"stim\">2</p>", "internal_node_id": "0.0-60.0-8.0", "time_elapsed": 634473, "key_press": -1, "trial_index": 86}, "uniqueid": "MTK2093:3QRYMNZ7FZO8H9AA86PCRIINBDVTN7", "dateTime": 1516730221723}, {"current_trial": 87, "trialdata": {"rt": -1, "trial_type": "single-stim", "stimulus": "<p id=\"stim\">1</p>", "internal_node_id": "0.0-60.0-9.0", "time_elapsed": 635482, "key_press": -1, "trial_index": 87}, "uniqueid": "MTK2093:3QRYMNZ7FZO8H9AA86PCRIINBDVTN7", "dateTime": 1516730222732}, {"current_trial": 88, "trialdata": {"rt": -1, "trial_type": "single-stim", "stimulus": "<p id=\"stim\">+</p>", "internal_node_id": "0.0-61.0-0.0", "time_elapsed": 636989, "key_press": -1, "type": "FIXATION", "trial_index": 88}, "uniqueid": "MTK2093:3QRYMNZ7FZO8H9AA86PCRIINBDVTN7", "dateTime": 1516730224239}, {"current_trial": 89, "trialdata": {"rt": -1000, "trial_type": "single-audio", "word": "parsley", "stimulus": "/static/audio/wordpool/PARSLEY.wav", "conditions": [24, 1600, "a", 12000], "internal_node_id": "0.0-62.0", "trial": 2, "time_elapsed": 639565, "serialpos": 0, "key_press": -1, "wordID": 1015, "type": "PRES_AUD", "trial_index": 89}, "uniqueid": "MTK2093:3QRYMNZ7FZO8H9AA86PCRIINBDVTN7", "dateTime": 1516730226815}, {"current_trial": 90, "trialdata": {"rt": -1000, "trial_type": "single-audio", "word": "tunnel", "stimulus": "/static/audio/wordpool/TUNNEL.wav", "conditions": [24, 1600, "a", 12000], "internal_node_id": "0.0-63.0", "trial": 2, "time_elapsed": 642219, "serialpos": 1, "key_press": -1, "wordID": 1518, "type": "PRES_AUD", "trial_index": 90}, "uniqueid": "MTK2093:3QRYMNZ7FZO8H9AA86PCRIINBDVTN7", "dateTime": 1516730229470}, {"current_trial": 91, "trialdata": {"rt": -1000, "trial_type": "single-audio", "word": "knapsack", "stimulus": "/static/audio/wordpool/KNAPSACK.wav", "conditions": [24, 1600, "a", 12000], "internal_node_id": "0.0-64.0", "trial": 2, "time_elapsed": 644703, "serialpos": 2, "key_press": -1, "wordID": 782, "type": "PRES_AUD", "trial_index": 91}, "uniqueid": "MTK2093:3QRYMNZ7FZO8H9AA86PCRIINBDVTN7", "dateTime": 1516730231953}, {"current_trial": 92, "trialdata": {"rt": -1000, "trial_type": "single-audio", "word": "picnic", "stimulus": "/static/audio/wordpool/PICNIC.wav", "conditions": [24, 1600, "a", 12000], "internal_node_id": "0.0-65.0", "trial": 2, "time_elapsed": 647451, "serialpos": 3, "key_press": -1, "wordID": 1059, "type": "PRES_AUD", "trial_index": 92}, "uniqueid": "MTK2093:3QRYMNZ7FZO8H9AA86PCRIINBDVTN7", "dateTime": 1516730234701}, {"current_trial": 93, "trialdata": {"rt": -1000, "trial_type": "single-audio", "word": "ulcer", "stimulus": "/static/audio/wordpool/ULCER.wav", "conditions": [24, 1600, "a", 12000], "internal_node_id": "0.0-66.0", "trial": 2, "time_elapsed": 650136, "serialpos": 4, "key_press": -1, "wordID": 1532, "type": "PRES_AUD", "trial_index": 93}, "uniqueid": "MTK2093:3QRYMNZ7FZO8H9AA86PCRIINBDVTN7", "dateTime": 1516730237386}, {"current_trial": 94, "trialdata": {"rt": -1000, "trial_type": "single-audio", "word": "cabbage", "stimulus": "/static/audio/wordpool/CABBAGE.wav", "conditions": [24, 1600, "a", 12000], "internal_node_id": "0.0-67.0", "trial": 2, "time_elapsed": 652744, "serialpos": 5, "key_press": -1, "wordID": 209, "type": "PRES_AUD", "trial_index": 94}, "uniqueid": "MTK2093:3QRYMNZ7FZO8H9AA86PCRIINBDVTN7", "dateTime": 1516730239994}, {"current_trial": 95, "trialdata": {"rt": -1000, "trial_type": "single-audio", "word": "apron", "stimulus": "/static/audio/wordpool/APRON.wav", "conditions": [24, 1600, "a", 12000], "internal_node_id": "0.0-68.0", "trial": 2, "time_elapsed": 655460, "serialpos": 6, "key_press": -1, "wordID": 34, "type": "PRES_AUD", "trial_index": 95}, "uniqueid": "MTK2093:3QRYMNZ7FZO8H9AA86PCRIINBDVTN7", "dateTime": 1516730242711}, {"current_trial": 96, "trialdata": {"rt": -1000, "trial_type": "single-audio", "word": "tile", "stimulus": "/static/audio/wordpool/TILE.wav", "conditions": [24, 1600, "a", 12000], "internal_node_id": "0.0-69.0", "trial": 2, "time_elapsed": 657897, "serialpos": 7, "key_press": -1, "wordID": 1467, "type": "PRES_AUD", "trial_index": 96}, "uniqueid": "MTK2093:3QRYMNZ7FZO8H9AA86PCRIINBDVTN7", "dateTime": 1516730245148}, {"current_trial": 97, "trialdata": {"rt": -1000, "trial_type": "single-audio", "word": "rabbit", "stimulus": "/static/audio/wordpool/RABBIT.wav", "conditions": [24, 1600, "a", 12000], "internal_node_id": "0.0-70.0", "trial": 2, "time_elapsed": 660583, "serialpos": 8, "key_press": -1, "wordID": 1151, "type": "PRES_AUD", "trial_index": 97}, "uniqueid": "MTK2093:3QRYMNZ7FZO8H9AA86PCRIINBDVTN7", "dateTime": 1516730247834}, {"current_trial": 98, "trialdata": {"rt": -1000, "trial_type": "single-audio", "word": "fox", "stimulus": "/static/audio/wordpool/FOX.wav", "conditions": [24, 1600, "a", 12000], "internal_node_id": "0.0-71.0", "trial": 2, "time_elapsed": 663331, "serialpos": 9, "key_press": -1, "wordID": 597, "type": "PRES_AUD", "trial_index": 98}, "uniqueid": "MTK2093:3QRYMNZ7FZO8H9AA86PCRIINBDVTN7", "dateTime": 1516730250581}, {"current_trial": 99, "trialdata": {"rt": -1000, "trial_type": "single-audio", "word": "grape", "stimulus": "/static/audio/wordpool/GRAPE.wav", "conditions": [24, 1600, "a", 12000], "internal_node_id": "0.0-72.0", "trial": 2, "time_elapsed": 665907, "serialpos": 10, "key_press": -1, "wordID": 653, "type": "PRES_AUD", "trial_index": 99}, "uniqueid": "MTK2093:3QRYMNZ7FZO8H9AA86PCRIINBDVTN7", "dateTime": 1516730253158}, {"current_trial": 100, "trialdata": {"rt": -1000, "trial_type": "single-audio", "word": "stream", "stimulus": "/static/audio/wordpool/STREAM.wav", "conditions": [24, 1600, "a", 12000], "internal_node_id": "0.0-73.0", "trial": 2, "time_elapsed": 668546, "serialpos": 11, "key_press": -1, "wordID": 1391, "type": "PRES_AUD", "trial_index": 100}, "uniqueid": "MTK2093:3QRYMNZ7FZO8H9AA86PCRIINBDVTN7", "dateTime": 1516730255796}, {"current_trial": 101, "trialdata": {"rt": -1000, "trial_type": "single-audio", "word": "donkey", "stimulus": "/static/audio/wordpool/DONKEY.wav", "conditions": [24, 1600, "a", 12000], "internal_node_id": "0.0-74.0", "trial": 2, "time_elapsed": 671061, "serialpos": 12, "key_press": -1, "wordID": 483, "type": "PRES_AUD", "trial_index": 101}, "uniqueid": "MTK2093:3QRYMNZ7FZO8H9AA86PCRIINBDVTN7", "dateTime": 1516730258311}, {"current_trial": 102, "trialdata": {"rt": -1000, "trial_type": "single-audio", "word": "ankle", "stimulus": "/static/audio/wordpool/ANKLE.wav", "conditions": [24, 1600, "a", 12000], "internal_node_id": "0.0-75.0", "trial": 2, "time_elapsed": 673731, "serialpos": 13, "key_press": -1, "wordID": 23, "type": "PRES_AUD", "trial_index": 102}, "uniqueid": "MTK2093:3QRYMNZ7FZO8H9AA86PCRIINBDVTN7", "dateTime": 1516730260981}, {"current_trial": 103, "trialdata": {"rt": -1000, "trial_type": "single-audio", "word": "elbow", "stimulus": "/static/audio/wordpool/ELBOW.wav", "conditions": [24, 1600, "a", 12000], "internal_node_id": "0.0-76.0", "trial": 2, "time_elapsed": 676184, "serialpos": 14, "key_press": -1, "wordID": 519, "type": "PRES_AUD", "trial_index": 103}, "uniqueid": "MTK2093:3QRYMNZ7FZO8H9AA86PCRIINBDVTN7", "dateTime": 1516730263434}, {"current_trial": 104, "trialdata": {"rt": -1000, "trial_type": "single-audio", "word": "basement", "stimulus": "/static/audio/wordpool/BASEMENT.wav", "conditions": [24, 1600, "a", 12000], "internal_node_id": "0.0-77.0", "trial": 2, "time_elapsed": 678760, "serialpos": 15, "key_press": -1, "wordID": 93, "type": "PRES_AUD", "trial_index": 104}, "uniqueid": "MTK2093:3QRYMNZ7FZO8H9AA86PCRIINBDVTN7", "dateTime": 1516730266010}, {"current_trial": 105, "trialdata": {"rt": -1000, "trial_type": "single-audio", "word": "handbag", "stimulus": "/static/audio/wordpool/HANDBAG.wav", "conditions": [24, 1600, "a", 12000], "internal_node_id": "0.0-78.0", "trial": 2, "time_elapsed": 681182, "serialpos": 16, "key_press": -1, "wordID": 683, "type": "PRES_AUD", "trial_index": 105}, "uniqueid": "MTK2093:3QRYMNZ7FZO8H9AA86PCRIINBDVTN7", "dateTime": 1516730268432}, {"current_trial": 106, "trialdata": {"rt": -1000, "trial_type": "single-audio", "word": "quarter", "stimulus": "/static/audio/wordpool/QUARTER.wav", "conditions": [24, 1600, "a", 12000], "internal_node_id": "0.0-79.0", "trial": 2, "time_elapsed": 683789, "serialpos": 17, "key_press": -1, "wordID": 1147, "type": "PRES_AUD", "trial_index": 106}, "uniqueid": "MTK2093:3QRYMNZ7FZO8H9AA86PCRIINBDVTN7", "dateTime": 1516730271040}, {"current_trial": 107, "trialdata": {"rt": -1000, "trial_type": "single-audio", "word": "slide", "stimulus": "/static/audio/wordpool/SLIDE.wav", "conditions": [24, 1600, "a", 12000], "internal_node_id": "0.0-80.0", "trial": 2, "time_elapsed": 686506, "serialpos": 18, "key_press": -1, "wordID": 1325, "type": "PRES_AUD", "trial_index": 107}, "uniqueid": "MTK2093:3QRYMNZ7FZO8H9AA86PCRIINBDVTN7", "dateTime": 1516730273756}, {"current_trial": 108, "trialdata": {"rt": -1000, "trial_type": "single-audio", "word": "belly", "stimulus": "/static/audio/wordpool/BELLY.wav", "conditions": [24, 1600, "a", 12000], "internal_node_id": "0.0-81.0", "trial": 2, "time_elapsed": 689114, "serialpos": 19, "key_press": -1, "wordID": 118, "type": "PRES_AUD", "trial_index": 108}, "uniqueid": "MTK2093:3QRYMNZ7FZO8H9AA86PCRIINBDVTN7", "dateTime": 1516730276364}, {"current_trial": 109, "trialdata": {"rt": -1000, "trial_type": "single-audio", "word": "camel", "stimulus": "/static/audio/wordpool/CAMEL.wav", "conditions": [24, 1600, "a", 12000], "internal_node_id": "0.0-82.0", "trial": 2, "time_elapsed": 691520, "serialpos": 20, "key_press": -1, "wordID": 222, "type": "PRES_AUD", "trial_index": 109}, "uniqueid": "MTK2093:3QRYMNZ7FZO8H9AA86PCRIINBDVTN7", "dateTime": 1516730278770}, {"current_trial": 110, "trialdata": {"rt": -1000, "trial_type": "single-audio", "word": "window", "stimulus": "/static/audio/wordpool/WINDOW.wav", "conditions": [24, 1600, "a", 12000], "internal_node_id": "0.0-83.0", "trial": 2, "time_elapsed": 693972, "serialpos": 21, "key_press": -1, "wordID": 1610, "type": "PRES_AUD", "trial_index": 110}, "uniqueid": "MTK2093:3QRYMNZ7FZO8H9AA86PCRIINBDVTN7", "dateTime": 1516730281223}, {"current_trial": 111, "trialdata": {"rt": -1000, "trial_type": "single-audio", "word": "plaster", "stimulus": "/static/audio/wordpool/PLASTER.wav", "conditions": [24, 1600, "a", 12000], "internal_node_id": "0.0-84.0", "trial": 2, "time_elapsed": 696518, "serialpos": 22, "key_press": -1, "wordID": 1084, "type": "PRES_AUD", "trial_index": 111}, "uniqueid": "MTK2093:3QRYMNZ7FZO8H9AA86PCRIINBDVTN7", "dateTime": 1516730283769}, {"current_trial": 112, "trialdata": {"rt": -1000, "trial_type": "single-audio", "word": "report", "stimulus": "/static/audio/wordpool/REPORT.wav", "conditions": [24, 1600, "a", 12000], "internal_node_id": "0.0-85.0", "trial": 2, "time_elapsed": 699278, "serialpos": 23, "key_press": -1, "wordID": 1183, "type": "PRES_AUD", "trial_index": 112}, "uniqueid": "MTK2093:3QRYMNZ7FZO8H9AA86PCRIINBDVTN7", "dateTime": 1516730286528}, {"current_trial": 113, "trialdata": {"rt": -1, "trial_type": "single-stim", "stimulus": "", "internal_node_id": "0.0-86.0-0.0", "time_elapsed": 700489, "key_press": -1, "type": "PRE_RECALL_DELAY", "trial_index": 113}, "uniqueid": "MTK2093:3QRYMNZ7FZO8H9AA86PCRIINBDVTN7", "dateTime": 1516730287739}, {"current_trial": 114, "trialdata": {"rt": -1000, "trial_type": "single-audio", "stimulus": "/static/audio/400Hz.wav", "internal_node_id": "0.0-87.0", "time_elapsed": 701001, "key_press": -1, "type": "PRE_RECALL_ALERT", "trial_index": 114}, "uniqueid": "MTK2093:3QRYMNZ7FZO8H9AA86PCRIINBDVTN7", "dateTime": 1516730288252}, {"current_trial": 115, "trialdata": {"rt": [2227, 4399, 5986, 7678, 11686, 13011, 17839, 22738], "recwords": ["cabbage", "apron", "tile", "report", "plaster", "door", "grape", "ulcer"], "key_times": [413, 516, 736, 1088, 1250, 1389, 1609, 1722, 2227, 2593, 2967, 3393, 3594, 3758, 3959, 4399, 4724, 4865, 4964, 5422, 5578, 5986, 6254, 6408, 6498, 6902, 7084, 7258, 7455, 7678, 10067, 10208, 10605, 10741, 10868, 11097, 11268, 11367, 11686, 12121, 12244, 12424, 12588, 12793, 13011, 16763, 16844, 17074, 17196, 17396, 17538, 17839, 20748, 20935, 21115, 21852, 22105, 22213, 22738], "trial_type": "free-recall", "conditions": [24, 1600, "a", 12000], "internal_node_id": "0.0-88.0-0.0", "key_presses": [16, 67, 65, 66, 66, 65, 71, 69, 13, 16, 65, 80, 82, 79, 78, 13, 16, 84, 73, 76, 69, 13, 16, 82, 69, 80, 79, 82, 84, 13, 16, 80, 76, 65, 83, 84, 69, 82, 13, 16, 68, 79, 79, 82, 13, 16, 71, 82, 65, 80, 69, 13, 16, 85, 76, 67, 69, 82, 13], "trial": 2, "time_elapsed": 761019, "type": "FREE_RECALL", "trial_index": 115}, "uniqueid": "MTK2093:3QRYMNZ7FZO8H9AA86PCRIINBDVTN7", "dateTime": 1516730348276}, {"current_trial": 116, "trialdata": {"rt": 1133, "trial_type": "text", "internal_node_id": "0.0-89.0", "time_elapsed": 764170, "key_press": 32, "type": "INSTRUCTIONS", "trial_index": 116}, "uniqueid": "MTK2093:3QRYMNZ7FZO8H9AA86PCRIINBDVTN7", "dateTime": 1516730351420}, {"current_trial": 117, "trialdata": {"rt": [3007, 7217, 9528, 15323, 18262, 19863], "trial_type": "math-distractor", "key_times": [2304, 2514, 3007, 6675, 6900, 7217, 9244, 9528, 14808, 14939, 15323, 17735, 17844, 18262, 19531, 19863, 23701, 23962], "responses": ["14", "20", "6", "17", "14", "9"], "num2": [1, 8, 2, 4, 3, 3, 5], "num3": [8, 6, 1, 7, 7, 3, 3], "conditions": [24, 800, "a", 24000], "internal_node_id": "0.0-90.0", "key_presses": [97, 100, 13, 98, 96, 13, 102, 13, 97, 103, 13, 97, 100, 13, 105, 13, 97, 103], "trial": 3, "time_elapsed": 790187, "type": "DISTRACTOR", "trial_index": 117, "num1": [5, 6, 3, 6, 4, 3, 9]}, "uniqueid": "MTK2093:3QRYMNZ7FZO8H9AA86PCRIINBDVTN7", "dateTime": 1516730377437}, {"current_trial": 118, "trialdata": {"rt": -1, "trial_type": "single-stim", "stimulus": "<p id=\"stim\">10</p>", "internal_node_id": "0.0-91.0-0.0", "time_elapsed": 793213, "key_press": -1, "trial_index": 118}, "uniqueid": "MTK2093:3QRYMNZ7FZO8H9AA86PCRIINBDVTN7", "dateTime": 1516730380463}, {"current_trial": 119, "trialdata": {"rt": -1, "trial_type": "single-stim", "stimulus": "<p id=\"stim\">9</p>", "internal_node_id": "0.0-91.0-1.0", "time_elapsed": 794221, "key_press": -1, "trial_index": 119}, "uniqueid": "MTK2093:3QRYMNZ7FZO8H9AA86PCRIINBDVTN7", "dateTime": 1516730381472}, {"current_trial": 120, "trialdata": {"rt": -1, "trial_type": "single-stim", "stimulus": "<p id=\"stim\">8</p>", "internal_node_id": "0.0-91.0-2.0", "time_elapsed": 795231, "key_press": -1, "trial_index": 120}, "uniqueid": "MTK2093:3QRYMNZ7FZO8H9AA86PCRIINBDVTN7", "dateTime": 1516730382481}, {"current_trial": 121, "trialdata": {"rt": -1, "trial_type": "single-stim", "stimulus": "<p id=\"stim\">7</p>", "internal_node_id": "0.0-91.0-3.0", "time_elapsed": 796239, "key_press": -1, "trial_index": 121}, "uniqueid": "MTK2093:3QRYMNZ7FZO8H9AA86PCRIINBDVTN7", "dateTime": 1516730383490}, {"current_trial": 122, "trialdata": {"rt": -1, "trial_type": "single-stim", "stimulus": "<p id=\"stim\">6</p>", "internal_node_id": "0.0-91.0-4.0", "time_elapsed": 797248, "key_press": -1, "trial_index": 122}, "uniqueid": "MTK2093:3QRYMNZ7FZO8H9AA86PCRIINBDVTN7", "dateTime": 1516730384499}, {"current_trial": 123, "trialdata": {"rt": -1, "trial_type": "single-stim", "stimulus": "<p id=\"stim\">5</p>", "internal_node_id": "0.0-91.0-5.0", "time_elapsed": 798257, "key_press": -1, "trial_index": 123}, "uniqueid": "MTK2093:3QRYMNZ7FZO8H9AA86PCRIINBDVTN7", "dateTime": 1516730385508}, {"current_trial": 124, "trialdata": {"rt": -1, "trial_type": "single-stim", "stimulus": "<p id=\"stim\">4</p>", "internal_node_id": "0.0-91.0-6.0", "time_elapsed": 799267, "key_press": -1, "trial_index": 124}, "uniqueid": "MTK2093:3QRYMNZ7FZO8H9AA86PCRIINBDVTN7", "dateTime": 1516730386517}, {"current_trial": 125, "trialdata": {"rt": -1, "trial_type": "single-stim", "stimulus": "<p id=\"stim\">3</p>", "internal_node_id": "0.0-91.0-7.0", "time_elapsed": 800275, "key_press": -1, "trial_index": 125}, "uniqueid": "MTK2093:3QRYMNZ7FZO8H9AA86PCRIINBDVTN7", "dateTime": 1516730387526}, {"current_trial": 126, "trialdata": {"rt": -1, "trial_type": "single-stim", "stimulus": "<p id=\"stim\">2</p>", "internal_node_id": "0.0-91.0-8.0", "time_elapsed": 801284, "key_press": -1, "trial_index": 126}, "uniqueid": "MTK2093:3QRYMNZ7FZO8H9AA86PCRIINBDVTN7", "dateTime": 1516730388535}, {"current_trial": 127, "trialdata": {"rt": -1, "trial_type": "single-stim", "stimulus": "<p id=\"stim\">1</p>", "internal_node_id": "0.0-91.0-9.0", "time_elapsed": 802294, "key_press": -1, "trial_index": 127}, "uniqueid": "MTK2093:3QRYMNZ7FZO8H9AA86PCRIINBDVTN7", "dateTime": 1516730389544}, {"current_trial": 128, "trialdata": {"rt": -1, "trial_type": "single-stim", "stimulus": "<p id=\"stim\">+</p>", "internal_node_id": "0.0-92.0-0.0", "time_elapsed": 803799, "key_press": -1, "type": "FIXATION", "trial_index": 128}, "uniqueid": "MTK2093:3QRYMNZ7FZO8H9AA86PCRIINBDVTN7", "dateTime": 1516730391049}, {"current_trial": 129, "trialdata": {"rt": -1000, "trial_type": "single-audio", "word": "tutu", "stimulus": "/static/audio/wordpool/TUTU.wav", "conditions": [24, 800, "a", 24000], "internal_node_id": "0.0-93.0", "trial": 3, "time_elapsed": 805584, "serialpos": 0, "key_press": -1, "wordID": 1523, "type": "PRES_AUD", "trial_index": 129}, "uniqueid": "MTK2093:3QRYMNZ7FZO8H9AA86PCRIINBDVTN7", "dateTime": 1516730392834}, {"current_trial": 130, "trialdata": {"rt": -1000, "trial_type": "single-audio", "word": "dashboard", "stimulus": "/static/audio/wordpool/DASHBOARD.wav", "conditions": [24, 800, "a", 24000], "internal_node_id": "0.0-94.0", "trial": 3, "time_elapsed": 807338, "serialpos": 1, "key_press": -1, "wordID": 440, "type": "PRES_AUD", "trial_index": 130}, "uniqueid": "MTK2093:3QRYMNZ7FZO8H9AA86PCRIINBDVTN7", "dateTime": 1516730394588}, {"current_trial": 131, "trialdata": {"rt": -1000, "trial_type": "single-audio", "word": "coffee", "stimulus": "/static/audio/wordpool/COFFEE.wav", "conditions": [24, 800, "a", 24000], "internal_node_id": "0.0-95.0", "trial": 3, "time_elapsed": 809294, "serialpos": 2, "key_press": -1, "wordID": 340, "type": "PRES_AUD", "trial_index": 131}, "uniqueid": "MTK2093:3QRYMNZ7FZO8H9AA86PCRIINBDVTN7", "dateTime": 1516730396544}, {"current_trial": 132, "trialdata": {"rt": -1000, "trial_type": "single-audio", "word": "taxi", "stimulus": "/static/audio/wordpool/TAXI.wav", "conditions": [24, 800, "a", 24000], "internal_node_id": "0.0-96.0", "trial": 3, "time_elapsed": 811110, "serialpos": 3, "key_press": -1, "wordID": 1437, "type": "PRES_AUD", "trial_index": 132}, "uniqueid": "MTK2093:3QRYMNZ7FZO8H9AA86PCRIINBDVTN7", "dateTime": 1516730398360}, {"current_trial": 133, "trialdata": {"rt": -1000, "trial_type": "single-audio", "word": "lizard", "stimulus": "/static/audio/wordpool/LIZARD.wav", "conditions": [24, 800, "a", 24000], "internal_node_id": "0.0-97.0", "trial": 3, "time_elapsed": 812973, "serialpos": 4, "key_press": -1, "wordID": 833, "type": "PRES_AUD", "trial_index": 133}, "uniqueid": "MTK2093:3QRYMNZ7FZO8H9AA86PCRIINBDVTN7", "dateTime": 1516730400223}, {"current_trial": 134, "trialdata": {"rt": -1000, "trial_type": "single-audio", "word": "creature", "stimulus": "/static/audio/wordpool/CREATURE.wav", "conditions": [24, 800, "a", 24000], "internal_node_id": "0.0-98.0", "trial": 3, "time_elapsed": 814711, "serialpos": 5, "key_press": -1, "wordID": 402, "type": "PRES_AUD", "trial_index": 134}, "uniqueid": "MTK2093:3QRYMNZ7FZO8H9AA86PCRIINBDVTN7", "dateTime": 1516730401962}, {"current_trial": 135, "trialdata": {"rt": -1000, "trial_type": "single-audio", "word": "woman", "stimulus": "/static/audio/wordpool/WOMAN.wav", "conditions": [24, 800, "a", 24000], "internal_node_id": "0.0-99.0", "trial": 3, "time_elapsed": 816652, "serialpos": 6, "key_press": -1, "wordID": 1619, "type": "PRES_AUD", "trial_index": 135}, "uniqueid": "MTK2093:3QRYMNZ7FZO8H9AA86PCRIINBDVTN7", "dateTime": 1516730403902}, {"current_trial": 136, "trialdata": {"rt": -1000, "trial_type": "single-audio", "word": "scotch", "stimulus": "/static/audio/wordpool/SCOTCH.wav", "conditions": [24, 800, "a", 24000], "internal_node_id": "0.0-100.0", "trial": 3, "time_elapsed": 818297, "serialpos": 7, "key_press": -1, "wordID": 1250, "type": "PRES_AUD", "trial_index": 136}, "uniqueid": "MTK2093:3QRYMNZ7FZO8H9AA86PCRIINBDVTN7", "dateTime": 1516730405548}, {"current_trial": 137, "trialdata": {"rt": -1000, "trial_type": "single-audio", "word": "lettuce", "stimulus": "/static/audio/wordpool/LETTUCE.wav", "conditions": [24, 800, "a", 24000], "internal_node_id": "0.0-101.0", "trial": 3, "time_elapsed": 820207, "serialpos": 8, "key_press": -1, "wordID": 813, "type": "PRES_AUD", "trial_index": 137}, "uniqueid": "MTK2093:3QRYMNZ7FZO8H9AA86PCRIINBDVTN7", "dateTime": 1516730407458}, {"current_trial": 138, "trialdata": {"rt": -1000, "trial_type": "single-audio", "word": "victim", "stimulus": "/static/audio/wordpool/VICTIM.wav", "conditions": [24, 800, "a", 24000], "internal_node_id": "0.0-102.0", "trial": 3, "time_elapsed": 822178, "serialpos": 9, "key_press": -1, "wordID": 1561, "type": "PRES_AUD", "trial_index": 138}, "uniqueid": "MTK2093:3QRYMNZ7FZO8H9AA86PCRIINBDVTN7", "dateTime": 1516730409428}, {"current_trial": 139, "trialdata": {"rt": -1000, "trial_type": "single-audio", "word": "waiter", "stimulus": "/static/audio/wordpool/WAITER.wav", "conditions": [24, 800, "a", 24000], "internal_node_id": "0.0-103.0", "trial": 3, "time_elapsed": 824165, "serialpos": 10, "key_press": -1, "wordID": 1579, "type": "PRES_AUD", "trial_index": 139}, "uniqueid": "MTK2093:3QRYMNZ7FZO8H9AA86PCRIINBDVTN7", "dateTime": 1516730411415}, {"current_trial": 140, "trialdata": {"rt": -1000, "trial_type": "single-audio", "word": "compass", "stimulus": "/static/audio/wordpool/COMPASS.wav", "conditions": [24, 800, "a", 24000], "internal_node_id": "0.0-104.0", "trial": 3, "time_elapsed": 826121, "serialpos": 11, "key_press": -1, "wordID": 357, "type": "PRES_AUD", "trial_index": 140}, "uniqueid": "MTK2093:3QRYMNZ7FZO8H9AA86PCRIINBDVTN7", "dateTime": 1516730413371}, {"current_trial": 141, "trialdata": {"rt": -1000, "trial_type": "single-audio", "word": "lace", "stimulus": "/static/audio/wordpool/LACE.wav", "conditions": [24, 800, "a", 24000], "internal_node_id": "0.0-105.0", "trial": 3, "time_elapsed": 827766, "serialpos": 12, "key_press": -1, "wordID": 791, "type": "PRES_AUD", "trial_index": 141}, "uniqueid": "MTK2093:3QRYMNZ7FZO8H9AA86PCRIINBDVTN7", "dateTime": 1516730415017}, {"current_trial": 142, "trialdata": {"rt": -1000, "trial_type": "single-audio", "word": "orchid", "stimulus": "/static/audio/wordpool/ORCHID.wav", "conditions": [24, 800, "a", 24000], "internal_node_id": "0.0-106.0", "trial": 3, "time_elapsed": 829722, "serialpos": 13, "key_press": -1, "wordID": 981, "type": "PRES_AUD", "trial_index": 142}, "uniqueid": "MTK2093:3QRYMNZ7FZO8H9AA86PCRIINBDVTN7", "dateTime": 1516730416972}, {"current_trial": 143, "trialdata": {"rt": -1000, "trial_type": "single-audio", "word": "shrub", "stimulus": "/static/audio/wordpool/SHRUB.wav", "conditions": [24, 800, "a", 24000], "internal_node_id": "0.0-107.0", "trial": 3, "time_elapsed": 831368, "serialpos": 14, "key_press": -1, "wordID": 1298, "type": "PRES_AUD", "trial_index": 143}, "uniqueid": "MTK2093:3QRYMNZ7FZO8H9AA86PCRIINBDVTN7", "dateTime": 1516730418618}, {"current_trial": 144, "trialdata": {"rt": -1000, "trial_type": "single-audio", "word": "cod", "stimulus": "/static/audio/wordpool/COD.wav", "conditions": [24, 800, "a", 24000], "internal_node_id": "0.0-108.0", "trial": 3, "time_elapsed": 833137, "serialpos": 15, "key_press": -1, "wordID": 339, "type": "PRES_AUD", "trial_index": 144}, "uniqueid": "MTK2093:3QRYMNZ7FZO8H9AA86PCRIINBDVTN7", "dateTime": 1516730420387}, {"current_trial": 145, "trialdata": {"rt": -1000, "trial_type": "single-audio", "word": "radish", "stimulus": "/static/audio/wordpool/RADISH.wav", "conditions": [24, 800, "a", 24000], "internal_node_id": "0.0-109.0", "trial": 3, "time_elapsed": 834922, "serialpos": 16, "key_press": -1, "wordID": 1157, "type": "PRES_AUD", "trial_index": 145}, "uniqueid": "MTK2093:3QRYMNZ7FZO8H9AA86PCRIINBDVTN7", "dateTime": 1516730422173}, {"current_trial": 146, "trialdata": {"rt": -1000, "trial_type": "single-audio", "word": "queen", "stimulus": "/static/audio/wordpool/QUEEN.wav", "conditions": [24, 800, "a", 24000], "internal_node_id": "0.0-110.0", "trial": 3, "time_elapsed": 836863, "serialpos": 17, "key_press": -1, "wordID": 1148, "type": "PRES_AUD", "trial_index": 146}, "uniqueid": "MTK2093:3QRYMNZ7FZO8H9AA86PCRIINBDVTN7", "dateTime": 1516730424113}, {"current_trial": 147, "trialdata": {"rt": -1000, "trial_type": "single-audio", "word": "mildew", "stimulus": "/static/audio/wordpool/MILDEW.wav", "conditions": [24, 800, "a", 24000], "internal_node_id": "0.0-111.0", "trial": 3, "time_elapsed": 838756, "serialpos": 18, "key_press": -1, "wordID": 892, "type": "PRES_AUD", "trial_index": 147}, "uniqueid": "MTK2093:3QRYMNZ7FZO8H9AA86PCRIINBDVTN7", "dateTime": 1516730426007}, {"current_trial": 148, "trialdata": {"rt": -1000, "trial_type": "single-audio", "word": "dime", "stimulus": "/static/audio/wordpool/DIME.wav", "conditions": [24, 800, "a", 24000], "internal_node_id": "0.0-112.0", "trial": 3, "time_elapsed": 840402, "serialpos": 19, "key_press": -1, "wordID": 465, "type": "PRES_AUD", "trial_index": 148}, "uniqueid": "MTK2093:3QRYMNZ7FZO8H9AA86PCRIINBDVTN7", "dateTime": 1516730427652}, {"current_trial": 149, "trialdata": {"rt": -1000, "trial_type": "single-audio", "word": "human", "stimulus": "/static/audio/wordpool/HUMAN.wav", "conditions": [24, 800, "a", 24000], "internal_node_id": "0.0-113.0", "trial": 3, "time_elapsed": 842063, "serialpos": 20, "key_press": -1, "wordID": 725, "type": "PRES_AUD", "trial_index": 149}, "uniqueid": "MTK2093:3QRYMNZ7FZO8H9AA86PCRIINBDVTN7", "dateTime": 1516730429313}, {"current_trial": 150, "trialdata": {"rt": -1000, "trial_type": "single-audio", "word": "robin", "stimulus": "/static/audio/wordpool/ROBIN.wav", "conditions": [24, 800, "a", 24000], "internal_node_id": "0.0-114.0", "trial": 3, "time_elapsed": 843832, "serialpos": 21, "key_press": -1, "wordID": 1198, "type": "PRES_AUD", "trial_index": 150}, "uniqueid": "MTK2093:3QRYMNZ7FZO8H9AA86PCRIINBDVTN7", "dateTime": 1516730431083}, {"current_trial": 151, "trialdata": {"rt": -1000, "trial_type": "single-audio", "word": "crown", "stimulus": "/static/audio/wordpool/CROWN.wav", "conditions": [24, 800, "a", 24000], "internal_node_id": "0.0-115.0", "trial": 3, "time_elapsed": 845757, "serialpos": 22, "key_press": -1, "wordID": 414, "type": "PRES_AUD", "trial_index": 151}, "uniqueid": "MTK2093:3QRYMNZ7FZO8H9AA86PCRIINBDVTN7", "dateTime": 1516730433007}, {"current_trial": 152, "trialdata": {"rt": -1000, "trial_type": "single-audio", "word": "plaid", "stimulus": "/static/audio/wordpool/PLAID.wav", "conditions": [24, 800, "a", 24000], "internal_node_id": "0.0-116.0", "trial": 3, "time_elapsed": 847371, "serialpos": 23, "key_press": -1, "wordID": 1079, "type": "PRES_AUD", "trial_index": 152}, "uniqueid": "MTK2093:3QRYMNZ7FZO8H9AA86PCRIINBDVTN7", "dateTime": 1516730434622}, {"current_trial": 153, "trialdata": {"rt": -1, "trial_type": "single-stim", "stimulus": "", "internal_node_id": "0.0-117.0-0.0", "time_elapsed": 848634, "key_press": -1, "type": "PRE_RECALL_DELAY", "trial_index": 153}, "uniqueid": "MTK2093:3QRYMNZ7FZO8H9AA86PCRIINBDVTN7", "dateTime": 1516730435884}, {"current_trial": 154, "trialdata": {"rt": -1000, "trial_type": "single-audio", "stimulus": "/static/audio/400Hz.wav", "internal_node_id": "0.0-118.0", "time_elapsed": 849141, "key_press": -1, "type": "PRE_RECALL_ALERT", "trial_index": 154}, "uniqueid": "MTK2093:3QRYMNZ7FZO8H9AA86PCRIINBDVTN7", "dateTime": 1516730436392}, {"current_trial": 155, "trialdata": {"rt": [2316, 6202, 9431, 12008, 32514, 34986, 38663, 50110], "recwords": ["crown", "queen", "plaid", "radish", "taxi", "coffee", "lizard", "creature"], "key_times": [1366, 1442, 1675, 1856, 1959, 2098, 2316, 4106, 4570, 4875, 5246, 5414, 5606, 5746, 6202, 6526, 6720, 7274, 7406, 7626, 7875, 7970, 8282, 8548, 9431, 10662, 10775, 10993, 11153, 11289, 11447, 12008, 31060, 31196, 31573, 31973, 32514, 32976, 33131, 33323, 33557, 33667, 34057, 34204, 34367, 34986, 36351, 36464, 37143, 37575, 37704, 37947, 38077, 38300, 38663, 39051, 39373, 39535, 39643, 40044, 40369, 40821, 40969, 41215, 41587, 41750, 41884, 41980, 42505, 42696, 42836, 43011, 44010, 44150, 45435, 45645, 45797, 46467, 46675, 46849, 47469, 47567, 47736, 49064, 49319, 49508, 49616, 50110], "trial_type": "free-recall", "conditions": [24, 800, "a", 24000], "internal_node_id": "0.0-119.0-0.0", "key_presses": [16, 67, 82, 79, 87, 78, 32, 71, 8, 81, 85, 69, 69, 78, 32, 76, 65, 8, 8, 80, 76, 65, 73, 68, 32, 82, 65, 68, 73, 83, 72, 32, 84, 65, 88, 73, 13, 67, 79, 70, 70, 70, 8, 69, 69, 13, 76, 73, 88, 8, 90, 65, 82, 68, 13, 67, 82, 69, 65, 67, 72, 8, 8, 84, 67, 72, 69, 82, 8, 8, 8, 8, 69, 82, 8, 8, 8, 8, 8, 8, 82, 69, 65, 84, 85, 82, 69, 13], "trial": 3, "time_elapsed": 909153, "type": "FREE_RECALL", "trial_index": 155}, "uniqueid": "MTK2093:3QRYMNZ7FZO8H9AA86PCRIINBDVTN7", "dateTime": 1516730496409}, {"current_trial": 156, "trialdata": {"rt": 1987, "trial_type": "text", "internal_node_id": "0.0-120.0", "time_elapsed": 913158, "key_press": 32, "type": "INSTRUCTIONS", "trial_index": 156}, "uniqueid": "MTK2093:3QRYMNZ7FZO8H9AA86PCRIINBDVTN7", "dateTime": 1516730500408}, {"current_trial": 157, "trialdata": {"rt": [2666, 5244, 9080, 11623, 15030, 17065, 18852, 21396], "trial_type": "math-distractor", "key_times": [2225, 2350, 2666, 4620, 4690, 5244, 8621, 8798, 9080, 11149, 11328, 11623, 14607, 14715, 15030, 16668, 16729, 17065, 18595, 18852, 20966, 21140, 21396], "responses": ["10", "19", "21", "14", "18", "14", "9", "12"], "num2": [1, 1, 9, 8, 6, 5, 2, 5, 7], "num3": [4, 9, 5, 2, 9, 4, 6, 4, 5], "conditions": [12, 1600, "a", 24000], "internal_node_id": "0.0-121.0", "key_presses": [97, 96, 13, 97, 105, 13, 98, 97, 13, 97, 100, 13, 97, 104, 13, 97, 100, 13, 105, 13, 97, 98, 13], "trial": 4, "time_elapsed": 939174, "type": "DISTRACTOR", "trial_index": 157, "num1": [5, 9, 7, 4, 3, 5, 1, 3, 9]}, "uniqueid": "MTK2093:3QRYMNZ7FZO8H9AA86PCRIINBDVTN7", "dateTime": 1516730526425}, {"current_trial": 158, "trialdata": {"rt": -1, "trial_type": "single-stim", "stimulus": "<p id=\"stim\">10</p>", "internal_node_id": "0.0-122.0-0.0", "time_elapsed": 942185, "key_press": -1, "trial_index": 158}, "uniqueid": "MTK2093:3QRYMNZ7FZO8H9AA86PCRIINBDVTN7", "dateTime": 1516730529435}, {"current_trial": 159, "trialdata": {"rt": -1, "trial_type": "single-stim", "stimulus": "<p id=\"stim\">9</p>", "internal_node_id": "0.0-122.0-1.0", "time_elapsed": 943194, "key_press": -1, "trial_index": 159}, "uniqueid": "MTK2093:3QRYMNZ7FZO8H9AA86PCRIINBDVTN7", "dateTime": 1516730530444}, {"current_trial": 160, "trialdata": {"rt": -1, "trial_type": "single-stim", "stimulus": "<p id=\"stim\">8</p>", "internal_node_id": "0.0-122.0-2.0", "time_elapsed": 944203, "key_press": -1, "trial_index": 160}, "uniqueid": "MTK2093:3QRYMNZ7FZO8H9AA86PCRIINBDVTN7", "dateTime": 1516730531453}, {"current_trial": 161, "trialdata": {"rt": -1, "trial_type": "single-stim", "stimulus": "<p id=\"stim\">7</p>", "internal_node_id": "0.0-122.0-3.0", "time_elapsed": 945212, "key_press": -1, "trial_index": 161}, "uniqueid": "MTK2093:3QRYMNZ7FZO8H9AA86PCRIINBDVTN7", "dateTime": 1516730532462}, {"current_trial": 162, "trialdata": {"rt": -1, "trial_type": "single-stim", "stimulus": "<p id=\"stim\">6</p>", "internal_node_id": "0.0-122.0-4.0", "time_elapsed": 946221, "key_press": -1, "trial_index": 162}, "uniqueid": "MTK2093:3QRYMNZ7FZO8H9AA86PCRIINBDVTN7", "dateTime": 1516730533471}, {"current_trial": 163, "trialdata": {"rt": -1, "trial_type": "single-stim", "stimulus": "<p id=\"stim\">5</p>", "internal_node_id": "0.0-122.0-5.0", "time_elapsed": 947230, "key_press": -1, "trial_index": 163}, "uniqueid": "MTK2093:3QRYMNZ7FZO8H9AA86PCRIINBDVTN7", "dateTime": 1516730534480}, {"current_trial": 164, "trialdata": {"rt": -1, "trial_type": "single-stim", "stimulus": "<p id=\"stim\">4</p>", "internal_node_id": "0.0-122.0-6.0", "time_elapsed": 948239, "key_press": -1, "trial_index": 164}, "uniqueid": "MTK2093:3QRYMNZ7FZO8H9AA86PCRIINBDVTN7", "dateTime": 1516730535489}, {"current_trial": 165, "trialdata": {"rt": -1, "trial_type": "single-stim", "stimulus": "<p id=\"stim\">3</p>", "internal_node_id": "0.0-122.0-7.0", "time_elapsed": 949248, "key_press": -1, "trial_index": 165}, "uniqueid": "MTK2093:3QRYMNZ7FZO8H9AA86PCRIINBDVTN7", "dateTime": 1516730536498}, {"current_trial": 166, "trialdata": {"rt": -1, "trial_type": "single-stim", "stimulus": "<p id=\"stim\">2</p>", "internal_node_id": "0.0-122.0-8.0", "time_elapsed": 950257, "key_press": -1, "trial_index": 166}, "uniqueid": "MTK2093:3QRYMNZ7FZO8H9AA86PCRIINBDVTN7", "dateTime": 1516730537508}, {"current_trial": 167, "trialdata": {"rt": -1, "trial_type": "single-stim", "stimulus": "<p id=\"stim\">1</p>", "internal_node_id": "0.0-122.0-9.0", "time_elapsed": 951266, "key_press": -1, "trial_index": 167}, "uniqueid": "MTK2093:3QRYMNZ7FZO8H9AA86PCRIINBDVTN7", "dateTime": 1516730538516}, {"current_trial": 168, "trialdata": {"rt": -1, "trial_type": "single-stim", "stimulus": "<p id=\"stim\">+</p>", "internal_node_id": "0.0-123.0-0.0", "time_elapsed": 952772, "key_press": -1, "type": "FIXATION", "trial_index": 168}, "uniqueid": "MTK2093:3QRYMNZ7FZO8H9AA86PCRIINBDVTN7", "dateTime": 1516730540022}, {"current_trial": 169, "trialdata": {"rt": -1000, "trial_type": "single-audio", "word": "badge", "stimulus": "/static/audio/wordpool/BADGE.wav", "conditions": [12, 1600, "a", 24000], "internal_node_id": "0.0-124.0", "trial": 4, "time_elapsed": 955522, "serialpos": 0, "key_press": -1, "wordID": 67, "type": "PRES_AUD", "trial_index": 169}, "uniqueid": "MTK2093:3QRYMNZ7FZO8H9AA86PCRIINBDVTN7", "dateTime": 1516730542773}, {"current_trial": 170, "trialdata": {"rt": -1000, "trial_type": "single-audio", "word": "diner", "stimulus": "/static/audio/wordpool/DINER.wav", "conditions": [12, 1600, "a", 24000], "internal_node_id": "0.0-125.0", "trial": 4, "time_elapsed": 958158, "serialpos": 1, "key_press": -1, "wordID": 466, "type": "PRES_AUD", "trial_index": 170}, "uniqueid": "MTK2093:3QRYMNZ7FZO8H9AA86PCRIINBDVTN7", "dateTime": 1516730545408}, {"current_trial": 171, "trialdata": {"rt": -1000, "trial_type": "single-audio", "word": "ointment", "stimulus": "/static/audio/wordpool/OINTMENT.wav", "conditions": [12, 1600, "a", 24000], "internal_node_id": "0.0-126.0", "trial": 4, "time_elapsed": 960890, "serialpos": 2, "key_press": -1, "wordID": 973, "type": "PRES_AUD", "trial_index": 171}, "uniqueid": "MTK2093:3QRYMNZ7FZO8H9AA86PCRIINBDVTN7", "dateTime": 1516730548142}, {"current_trial": 172, "trialdata": {"rt": -1000, "trial_type": "single-audio", "word": "cookbook", "stimulus": "/static/audio/wordpool/COOKBOOK.wav", "conditions": [12, 1600, "a", 24000], "internal_node_id": "0.0-127.0", "trial": 4, "time_elapsed": 963653, "serialpos": 3, "key_press": -1, "wordID": 372, "type": "PRES_AUD", "trial_index": 172}, "uniqueid": "MTK2093:3QRYMNZ7FZO8H9AA86PCRIINBDVTN7", "dateTime": 1516730550903}, {"current_trial": 173, "trialdata": {"rt": -1000, "trial_type": "single-audio", "word": "novel", "stimulus": "/static/audio/wordpool/NOVEL.wav", "conditions": [12, 1600, "a", 24000], "internal_node_id": "0.0-128.0", "trial": 4, "time_elapsed": 966261, "serialpos": 4, "key_press": -1, "wordID": 959, "type": "PRES_AUD", "trial_index": 173}, "uniqueid": "MTK2093:3QRYMNZ7FZO8H9AA86PCRIINBDVTN7", "dateTime": 1516730553511}, {"current_trial": 174, "trialdata": {"rt": -1000, "trial_type": "single-audio", "word": "slug", "stimulus": "/static/audio/wordpool/SLUG.wav", "conditions": [12, 1600, "a", 24000], "internal_node_id": "0.0-129.0", "trial": 4, "time_elapsed": 968807, "serialpos": 5, "key_press": -1, "wordID": 1328, "type": "PRES_AUD", "trial_index": 174}, "uniqueid": "MTK2093:3QRYMNZ7FZO8H9AA86PCRIINBDVTN7", "dateTime": 1516730556058}, {"current_trial": 175, "trialdata": {"rt": -1000, "trial_type": "single-audio", "word": "statue", "stimulus": "/static/audio/wordpool/STATUE.wav", "conditions": [12, 1600, "a", 24000], "internal_node_id": "0.0-130.0", "trial": 4, "time_elapsed": 971523, "serialpos": 6, "key_press": -1, "wordID": 1373, "type": "PRES_AUD", "trial_index": 175}, "uniqueid": "MTK2093:3QRYMNZ7FZO8H9AA86PCRIINBDVTN7", "dateTime": 1516730558773}, {"current_trial": 176, "trialdata": {"rt": -1000, "trial_type": "single-audio", "word": "world", "stimulus": "/static/audio/wordpool/WORLD.wav", "conditions": [12, 1600, "a", 24000], "internal_node_id": "0.0-131.0", "trial": 4, "time_elapsed": 973975, "serialpos": 7, "key_press": -1, "wordID": 1621, "type": "PRES_AUD", "trial_index": 176}, "uniqueid": "MTK2093:3QRYMNZ7FZO8H9AA86PCRIINBDVTN7", "dateTime": 1516730561226}, {"current_trial": 177, "trialdata": {"rt": -1000, "trial_type": "single-audio", "word": "sticker", "stimulus": "/static/audio/wordpool/STICKER.wav", "conditions": [12, 1600, "a", 24000], "internal_node_id": "0.0-132.0", "trial": 4, "time_elapsed": 976475, "serialpos": 8, "key_press": -1, "wordID": 1381, "type": "PRES_AUD", "trial_index": 177}, "uniqueid": "MTK2093:3QRYMNZ7FZO8H9AA86PCRIINBDVTN7", "dateTime": 1516730563725}, {"current_trial": 178, "trialdata": {"rt": -1000, "trial_type": "single-audio", "word": "rug", "stimulus": "/static/audio/wordpool/RUG.wav", "conditions": [12, 1600, "a", 24000], "internal_node_id": "0.0-133.0", "trial": 4, "time_elapsed": 978958, "serialpos": 9, "key_press": -1, "wordID": 1214, "type": "PRES_AUD", "trial_index": 178}, "uniqueid": "MTK2093:3QRYMNZ7FZO8H9AA86PCRIINBDVTN7", "dateTime": 1516730566208}, {"current_trial": 179, "trialdata": {"rt": -1000, "trial_type": "single-audio", "word": "pliers", "stimulus": "/static/audio/wordpool/PLIERS.wav", "conditions": [12, 1600, "a", 24000], "internal_node_id": "0.0-134.0", "trial": 4, "time_elapsed": 981395, "serialpos": 10, "key_press": -1, "wordID": 1088, "type": "PRES_AUD", "trial_index": 179}, "uniqueid": "MTK2093:3QRYMNZ7FZO8H9AA86PCRIINBDVTN7", "dateTime": 1516730568645}, {"current_trial": 180, "trialdata": {"rt": -1000, "trial_type": "single-audio", "word": "scissors", "stimulus": "/static/audio/wordpool/SCISSORS.wav", "conditions": [12, 1600, "a", 24000], "internal_node_id": "0.0-135.0", "trial": 4, "time_elapsed": 984080, "serialpos": 11, "key_press": -1, "wordID": 1249, "type": "PRES_AUD", "trial_index": 180}, "uniqueid": "MTK2093:3QRYMNZ7FZO8H9AA86PCRIINBDVTN7", "dateTime": 1516730571331}, {"current_trial": 181, "trialdata": {"rt": -1, "trial_type": "single-stim", "stimulus": "", "internal_node_id": "0.0-136.0-0.0", "time_elapsed": 985431, "key_press": -1, "type": "PRE_RECALL_DELAY", "trial_index": 181}, "uniqueid": "MTK2093:3QRYMNZ7FZO8H9AA86PCRIINBDVTN7", "dateTime": 1516730572681}, {"current_trial": 182, "trialdata": {"rt": -1000, "trial_type": "single-audio", "stimulus": "/static/audio/400Hz.wav", "internal_node_id": "0.0-137.0", "time_elapsed": 985944, "key_press": -1, "type": "PRE_RECALL_ALERT", "trial_index": 182}, "uniqueid": "MTK2093:3QRYMNZ7FZO8H9AA86PCRIINBDVTN7", "dateTime": 1516730573194}, {"current_trial": 183, "trialdata": {"rt": [2828, 7027, 9854, 13169, 22122, 26558, 50174], "recwords": ["pliers", "scissors", "badge", "diner", "cookbook", "world", "ointment"], "key_times": [1165, 1412, 1543, 1858, 1982, 2200, 2828, 3227, 3507, 3706, 4453, 5306, 5899, 6076, 6233, 6400, 6539, 7027, 8730, 8862, 9159, 9382, 9467, 9854, 10093, 10253, 10471, 10648, 10719, 10812, 11369, 11515, 11674, 11841, 11859, 11962, 12334, 12478, 12665, 12763, 12839, 13169, 20451, 20611, 20768, 20857, 21295, 21441, 21588, 21687, 22122, 24910, 25042, 25204, 25326, 25732, 26023, 26134, 26558, 48120, 48417, 48754, 49113, 49396, 49512, 49653, 49788, 50174], "trial_type": "free-recall", "conditions": [12, 1600, "a", 24000], "internal_node_id": "0.0-138.0-0.0", "key_presses": [80, 76, 73, 69, 82, 83, 13, 83, 67, 72, 8, 73, 83, 83, 79, 82, 83, 13, 66, 65, 68, 71, 69, 13, 68, 73, 78, 78, 69, 82, 8, 8, 8, 8, 69, 82, 8, 8, 78, 69, 82, 13, 67, 79, 79, 75, 66, 79, 79, 75, 13, 87, 79, 82, 75, 8, 76, 68, 13, 79, 73, 78, 84, 77, 69, 78, 84, 13], "trial": 4, "time_elapsed": 1045963, "type": "FREE_RECALL", "trial_index": 183}, "uniqueid": "MTK2093:3QRYMNZ7FZO8H9AA86PCRIINBDVTN7", "dateTime": 1516730633219}, {"current_trial": 184, "trialdata": {"rt": 992, "trial_type": "text", "internal_node_id": "0.0-139.0", "time_elapsed": 1048973, "key_press": 32, "type": "INSTRUCTIONS", "trial_index": 184}, "uniqueid": "MTK2093:3QRYMNZ7FZO8H9AA86PCRIINBDVTN7", "dateTime": 1516730636223}, {"current_trial": 185, "trialdata": {"rt": [2921, 8899, 13038, 17137, 20853, 23791], "trial_type": "math-distractor", "key_times": [2581, 2693, 2921, 7451, 8074, 8469, 8605, 8899, 12689, 12783, 13038, 16743, 16869, 17137, 20331, 20572, 20853, 23382, 23527, 23791], "responses": ["15", "24", "21", "15", "23", "11"], "num2": [6, 9, 3, 4, 7, 1, 4], "num3": [6, 9, 9, 9, 7, 2, 4], "conditions": [24, 1600, "a", 24000], "internal_node_id": "0.0-140.0", "key_presses": [97, 101, 13, 100, 8, 98, 100, 13, 98, 97, 13, 97, 101, 13, 98, 99, 13, 97, 97, 13], "trial": 5, "time_elapsed": 1074990, "type": "DISTRACTOR", "trial_index": 185, "num1": [3, 6, 9, 2, 9, 8, 3]}, "uniqueid": "MTK2093:3QRYMNZ7FZO8H9AA86PCRIINBDVTN7", "dateTime": 1516730662241}, {"current_trial": 186, "trialdata": {"rt": -1, "trial_type": "single-stim", "stimulus": "<p id=\"stim\">10</p>", "internal_node_id": "0.0-141.0-0.0", "time_elapsed": 1078001, "key_press": -1, "trial_index": 186}, "uniqueid": "MTK2093:3QRYMNZ7FZO8H9AA86PCRIINBDVTN7", "dateTime": 1516730665252}, {"current_trial": 187, "trialdata": {"rt": -1, "trial_type": "single-stim", "stimulus": "<p id=\"stim\">9</p>", "internal_node_id": "0.0-141.0-1.0", "time_elapsed": 1079011, "key_press": -1, "trial_index": 187}, "uniqueid": "MTK2093:3QRYMNZ7FZO8H9AA86PCRIINBDVTN7", "dateTime": 1516730666261}, {"current_trial": 188, "trialdata": {"rt": -1, "trial_type": "single-stim", "stimulus": "<p id=\"stim\">8</p>", "internal_node_id": "0.0-141.0-2.0", "time_elapsed": 1080019, "key_press": -1, "trial_index": 188}, "uniqueid": "MTK2093:3QRYMNZ7FZO8H9AA86PCRIINBDVTN7", "dateTime": 1516730667270}, {"current_trial": 189, "trialdata": {"rt": -1, "trial_type": "single-stim", "stimulus": "<p id=\"stim\">7</p>", "internal_node_id": "0.0-141.0-3.0", "time_elapsed": 1081028, "key_press": -1, "trial_index": 189}, "uniqueid": "MTK2093:3QRYMNZ7FZO8H9AA86PCRIINBDVTN7", "dateTime": 1516730668278}, {"current_trial": 190, "trialdata": {"rt": -1, "trial_type": "single-stim", "stimulus": "<p id=\"stim\">6</p>", "internal_node_id": "0.0-141.0-4.0", "time_elapsed": 1082037, "key_press": -1, "trial_index": 190}, "uniqueid": "MTK2093:3QRYMNZ7FZO8H9AA86PCRIINBDVTN7", "dateTime": 1516730669287}, {"current_trial": 191, "trialdata": {"rt": -1, "trial_type": "single-stim", "stimulus": "<p id=\"stim\">5</p>", "internal_node_id": "0.0-141.0-5.0", "time_elapsed": 1083046, "key_press": -1, "trial_index": 191}, "uniqueid": "MTK2093:3QRYMNZ7FZO8H9AA86PCRIINBDVTN7", "dateTime": 1516730670297}, {"current_trial": 192, "trialdata": {"rt": -1, "trial_type": "single-stim", "stimulus": "<p id=\"stim\">4</p>", "internal_node_id": "0.0-141.0-6.0", "time_elapsed": 1084055, "key_press": -1, "trial_index": 192}, "uniqueid": "MTK2093:3QRYMNZ7FZO8H9AA86PCRIINBDVTN7", "dateTime": 1516730671306}, {"current_trial": 193, "trialdata": {"rt": -1, "trial_type": "single-stim", "stimulus": "<p id=\"stim\">3</p>", "internal_node_id": "0.0-141.0-7.0", "time_elapsed": 1085064, "key_press": -1, "trial_index": 193}, "uniqueid": "MTK2093:3QRYMNZ7FZO8H9AA86PCRIINBDVTN7", "dateTime": 1516730672315}, {"current_trial": 194, "trialdata": {"rt": -1, "trial_type": "single-stim", "stimulus": "<p id=\"stim\">2</p>", "internal_node_id": "0.0-141.0-8.0", "time_elapsed": 1086073, "key_press": -1, "trial_index": 194}, "uniqueid": "MTK2093:3QRYMNZ7FZO8H9AA86PCRIINBDVTN7", "dateTime": 1516730673323}, {"current_trial": 195, "trialdata": {"rt": -1, "trial_type": "single-stim", "stimulus": "<p id=\"stim\">1</p>", "internal_node_id": "0.0-141.0-9.0", "time_elapsed": 1087082, "key_press": -1, "trial_index": 195}, "uniqueid": "MTK2093:3QRYMNZ7FZO8H9AA86PCRIINBDVTN7", "dateTime": 1516730674332}, {"current_trial": 196, "trialdata": {"rt": -1, "trial_type": "single-stim", "stimulus": "<p id=\"stim\">+</p>", "internal_node_id": "0.0-142.0-0.0", "time_elapsed": 1088588, "key_press": -1, "type": "FIXATION", "trial_index": 196}, "uniqueid": "MTK2093:3QRYMNZ7FZO8H9AA86PCRIINBDVTN7", "dateTime": 1516730675838}, {"current_trial": 197, "trialdata": {"rt": -1000, "trial_type": "single-audio", "word": "waitress", "stimulus": "/static/audio/wordpool/WAITRESS.wav", "conditions": [24, 1600, "a", 24000], "internal_node_id": "0.0-143.0", "trial": 5, "time_elapsed": 1091164, "serialpos": 0, "key_press": -1, "wordID": 1580, "type": "PRES_AUD", "trial_index": 197}, "uniqueid": "MTK2093:3QRYMNZ7FZO8H9AA86PCRIINBDVTN7", "dateTime": 1516730678415}, {"current_trial": 198, "trialdata": {"rt": -1000, "trial_type": "single-audio", "word": "turkey", "stimulus": "/static/audio/wordpool/TURKEY.wav", "conditions": [24, 1600, "a", 24000], "internal_node_id": "0.0-144.0", "trial": 5, "time_elapsed": 1093585, "serialpos": 1, "key_press": -1, "wordID": 1519, "type": "PRES_AUD", "trial_index": 198}, "uniqueid": "MTK2093:3QRYMNZ7FZO8H9AA86PCRIINBDVTN7", "dateTime": 1516730680836}, {"current_trial": 199, "trialdata": {"rt": -1000, "trial_type": "single-audio", "word": "critic", "stimulus": "/static/audio/wordpool/CRITIC.wav", "conditions": [24, 1600, "a", 24000], "internal_node_id": "0.0-145.0", "trial": 5, "time_elapsed": 1096079, "serialpos": 2, "key_press": -1, "wordID": 409, "type": "PRES_AUD", "trial_index": 199}, "uniqueid": "MTK2093:3QRYMNZ7FZO8H9AA86PCRIINBDVTN7", "dateTime": 1516730683329}, {"current_trial": 200, "trialdata": {"rt": -1000, "trial_type": "single-audio", "word": "canyon", "stimulus": "/static/audio/wordpool/CANYON.wav", "conditions": [24, 1600, "a", 24000], "internal_node_id": "0.0-146.0", "trial": 5, "time_elapsed": 1098755, "serialpos": 3, "key_press": -1, "wordID": 234, "type": "PRES_AUD", "trial_index": 200}, "uniqueid": "MTK2093:3QRYMNZ7FZO8H9AA86PCRIINBDVTN7", "dateTime": 1516730686005}, {"current_trial": 201, "trialdata": {"rt": -1000, "trial_type": "single-audio", "word": "partner", "stimulus": "/static/audio/wordpool/PARTNER.wav", "conditions": [24, 1600, "a", 24000], "internal_node_id": "0.0-147.0", "trial": 5, "time_elapsed": 1101518, "serialpos": 4, "key_press": -1, "wordID": 1016, "type": "PRES_AUD", "trial_index": 201}, "uniqueid": "MTK2093:3QRYMNZ7FZO8H9AA86PCRIINBDVTN7", "dateTime": 1516730688769}, {"current_trial": 202, "trialdata": {"rt": -1000, "trial_type": "single-audio", "word": "sibling", "stimulus": "/static/audio/wordpool/SIBLING.wav", "conditions": [24, 1600, "a", 24000], "internal_node_id": "0.0-148.0", "trial": 5, "time_elapsed": 1103939, "serialpos": 5, "key_press": -1, "wordID": 1300, "type": "PRES_AUD", "trial_index": 202}, "uniqueid": "MTK2093:3QRYMNZ7FZO8H9AA86PCRIINBDVTN7", "dateTime": 1516730691190}, {"current_trial": 203, "trialdata": {"rt": -1000, "trial_type": "single-audio", "word": "brother", "stimulus": "/static/audio/wordpool/BROTHER.wav", "conditions": [24, 1600, "a", 24000], "internal_node_id": "0.0-149.0", "trial": 5, "time_elapsed": 1106501, "serialpos": 6, "key_press": -1, "wordID": 178, "type": "PRES_AUD", "trial_index": 203}, "uniqueid": "MTK2093:3QRYMNZ7FZO8H9AA86PCRIINBDVTN7", "dateTime": 1516730693751}, {"current_trial": 204, "trialdata": {"rt": -1000, "trial_type": "single-audio", "word": "hostess", "stimulus": "/static/audio/wordpool/HOSTESS.wav", "conditions": [24, 1600, "a", 24000], "internal_node_id": "0.0-150.0", "trial": 5, "time_elapsed": 1109124, "serialpos": 7, "key_press": -1, "wordID": 722, "type": "PRES_AUD", "trial_index": 204}, "uniqueid": "MTK2093:3QRYMNZ7FZO8H9AA86PCRIINBDVTN7", "dateTime": 1516730696374}, {"current_trial": 205, "trialdata": {"rt": -1000, "trial_type": "single-audio", "word": "perch", "stimulus": "/static/audio/wordpool/PERCH.wav", "conditions": [24, 1600, "a", 24000], "internal_node_id": "0.0-151.0", "trial": 5, "time_elapsed": 1111825, "serialpos": 8, "key_press": -1, "wordID": 1047, "type": "PRES_AUD", "trial_index": 205}, "uniqueid": "MTK2093:3QRYMNZ7FZO8H9AA86PCRIINBDVTN7", "dateTime": 1516730699075}, {"current_trial": 206, "trialdata": {"rt": -1000, "trial_type": "single-audio", "word": "teacher", "stimulus": "/static/audio/wordpool/TEACHER.wav", "conditions": [24, 1600, "a", 24000], "internal_node_id": "0.0-152.0", "trial": 5, "time_elapsed": 1114262, "serialpos": 9, "key_press": -1, "wordID": 1439, "type": "PRES_AUD", "trial_index": 206}, "uniqueid": "MTK2093:3QRYMNZ7FZO8H9AA86PCRIINBDVTN7", "dateTime": 1516730701512}, {"current_trial": 207, "trialdata": {"rt": -1000, "trial_type": "single-audio", "word": "bug", "stimulus": "/static/audio/wordpool/BUG.wav", "conditions": [24, 1600, "a", 24000], "internal_node_id": "0.0-153.0", "trial": 5, "time_elapsed": 1116684, "serialpos": 10, "key_press": -1, "wordID": 186, "type": "PRES_AUD", "trial_index": 207}, "uniqueid": "MTK2093:3QRYMNZ7FZO8H9AA86PCRIINBDVTN7", "dateTime": 1516730703934}, {"current_trial": 208, "trialdata": {"rt": -1000, "trial_type": "single-audio", "word": "thief", "stimulus": "/static/audio/wordpool/THIEF.wav", "conditions": [24, 1600, "a", 24000], "internal_node_id": "0.0-154.0", "trial": 5, "time_elapsed": 1119260, "serialpos": 11, "key_press": -1, "wordID": 1455, "type": "PRES_AUD", "trial_index": 208}, "uniqueid": "MTK2093:3QRYMNZ7FZO8H9AA86PCRIINBDVTN7", "dateTime": 1516730706511}, {"current_trial": 209, "trialdata": {"rt": -1000, "trial_type": "single-audio", "word": "journal", "stimulus": "/static/audio/wordpool/JOURNAL.wav", "conditions": [24, 1600, "a", 24000], "internal_node_id": "0.0-155.0", "trial": 5, "time_elapsed": 1121775, "serialpos": 12, "key_press": -1, "wordID": 759, "type": "PRES_AUD", "trial_index": 209}, "uniqueid": "MTK2093:3QRYMNZ7FZO8H9AA86PCRIINBDVTN7", "dateTime": 1516730709025}, {"current_trial": 210, "trialdata": {"rt": -1000, "trial_type": "single-audio", "word": "flower", "stimulus": "/static/audio/wordpool/FLOWER.wav", "conditions": [24, 1600, "a", 24000], "internal_node_id": "0.0-156.0", "trial": 5, "time_elapsed": 1124476, "serialpos": 13, "key_press": -1, "wordID": 583, "type": "PRES_AUD", "trial_index": 210}, "uniqueid": "MTK2093:3QRYMNZ7FZO8H9AA86PCRIINBDVTN7", "dateTime": 1516730711726}, {"current_trial": 211, "trialdata": {"rt": -1000, "trial_type": "single-audio", "word": "item", "stimulus": "/static/audio/wordpool/ITEM.wav", "conditions": [24, 1600, "a", 24000], "internal_node_id": "0.0-157.0", "trial": 5, "time_elapsed": 1126944, "serialpos": 14, "key_press": -1, "wordID": 745, "type": "PRES_AUD", "trial_index": 211}, "uniqueid": "MTK2093:3QRYMNZ7FZO8H9AA86PCRIINBDVTN7", "dateTime": 1516730714194}, {"current_trial": 212, "trialdata": {"rt": -1000, "trial_type": "single-audio", "word": "goblin", "stimulus": "/static/audio/wordpool/GOBLIN.wav", "conditions": [24, 1600, "a", 24000], "internal_node_id": "0.0-158.0", "trial": 5, "time_elapsed": 1129645, "serialpos": 15, "key_press": -1, "wordID": 644, "type": "PRES_AUD", "trial_index": 212}, "uniqueid": "MTK2093:3QRYMNZ7FZO8H9AA86PCRIINBDVTN7", "dateTime": 1516730716895}, {"current_trial": 213, "trialdata": {"rt": -1000, "trial_type": "single-audio", "word": "custard", "stimulus": "/static/audio/wordpool/CUSTARD.wav", "conditions": [24, 1600, "a", 24000], "internal_node_id": "0.0-159.0", "trial": 5, "time_elapsed": 1132439, "serialpos": 16, "key_press": -1, "wordID": 428, "type": "PRES_AUD", "trial_index": 213}, "uniqueid": "MTK2093:3QRYMNZ7FZO8H9AA86PCRIINBDVTN7", "dateTime": 1516730719689}, {"current_trial": 214, "trialdata": {"rt": -1000, "trial_type": "single-audio", "word": "pudding", "stimulus": "/static/audio/wordpool/PUDDING.wav", "conditions": [24, 1600, "a", 24000], "internal_node_id": "0.0-160.0", "trial": 5, "time_elapsed": 1135124, "serialpos": 17, "key_press": -1, "wordID": 1138, "type": "PRES_AUD", "trial_index": 214}, "uniqueid": "MTK2093:3QRYMNZ7FZO8H9AA86PCRIINBDVTN7", "dateTime": 1516730722375}, {"current_trial": 215, "trialdata": {"rt": -1000, "trial_type": "single-audio", "word": "dragon", "stimulus": "/static/audio/wordpool/DRAGON.wav", "conditions": [24, 1600, "a", 24000], "internal_node_id": "0.0-161.0", "trial": 5, "time_elapsed": 1137825, "serialpos": 18, "key_press": -1, "wordID": 491, "type": "PRES_AUD", "trial_index": 215}, "uniqueid": "MTK2093:3QRYMNZ7FZO8H9AA86PCRIINBDVTN7", "dateTime": 1516730725075}, {"current_trial": 216, "trialdata": {"rt": -1000, "trial_type": "single-audio", "word": "cobra", "stimulus": "/static/audio/wordpool/COBRA.wav", "conditions": [24, 1600, "a", 24000], "internal_node_id": "0.0-162.0", "trial": 5, "time_elapsed": 1140479, "serialpos": 19, "key_press": -1, "wordID": 335, "type": "PRES_AUD", "trial_index": 216}, "uniqueid": "MTK2093:3QRYMNZ7FZO8H9AA86PCRIINBDVTN7", "dateTime": 1516730727730}, {"current_trial": 217, "trialdata": {"rt": -1000, "trial_type": "single-audio", "word": "box", "stimulus": "/static/audio/wordpool/BOX.wav", "conditions": [24, 1600, "a", 24000], "internal_node_id": "0.0-163.0", "trial": 5, "time_elapsed": 1143041, "serialpos": 20, "key_press": -1, "wordID": 158, "type": "PRES_AUD", "trial_index": 217}, "uniqueid": "MTK2093:3QRYMNZ7FZO8H9AA86PCRIINBDVTN7", "dateTime": 1516730730291}, {"current_trial": 218, "trialdata": {"rt": -1000, "trial_type": "single-audio", "word": "suitcase", "stimulus": "/static/audio/wordpool/SUITCASE.wav", "conditions": [24, 1600, "a", 24000], "internal_node_id": "0.0-164.0", "trial": 5, "time_elapsed": 1145819, "serialpos": 21, "key_press": -1, "wordID": 1402, "type": "PRES_AUD", "trial_index": 218}, "uniqueid": "MTK2093:3QRYMNZ7FZO8H9AA86PCRIINBDVTN7", "dateTime": 1516730733070}, {"current_trial": 219, "trialdata": {"rt": -1000, "trial_type": "single-audio", "word": "lion", "stimulus": "/static/audio/wordpool/LION.wav", "conditions": [24, 1600, "a", 24000], "internal_node_id": "0.0-165.0", "trial": 5, "time_elapsed": 1148241, "serialpos": 22, "key_press": -1, "wordID": 826, "type": "PRES_AUD", "trial_index": 219}, "uniqueid": "MTK2093:3QRYMNZ7FZO8H9AA86PCRIINBDVTN7", "dateTime": 1516730735491}, {"current_trial": 220, "trialdata": {"rt": -1000, "trial_type": "single-audio", "word": "captive", "stimulus": "/static/audio/wordpool/CAPTIVE.wav", "conditions": [24, 1600, "a", 24000], "internal_node_id": "0.0-166.0", "trial": 5, "time_elapsed": 1150771, "serialpos": 23, "key_press": -1, "wordID": 239, "type": "PRES_AUD", "trial_index": 220}, "uniqueid": "MTK2093:3QRYMNZ7FZO8H9AA86PCRIINBDVTN7", "dateTime": 1516730738022}, {"current_trial": 221, "trialdata": {"rt": -1, "trial_type": "single-stim", "stimulus": "", "internal_node_id": "0.0-167.0-0.0", "time_elapsed": 1152169, "key_press": -1, "type": "PRE_RECALL_DELAY", "trial_index": 221}, "uniqueid": "MTK2093:3QRYMNZ7FZO8H9AA86PCRIINBDVTN7", "dateTime": 1516730739419}, {"current_trial": 222, "trialdata": {"rt": -1000, "trial_type": "single-audio", "stimulus": "/static/audio/400Hz.wav", "internal_node_id": "0.0-168.0", "time_elapsed": 1152681, "key_press": -1, "type": "PRE_RECALL_ALERT", "trial_index": 222}, "uniqueid": "MTK2093:3QRYMNZ7FZO8H9AA86PCRIINBDVTN7", "dateTime": 1516730739931}, {"current_trial": 223, "trialdata": {"rt": [2349, 4726, 8133, 10354, 12460, 15640, 18926, 20504, 23959, 31615, 35533], "recwords": ["captive", "box", "suitcase", "dragon", "goblin", "pudding", "partner", "brother", "sibling", "journal", "flower"], "key_times": [347, 487, 733, 1054, 1211, 1397, 1514, 2349, 2645, 2980, 3186, 3575, 3728, 4265, 4493, 4726, 5203, 5469, 5636, 5879, 6286, 6412, 6598, 6737, 6817, 7358, 7533, 7677, 7784, 7873, 8133, 8814, 9019, 9140, 9382, 9549, 9689, 10354, 10876, 11059, 11434, 11633, 11792, 12026, 12460, 14349, 14532, 14890, 15053, 15179, 15282, 15380, 15640, 17448, 17598, 17686, 17932, 18433, 18581, 18693, 18926, 19342, 19572, 19753, 19893, 20037, 20152, 20246, 20504, 21735, 21932, 22516, 22956, 23050, 23270, 23505, 23959, 30056, 30251, 30397, 30668, 30870, 31017, 31159, 31615, 34516, 34708, 34910, 35092, 35209, 35331, 35533, 58409, 58598, 58739, 58921, 59149, 59252, 59669, 60005], "trial_type": "free-recall", "conditions": [24, 1600, "a", 24000], "internal_node_id": "0.0-169.0-0.0", "key_presses": [67, 65, 80, 84, 73, 86, 69, 13, 66, 80, 88, 8, 8, 79, 88, 13, 83, 85, 73, 84, 67, 65, 73, 83, 69, 8, 8, 8, 83, 69, 13, 68, 82, 65, 71, 79, 78, 13, 71, 79, 66, 76, 73, 78, 13, 80, 85, 68, 68, 73, 78, 71, 13, 80, 65, 82, 84, 78, 69, 82, 13, 66, 82, 79, 84, 72, 69, 82, 13, 83, 73, 66, 76, 73, 78, 71, 13, 74, 79, 85, 82, 78, 65, 76, 13, 70, 76, 79, 87, 69, 82, 13, 67, 85, 83, 84, 65, 82, 84, 8], "trial": 5, "time_elapsed": 1212693, "type": "FREE_RECALL", "trial_index": 223}, "uniqueid": "MTK2093:3QRYMNZ7FZO8H9AA86PCRIINBDVTN7", "dateTime": 1516730799950}, {"current_trial": 224, "trialdata": {"rt": 126910, "trial_type": "text", "internal_node_id": "0.0-170.0", "time_elapsed": 1341619, "key_press": 32, "type": "INSTRUCTIONS", "trial_index": 224}, "uniqueid": "MTK2093:3QRYMNZ7FZO8H9AA86PCRIINBDVTN7", "dateTime": 1516730928870}, {"current_trial": 225, "trialdata": {"rt": [3866, 7562, 9444, 13739, 17355, 19302, 22617], "trial_type": "math-distractor", "key_times": [3249, 3347, 3866, 7054, 7309, 7562, 8992, 9183, 9444, 13107, 13280, 13739, 16968, 17089, 17355, 18916, 19029, 19302, 22177, 22345, 22617], "responses": ["12", "13", "17", "14", "16", "19", "12"], "num2": [4, 4, 8, 8, 4, 9, 8, 9], "num3": [2, 7, 1, 5, 7, 9, 3, 5], "conditions": [12, 800, "a", 24000], "internal_node_id": "0.0-171.0", "key_presses": [97, 98, 13, 97, 99, 13, 97, 103, 13, 97, 100, 13, 97, 102, 13, 97, 105, 13, 97, 98, 13], "trial": 6, "time_elapsed": 1367647, "type": "DISTRACTOR", "trial_index": 225, "num1": [6, 2, 8, 1, 5, 1, 1, 5]}, "uniqueid": "MTK2093:3QRYMNZ7FZO8H9AA86PCRIINBDVTN7", "dateTime": 1516730954898}, {"current_trial": 226, "trialdata": {"rt": -1, "trial_type": "single-stim", "stimulus": "<p id=\"stim\">10</p>", "internal_node_id": "0.0-172.0-0.0", "time_elapsed": 1370673, "key_press": -1, "trial_index": 226}, "uniqueid": "MTK2093:3QRYMNZ7FZO8H9AA86PCRIINBDVTN7", "dateTime": 1516730957924}, {"current_trial": 227, "trialdata": {"rt": -1, "trial_type": "single-stim", "stimulus": "<p id=\"stim\">9</p>", "internal_node_id": "0.0-172.0-1.0", "time_elapsed": 1371682, "key_press": -1, "trial_index": 227}, "uniqueid": "MTK2093:3QRYMNZ7FZO8H9AA86PCRIINBDVTN7", "dateTime": 1516730958933}, {"current_trial": 228, "trialdata": {"rt": -1, "trial_type": "single-stim", "stimulus": "<p id=\"stim\">8</p>", "internal_node_id": "0.0-172.0-2.0", "time_elapsed": 1372691, "key_press": -1, "trial_index": 228}, "uniqueid": "MTK2093:3QRYMNZ7FZO8H9AA86PCRIINBDVTN7", "dateTime": 1516730959942}, {"current_trial": 229, "trialdata": {"rt": -1, "trial_type": "single-stim", "stimulus": "<p id=\"stim\">7</p>", "internal_node_id": "0.0-172.0-3.0", "time_elapsed": 1373700, "key_press": -1, "trial_index": 229}, "uniqueid": "MTK2093:3QRYMNZ7FZO8H9AA86PCRIINBDVTN7", "dateTime": 1516730960951}, {"current_trial": 230, "trialdata": {"rt": -1, "trial_type": "single-stim", "stimulus": "<p id=\"stim\">6</p>", "internal_node_id": "0.0-172.0-4.0", "time_elapsed": 1374709, "key_press": -1, "trial_index": 230}, "uniqueid": "MTK2093:3QRYMNZ7FZO8H9AA86PCRIINBDVTN7", "dateTime": 1516730961959}, {"current_trial": 231, "trialdata": {"rt": -1, "trial_type": "single-stim", "stimulus": "<p id=\"stim\">5</p>", "internal_node_id": "0.0-172.0-5.0", "time_elapsed": 1375719, "key_press": -1, "trial_index": 231}, "uniqueid": "MTK2093:3QRYMNZ7FZO8H9AA86PCRIINBDVTN7", "dateTime": 1516730962969}, {"current_trial": 232, "trialdata": {"rt": -1, "trial_type": "single-stim", "stimulus": "<p id=\"stim\">4</p>", "internal_node_id": "0.0-172.0-6.0", "time_elapsed": 1376727, "key_press": -1, "trial_index": 232}, "uniqueid": "MTK2093:3QRYMNZ7FZO8H9AA86PCRIINBDVTN7", "dateTime": 1516730963978}, {"current_trial": 233, "trialdata": {"rt": -1, "trial_type": "single-stim", "stimulus": "<p id=\"stim\">3</p>", "internal_node_id": "0.0-172.0-7.0", "time_elapsed": 1377736, "key_press": -1, "trial_index": 233}, "uniqueid": "MTK2093:3QRYMNZ7FZO8H9AA86PCRIINBDVTN7", "dateTime": 1516730964987}, {"current_trial": 234, "trialdata": {"rt": -1, "trial_type": "single-stim", "stimulus": "<p id=\"stim\">2</p>", "internal_node_id": "0.0-172.0-8.0", "time_elapsed": 1378745, "key_press": -1, "trial_index": 234}, "uniqueid": "MTK2093:3QRYMNZ7FZO8H9AA86PCRIINBDVTN7", "dateTime": 1516730965996}, {"current_trial": 235, "trialdata": {"rt": -1, "trial_type": "single-stim", "stimulus": "<p id=\"stim\">1</p>", "internal_node_id": "0.0-172.0-9.0", "time_elapsed": 1379754, "key_press": -1, "trial_index": 235}, "uniqueid": "MTK2093:3QRYMNZ7FZO8H9AA86PCRIINBDVTN7", "dateTime": 1516730967004}, {"current_trial": 236, "trialdata": {"rt": -1, "trial_type": "single-stim", "stimulus": "<p id=\"stim\">+</p>", "internal_node_id": "0.0-173.0-0.0", "time_elapsed": 1381261, "key_press": -1, "type": "FIXATION", "trial_index": 236}, "uniqueid": "MTK2093:3QRYMNZ7FZO8H9AA86PCRIINBDVTN7", "dateTime": 1516730968511}, {"current_trial": 237, "trialdata": {"rt": -1000, "trial_type": "single-audio", "word": "climber", "stimulus": "/static/audio/wordpool/CLIMBER.wav", "conditions": [12, 800, "a", 24000], "internal_node_id": "0.0-174.0", "trial": 6, "time_elapsed": 1383091, "serialpos": 0, "key_press": -1, "wordID": 322, "type": "PRES_AUD", "trial_index": 237}, "uniqueid": "MTK2093:3QRYMNZ7FZO8H9AA86PCRIINBDVTN7", "dateTime": 1516730970342}, {"current_trial": 238, "trialdata": {"rt": -1000, "trial_type": "single-audio", "word": "inmate", "stimulus": "/static/audio/wordpool/INMATE.wav", "conditions": [12, 800, "a", 24000], "internal_node_id": "0.0-175.0", "trial": 6, "time_elapsed": 1384707, "serialpos": 1, "key_press": -1, "wordID": 737, "type": "PRES_AUD", "trial_index": 238}, "uniqueid": "MTK2093:3QRYMNZ7FZO8H9AA86PCRIINBDVTN7", "dateTime": 1516730971957}, {"current_trial": 239, "trialdata": {"rt": -1000, "trial_type": "single-audio", "word": "cloud", "stimulus": "/static/audio/wordpool/CLOUD.wav", "conditions": [12, 800, "a", 24000], "internal_node_id": "0.0-176.0", "trial": 6, "time_elapsed": 1386460, "serialpos": 2, "key_press": -1, "wordID": 327, "type": "PRES_AUD", "trial_index": 239}, "uniqueid": "MTK2093:3QRYMNZ7FZO8H9AA86PCRIINBDVTN7", "dateTime": 1516730973710}, {"current_trial": 240, "trialdata": {"rt": -1000, "trial_type": "single-audio", "word": "airplane", "stimulus": "/static/audio/wordpool/AIRPLANE.wav", "conditions": [12, 800, "a", 24000], "internal_node_id": "0.0-177.0", "trial": 6, "time_elapsed": 1388447, "serialpos": 3, "key_press": -1, "wordID": 11, "type": "PRES_AUD", "trial_index": 240}, "uniqueid": "MTK2093:3QRYMNZ7FZO8H9AA86PCRIINBDVTN7", "dateTime": 1516730975697}, {"current_trial": 241, "trialdata": {"rt": -1000, "trial_type": "single-audio", "word": "child", "stimulus": "/static/audio/wordpool/CHILD.wav", "conditions": [12, 800, "a", 24000], "internal_node_id": "0.0-178.0", "trial": 6, "time_elapsed": 1390077, "serialpos": 4, "key_press": -1, "wordID": 298, "type": "PRES_AUD", "trial_index": 241}, "uniqueid": "MTK2093:3QRYMNZ7FZO8H9AA86PCRIINBDVTN7", "dateTime": 1516730977327}, {"current_trial": 242, "trialdata": {"rt": -1000, "trial_type": "single-audio", "word": "infant", "stimulus": "/static/audio/wordpool/INFANT.wav", "conditions": [12, 800, "a", 24000], "internal_node_id": "0.0-179.0", "trial": 6, "time_elapsed": 1391877, "serialpos": 5, "key_press": -1, "wordID": 736, "type": "PRES_AUD", "trial_index": 242}, "uniqueid": "MTK2093:3QRYMNZ7FZO8H9AA86PCRIINBDVTN7", "dateTime": 1516730979127}, {"current_trial": 243, "trialdata": {"rt": -1000, "trial_type": "single-audio", "word": "sunset", "stimulus": "/static/audio/wordpool/SUNSET.wav", "conditions": [12, 800, "a", 24000], "internal_node_id": "0.0-180.0", "trial": 6, "time_elapsed": 1393569, "serialpos": 6, "key_press": -1, "wordID": 1407, "type": "PRES_AUD", "trial_index": 243}, "uniqueid": "MTK2093:3QRYMNZ7FZO8H9AA86PCRIINBDVTN7", "dateTime": 1516730980820}, {"current_trial": 244, "trialdata": {"rt": -1000, "trial_type": "single-audio", "word": "bison", "stimulus": "/static/audio/wordpool/BISON.wav", "conditions": [12, 800, "a", 24000], "internal_node_id": "0.0-181.0", "trial": 6, "time_elapsed": 1395230, "serialpos": 7, "key_press": -1, "wordID": 130, "type": "PRES_AUD", "trial_index": 244}, "uniqueid": "MTK2093:3QRYMNZ7FZO8H9AA86PCRIINBDVTN7", "dateTime": 1516730982480}, {"current_trial": 245, "trialdata": {"rt": -1000, "trial_type": "single-audio", "word": "helmet", "stimulus": "/static/audio/wordpool/HELMET.wav", "conditions": [12, 800, "a", 24000], "internal_node_id": "0.0-182.0", "trial": 6, "time_elapsed": 1396907, "serialpos": 8, "key_press": -1, "wordID": 701, "type": "PRES_AUD", "trial_index": 245}, "uniqueid": "MTK2093:3QRYMNZ7FZO8H9AA86PCRIINBDVTN7", "dateTime": 1516730984157}, {"current_trial": 246, "trialdata": {"rt": -1000, "trial_type": "single-audio", "word": "dorm", "stimulus": "/static/audio/wordpool/DORM.wav", "conditions": [12, 800, "a", 24000], "internal_node_id": "0.0-183.0", "trial": 6, "time_elapsed": 1398754, "serialpos": 9, "key_press": -1, "wordID": 487, "type": "PRES_AUD", "trial_index": 246}, "uniqueid": "MTK2093:3QRYMNZ7FZO8H9AA86PCRIINBDVTN7", "dateTime": 1516730986004}, {"current_trial": 247, "trialdata": {"rt": -1000, "trial_type": "single-audio", "word": "lamp", "stimulus": "/static/audio/wordpool/LAMP.wav", "conditions": [12, 800, "a", 24000], "internal_node_id": "0.0-184.0", "trial": 6, "time_elapsed": 1400430, "serialpos": 10, "key_press": -1, "wordID": 797, "type": "PRES_AUD", "trial_index": 247}, "uniqueid": "MTK2093:3QRYMNZ7FZO8H9AA86PCRIINBDVTN7", "dateTime": 1516730987681}, {"current_trial": 248, "trialdata": {"rt": -1000, "trial_type": "single-audio", "word": "cattle", "stimulus": "/static/audio/wordpool/CATTLE.wav", "conditions": [12, 800, "a", 24000], "internal_node_id": "0.0-185.0", "trial": 6, "time_elapsed": 1402308, "serialpos": 11, "key_press": -1, "wordID": 260, "type": "PRES_AUD",