{"assignmentId": "3EWIJTFFVPE37U06H5YJHKM93SEE0B", "workerId": "MTK2609", "questiondata": {"avail_screen_height": 1040, "color_depth": 24, "screen_width": 1920, "pixel_depth": 24, "avail_screen_width": 1920, "screen_height": 1080}, "bonus": 0, "hitId": "3UY4PIS8QRS5L507GL00WS381001NL", "counterbalance": 2208, "useragent": "Mozilla/5.0 (Windows NT 10.0; Win64; x64) AppleWebKit/537.36 (KHTML, like Gecko) Chrome/64.0.3282.167 Safari/537.36", "eventdata": [{"eventtype": "initialized", "interval": 0, "value": null, "timestamp": 1519419110499}, {"eventtype": "window_resize", "interval": 1, "value": [1536, 813], "timestamp": 1519419110500}, {"eventtype": "focus", "interval": 30996, "value": "on", "timestamp": 1519419141496}, {"eventtype": "focus", "interval": 5627, "value": "off", "timestamp": 1519419147123}, {"eventtype": "focus", "interval": 71435077, "value": "on", "timestamp": 1519490582200}, {"eventtype": "window_resize", "interval": 1074, "value": [1538, 815], "timestamp": 1519490583274}, {"eventtype": "window_resize", "interval": 4481, "value": [1536, 814], "timestamp": 1519490587755}, {"eventtype": "window_resize", "interval": 83982, "value": [1538, 815], "timestamp": 1519490671737}, {"eventtype": "window_resize", "interval": 1371, "value": [1536, 814], "timestamp": 1519490673108}, {"eventtype": "focus", "interval": 609083, "value": "off", "timestamp": 1519491282191}, {"eventtype": "focus", "interval": 1116, "value": "on", "timestamp": 1519491283307}, {"eventtype": "focus", "interval": 174922, "value": "off", "timestamp": 1519491458229}, {"eventtype": "focus", "interval": 1517133, "value": "on", "timestamp": 1519492975362}, {"eventtype": "focus", "interval": 52, "value": "off", "timestamp": 1519492975414}, {"eventtype": "focus", "interval": 2147040, "value": "on", "timestamp": 1519495122454}, {"eventtype": "focus", "interval": 24518, "value": "off", "timestamp": 1519495146972}, {"eventtype": "focus", "interval": 1044, "value": "on", "timestamp": 1519495148016}, {"eventtype": "focus", "interval": 47471, "value": "off", "timestamp": 1519495195487}, {"eventtype": "focus", "interval": 5206, "value": "on", "timestamp": 1519495200693}, {"eventtype": "focus", "interval": 39370, "value": "off", "timestamp": 1519495240063}, {"eventtype": "focus", "interval": 24172, "value": "on", "timestamp": 1519495264235}, {"eventtype": "focus", "interval": 26961, "value": "off", "timestamp": 1519495291196}, {"eventtype": "focus", "interval": 51107, "value": "on", "timestamp": 1519495342303}, {"eventtype": "focus", "interval": 15108, "value": "off", "timestamp": 1519495357411}, {"eventtype": "focus", "interval": 5109, "value": "on", "timestamp": 1519495362520}, {"eventtype": "window_resize", "interval": 3301, "value": [1538, 815], "timestamp": 1519495365821}, {"eventtype": "window_resize", "interval": 1229, "value": [1536, 813], "timestamp": 1519495367050}, {"eventtype": "window_resize", "interval": 4013, "value": [1538, 815], "timestamp": 1519495371063}, {"eventtype": "window_resize", "interval": 5297, "value": [1516, 784], "timestamp": 1519495376360}, {"eventtype": "window_resize", "interval": 796, "value": [1270, 587], "timestamp": 1519495377156}, {"eventtype": "window_resize", "interval": 3382, "value": [1536, 814], "timestamp": 1519495380538}, {"eventtype": "focus", "interval": 2792, "value": "off", "timestamp": 1519495383330}, {"eventtype": "focus", "interval": 2433, "value": "on", "timestamp": 1519495385763}, {"eventtype": "focus", "interval": 7945, "value": "off", "timestamp": 1519495393708}], "data": [{"current_trial": 0, "trialdata": {"rt": 7001, "trial_type": "text", "internal_node_id": "0.0-0.0", "time_elapsed": 7004, "key_press": 49, "type": "INSTRUCTIONS", "trial_index": 0}, "uniqueid": "MTK2609:3EWIJTFFVPE37U06H5YJHKM93SEE0B", "dateTime": 1519419145466}, {"current_trial": 1, "trialdata": {"rt": 72134861, "trial_type": "text", "internal_node_id": "0.0-1.0", "time_elapsed": 72141872, "key_press": 49, "type": "INSTRUCTIONS", "trial_index": 1}, "uniqueid": "MTK2609:3EWIJTFFVPE37U06H5YJHKM93SEE0B", "dateTime": 1519491280347}, {"current_trial": 2, "trialdata": {"rt": [11699], "trial_type": "audio-test", "responses": ["ocean"], "internal_node_id": "0.0-2.0", "time_elapsed": 72153691, "type": "AUDIO_TEST", "trial_index": 2}, "uniqueid": "MTK2609:3EWIJTFFVPE37U06H5YJHKM93SEE0B", "dateTime": 1519491292152}, {"current_trial": 3, "trialdata": {"rt": [4282], "trial_type": "audio-test", "responses": ["crystal"], "internal_node_id": "0.0-3.0", "time_elapsed": 72157978, "type": "AUDIO_TEST", "trial_index": 3}, "uniqueid": "MTK2609:3EWIJTFFVPE37U06H5YJHKM93SEE0B", "dateTime": 1519491296438}, {"current_trial": 4, "trialdata": {"rt": [4037], "trial_type": "audio-test", "responses": ["spice"], "internal_node_id": "0.0-4.0", "time_elapsed": 72162021, "type": "AUDIO_TEST", "trial_index": 4}, "uniqueid": "MTK2609:3EWIJTFFVPE37U06H5YJHKM93SEE0B", "dateTime": 1519491300481}, {"current_trial": 5, "trialdata": {"rt": 33153, "trial_type": "survey-text", "responses": "{\"Q0\":\"6:00 pm\",\"Q1\":\"1:00 am\",\"Q2\":\"4\"}", "internal_node_id": "0.0-5.0", "time_elapsed": 72195927, "type": "SLEEP_SURVEY", "trial_index": 5}, "uniqueid": "MTK2609:3EWIJTFFVPE37U06H5YJHKM93SEE0B", "dateTime": 1519491334387}, {"current_trial": 6, "trialdata": {"rt": 92964, "trial_type": "text", "internal_node_id": "0.0-6.0", "time_elapsed": 72289893, "key_press": 49, "type": "INSTRUCTIONS", "trial_index": 6}, "uniqueid": "MTK2609:3EWIJTFFVPE37U06H5YJHKM93SEE0B", "dateTime": 1519491428354}, {"current_trial": 7, "trialdata": {"rt": 19775, "trial_type": "text", "internal_node_id": "0.0-7.0", "time_elapsed": 72310171, "key_press": 49, "type": "INSTRUCTIONS", "trial_index": 7}, "uniqueid": "MTK2609:3EWIJTFFVPE37U06H5YJHKM93SEE0B", "dateTime": 1519491448631}, {"current_trial": 8, "trialdata": {"rt": 3675322, "trial_type": "text", "internal_node_id": "0.0-8.0", "time_elapsed": 75985996, "key_press": 32, "type": "INSTRUCTIONS", "trial_index": 8}, "uniqueid": "MTK2609:3EWIJTFFVPE37U06H5YJHKM93SEE0B", "dateTime": 1519495124456}, {"current_trial": 9, "trialdata": {"rt": [3127, 5043, 6992, 8477, 10319, 11706, 13000, 14191, 16346], "trial_type": "math-distractor", "key_times": [2322, 2677, 3127, 4813, 5043, 6805, 6925, 6992, 8305, 8422, 8477, 9992, 10239, 10319, 11530, 11595, 11706, 12821, 12899, 13000, 14043, 14141, 14191, 15345, 15526, 15538, 15913, 16346, 17928], "responses": ["20", "8", "11", "14", "17", "10", "10", "12", "15"], "num2": [9, 4, 2, 4, 3, 6, 4, 3, 9, 9], "num3": [4, 1, 4, 1, 9, 2, 5, 2, 2, 2], "conditions": [18, 1200, "a", 18000], "internal_node_id": "0.0-9.0", "key_presses": [50, 48, 13, 56, 13, 49, 49, 13, 49, 52, 13, 49, 55, 13, 49, 48, 13, 49, 48, 13, 49, 50, 13, 49, 53, 52, 8, 13, 49], "trial": 0, "time_elapsed": 76005052, "type": "DISTRACTOR", "trial_index": 9, "num1": [7, 3, 5, 9, 5, 2, 1, 7, 4, 8]}, "uniqueid": "MTK2609:3EWIJTFFVPE37U06H5YJHKM93SEE0B", "dateTime": 1519495143512}, {"current_trial": 10, "trialdata": {"rt": -1, "trial_type": "single-stim", "stimulus": "<p id=\"stim\">10</p>", "internal_node_id": "0.0-10.0-0.0", "time_elapsed": 76008057, "key_press": -1, "trial_index": 10}, "uniqueid": "MTK2609:3EWIJTFFVPE37U06H5YJHKM93SEE0B", "dateTime": 1519495146517}, {"current_trial": 11, "trialdata": {"rt": -1, "trial_type": "single-stim", "stimulus": "<p id=\"stim\">9</p>", "internal_node_id": "0.0-10.0-1.0", "time_elapsed": 76009058, "key_press": -1, "trial_index": 11}, "uniqueid": "MTK2609:3EWIJTFFVPE37U06H5YJHKM93SEE0B", "dateTime": 1519495147518}, {"current_trial": 12, "trialdata": {"rt": -1, "trial_type": "single-stim", "stimulus": "<p id=\"stim\">8</p>", "internal_node_id": "0.0-10.0-2.0", "time_elapsed": 76010059, "key_press": -1, "trial_index": 12}, "uniqueid": "MTK2609:3EWIJTFFVPE37U06H5YJHKM93SEE0B", "dateTime": 1519495148519}, {"current_trial": 13, "trialdata": {"rt": -1, "trial_type": "single-stim", "stimulus": "<p id=\"stim\">7</p>", "internal_node_id": "0.0-10.0-3.0", "time_elapsed": 76011061, "key_press": -1, "trial_index": 13}, "uniqueid": "MTK2609:3EWIJTFFVPE37U06H5YJHKM93SEE0B", "dateTime": 1519495149521}, {"current_trial": 14, "trialdata": {"rt": -1, "trial_type": "single-stim", "stimulus": "<p id=\"stim\">6</p>", "internal_node_id": "0.0-10.0-4.0", "time_elapsed": 76012062, "key_press": -1, "trial_index": 14}, "uniqueid": "MTK2609:3EWIJTFFVPE37U06H5YJHKM93SEE0B", "dateTime": 1519495150522}, {"current_trial": 15, "trialdata": {"rt": -1, "trial_type": "single-stim", "stimulus": "<p id=\"stim\">5</p>", "internal_node_id": "0.0-10.0-5.0", "time_elapsed": 76013062, "key_press": -1, "trial_index": 15}, "uniqueid": "MTK2609:3EWIJTFFVPE37U06H5YJHKM93SEE0B", "dateTime": 1519495151522}, {"current_trial": 16, "trialdata": {"rt": -1, "trial_type": "single-stim", "stimulus": "<p id=\"stim\">4</p>", "internal_node_id": "0.0-10.0-6.0", "time_elapsed": 76014063, "key_press": -1, "trial_index": 16}, "uniqueid": "MTK2609:3EWIJTFFVPE37U06H5YJHKM93SEE0B", "dateTime": 1519495152523}, {"current_trial": 17, "trialdata": {"rt": -1, "trial_type": "single-stim", "stimulus": "<p id=\"stim\">3</p>", "internal_node_id": "0.0-10.0-7.0", "time_elapsed": 76015066, "key_press": -1, "trial_index": 17}, "uniqueid": "MTK2609:3EWIJTFFVPE37U06H5YJHKM93SEE0B", "dateTime": 1519495153526}, {"current_trial": 18, "trialdata": {"rt": -1, "trial_type": "single-stim", "stimulus": "<p id=\"stim\">2</p>", "internal_node_id": "0.0-10.0-8.0", "time_elapsed": 76016067, "key_press": -1, "trial_index": 18}, "uniqueid": "MTK2609:3EWIJTFFVPE37U06H5YJHKM93SEE0B", "dateTime": 1519495154527}, {"current_trial": 19, "trialdata": {"rt": -1, "trial_type": "single-stim", "stimulus": "<p id=\"stim\">1</p>", "internal_node_id": "0.0-10.0-9.0", "time_elapsed": 76017069, "key_press": -1, "trial_index": 19}, "uniqueid": "MTK2609:3EWIJTFFVPE37U06H5YJHKM93SEE0B", "dateTime": 1519495155529}, {"current_trial": 20, "trialdata": {"rt": -1, "trial_type": "single-stim", "stimulus": "<p id=\"stim\">+</p>", "internal_node_id": "0.0-11.0-0.0", "time_elapsed": 76018571, "key_press": -1, "type": "FIXATION", "trial_index": 20}, "uniqueid": "MTK2609:3EWIJTFFVPE37U06H5YJHKM93SEE0B", "dateTime": 1519495157031}, {"current_trial": 21, "trialdata": {"rt": -1000, "trial_type": "single-audio", "word": "bank", "stimulus": "/static/audio/wordpool/BANK.wav", "conditions": [18, 1200, "a", 18000], "internal_node_id": "0.0-12.0", "trial": 0, "time_elapsed": 76020685, "serialpos": 0, "key_press": -1, "wordID": 82, "type": "PRES_AUD", "trial_index": 21}, "uniqueid": "MTK2609:3EWIJTFFVPE37U06H5YJHKM93SEE0B", "dateTime": 1519495159145}, {"current_trial": 22, "trialdata": {"rt": -1000, "trial_type": "single-audio", "word": "foot", "stimulus": "/static/audio/wordpool/FOOT.wav", "conditions": [18, 1200, "a", 18000], "internal_node_id": "0.0-13.0", "trial": 0, "time_elapsed": 76023058, "serialpos": 1, "key_press": -1, "wordID": 589, "type": "PRES_AUD", "trial_index": 22}, "uniqueid": "MTK2609:3EWIJTFFVPE37U06H5YJHKM93SEE0B", "dateTime": 1519495161518}, {"current_trial": 23, "trialdata": {"rt": -1000, "trial_type": "single-audio", "word": "pluto", "stimulus": "/static/audio/wordpool/PLUTO.wav", "conditions": [18, 1200, "a", 18000], "internal_node_id": "0.0-14.0", "trial": 0, "time_elapsed": 76025163, "serialpos": 2, "key_press": -1, "wordID": 1091, "type": "PRES_AUD", "trial_index": 23}, "uniqueid": "MTK2609:3EWIJTFFVPE37U06H5YJHKM93SEE0B", "dateTime": 1519495163623}, {"current_trial": 24, "trialdata": {"rt": -1000, "trial_type": "single-audio", "word": "dolphin", "stimulus": "/static/audio/wordpool/DOLPHIN.wav", "conditions": [18, 1200, "a", 18000], "internal_node_id": "0.0-15.0", "trial": 0, "time_elapsed": 76027485, "serialpos": 3, "key_press": -1, "wordID": 482, "type": "PRES_AUD", "trial_index": 24}, "uniqueid": "MTK2609:3EWIJTFFVPE37U06H5YJHKM93SEE0B", "dateTime": 1519495165945}, {"current_trial": 25, "trialdata": {"rt": -1000, "trial_type": "single-audio", "word": "church", "stimulus": "/static/audio/wordpool/CHURCH.wav", "conditions": [18, 1200, "a", 18000], "internal_node_id": "0.0-16.0", "trial": 0, "time_elapsed": 76029840, "serialpos": 4, "key_press": -1, "wordID": 306, "type": "PRES_AUD", "trial_index": 25}, "uniqueid": "MTK2609:3EWIJTFFVPE37U06H5YJHKM93SEE0B", "dateTime": 1519495168300}, {"current_trial": 26, "trialdata": {"rt": -1000, "trial_type": "single-audio", "word": "item", "stimulus": "/static/audio/wordpool/ITEM.wav", "conditions": [18, 1200, "a", 18000], "internal_node_id": "0.0-17.0", "trial": 0, "time_elapsed": 76031865, "serialpos": 5, "key_press": -1, "wordID": 745, "type": "PRES_AUD", "trial_index": 26}, "uniqueid": "MTK2609:3EWIJTFFVPE37U06H5YJHKM93SEE0B", "dateTime": 1519495170325}, {"current_trial": 27, "trialdata": {"rt": -1000, "trial_type": "single-audio", "word": "crib", "stimulus": "/static/audio/wordpool/CRIB.wav", "conditions": [18, 1200, "a", 18000], "internal_node_id": "0.0-18.0", "trial": 0, "time_elapsed": 76034259, "serialpos": 6, "key_press": -1, "wordID": 406, "type": "PRES_AUD", "trial_index": 27}, "uniqueid": "MTK2609:3EWIJTFFVPE37U06H5YJHKM93SEE0B", "dateTime": 1519495172720}, {"current_trial": 28, "trialdata": {"rt": -1000, "trial_type": "single-audio", "word": "soda", "stimulus": "/static/audio/wordpool/SODA.wav", "conditions": [18, 1200, "a", 18000], "internal_node_id": "0.0-19.0", "trial": 0, "time_elapsed": 76036462, "serialpos": 7, "key_press": -1, "wordID": 1340, "type": "PRES_AUD", "trial_index": 28}, "uniqueid": "MTK2609:3EWIJTFFVPE37U06H5YJHKM93SEE0B", "dateTime": 1519495174922}, {"current_trial": 29, "trialdata": {"rt": -1000, "trial_type": "single-audio", "word": "cashew", "stimulus": "/static/audio/wordpool/CASHEW.wav", "conditions": [18, 1200, "a", 18000], "internal_node_id": "0.0-20.0", "trial": 0, "time_elapsed": 76038638, "serialpos": 8, "key_press": -1, "wordID": 252, "type": "PRES_AUD", "trial_index": 29}, "uniqueid": "MTK2609:3EWIJTFFVPE37U06H5YJHKM93SEE0B", "dateTime": 1519495177099}, {"current_trial": 30, "trialdata": {"rt": -1000, "trial_type": "single-audio", "word": "puddle", "stimulus": "/static/audio/wordpool/PUDDLE.wav", "conditions": [18, 1200, "a", 18000], "internal_node_id": "0.0-21.0", "trial": 0, "time_elapsed": 76040944, "serialpos": 9, "key_press": -1, "wordID": 1139, "type": "PRES_AUD", "trial_index": 30}, "uniqueid": "MTK2609:3EWIJTFFVPE37U06H5YJHKM93SEE0B", "dateTime": 1519495179404}, {"current_trial": 31, "trialdata": {"rt": -1000, "trial_type": "single-audio", "word": "plate", "stimulus": "/static/audio/wordpool/PLATE.wav", "conditions": [18, 1200, "a", 18000], "internal_node_id": "0.0-22.0", "trial": 0, "time_elapsed": 76043337, "serialpos": 10, "key_press": -1, "wordID": 1085, "type": "PRES_AUD", "trial_index": 31}, "uniqueid": "MTK2609:3EWIJTFFVPE37U06H5YJHKM93SEE0B", "dateTime": 1519495181797}, {"current_trial": 32, "trialdata": {"rt": -1000, "trial_type": "single-audio", "word": "football", "stimulus": "/static/audio/wordpool/FOOTBALL.wav", "conditions": [18, 1200, "a", 18000], "internal_node_id": "0.0-23.0", "trial": 0, "time_elapsed": 76045591, "serialpos": 11, "key_press": -1, "wordID": 590, "type": "PRES_AUD", "trial_index": 32}, "uniqueid": "MTK2609:3EWIJTFFVPE37U06H5YJHKM93SEE0B", "dateTime": 1519495184051}, {"current_trial": 33, "trialdata": {"rt": -1000, "trial_type": "single-audio", "word": "poison", "stimulus": "/static/audio/wordpool/POISON.wav", "conditions": [18, 1200, "a", 18000], "internal_node_id": "0.0-24.0", "trial": 0, "time_elapsed": 76047879, "serialpos": 12, "key_press": -1, "wordID": 1095, "type": "PRES_AUD", "trial_index": 33}, "uniqueid": "MTK2609:3EWIJTFFVPE37U06H5YJHKM93SEE0B", "dateTime": 1519495186339}, {"current_trial": 34, "trialdata": {"rt": -1000, "trial_type": "single-audio", "word": "plaza", "stimulus": "/static/audio/wordpool/PLAZA.wav", "conditions": [18, 1200, "a", 18000], "internal_node_id": "0.0-25.0", "trial": 0, "time_elapsed": 76050196, "serialpos": 13, "key_press": -1, "wordID": 1087, "type": "PRES_AUD", "trial_index": 34}, "uniqueid": "MTK2609:3EWIJTFFVPE37U06H5YJHKM93SEE0B", "dateTime": 1519495188656}, {"current_trial": 35, "trialdata": {"rt": -1000, "trial_type": "single-audio", "word": "servant", "stimulus": "/static/audio/wordpool/SERVANT.wav", "conditions": [18, 1200, "a", 18000], "internal_node_id": "0.0-26.0", "trial": 0, "time_elapsed": 76052463, "serialpos": 14, "key_press": -1, "wordID": 1270, "type": "PRES_AUD", "trial_index": 35}, "uniqueid": "MTK2609:3EWIJTFFVPE37U06H5YJHKM93SEE0B", "dateTime": 1519495190923}, {"current_trial": 36, "trialdata": {"rt": -1000, "trial_type": "single-audio", "word": "knapsack", "stimulus": "/static/audio/wordpool/KNAPSACK.wav", "conditions": [18, 1200, "a", 18000], "internal_node_id": "0.0-27.0", "trial": 0, "time_elapsed": 76054698, "serialpos": 15, "key_press": -1, "wordID": 782, "type": "PRES_AUD", "trial_index": 36}, "uniqueid": "MTK2609:3EWIJTFFVPE37U06H5YJHKM93SEE0B", "dateTime": 1519495193158}, {"current_trial": 37, "trialdata": {"rt": -1000, "trial_type": "single-audio", "word": "airport", "stimulus": "/static/audio/wordpool/AIRPORT.wav", "conditions": [18, 1200, "a", 18000], "internal_node_id": "0.0-28.0", "trial": 0, "time_elapsed": 76056834, "serialpos": 16, "key_press": -1, "wordID": 12, "type": "PRES_AUD", "trial_index": 37}, "uniqueid": "MTK2609:3EWIJTFFVPE37U06H5YJHKM93SEE0B", "dateTime": 1519495195294}, {"current_trial": 38, "trialdata": {"rt": -1000, "trial_type": "single-audio", "word": "brother", "stimulus": "/static/audio/wordpool/BROTHER.wav", "conditions": [18, 1200, "a", 18000], "internal_node_id": "0.0-29.0", "trial": 0, "time_elapsed": 76058878, "serialpos": 17, "key_press": -1, "wordID": 178, "type": "PRES_AUD", "trial_index": 38}, "uniqueid": "MTK2609:3EWIJTFFVPE37U06H5YJHKM93SEE0B", "dateTime": 1519495197339}, {"current_trial": 39, "trialdata": {"rt": -1, "trial_type": "single-stim", "stimulus": "", "internal_node_id": "0.0-30.0-0.0", "time_elapsed": 76060138, "key_press": -1, "type": "PRE_RECALL_DELAY", "trial_index": 39}, "uniqueid": "MTK2609:3EWIJTFFVPE37U06H5YJHKM93SEE0B", "dateTime": 1519495198599}, {"current_trial": 40, "trialdata": {"rt": -1000, "trial_type": "single-audio", "stimulus": "/static/audio/400Hz.wav", "internal_node_id": "0.0-31.0", "time_elapsed": 76060656, "key_press": -1, "type": "PRE_RECALL_ALERT", "trial_index": 40}, "uniqueid": "MTK2609:3EWIJTFFVPE37U06H5YJHKM93SEE0B", "dateTime": 1519495199116}, {"current_trial": 41, "trialdata": {"rt": [3457, 7007, 8221, 11000, 17558, 20114, 27067], "recwords": ["foot", "dolphin", "pluto", "cashew", "nap", "bing", "napa"], "key_times": [2998, 3079, 3210, 3307, 3457, 5582, 5738, 6055, 6228, 6400, 6495, 6645, 7007, 7451, 7625, 7808, 7940, 8029, 8221, 8607, 8715, 8831, 8951, 9406, 9559, 9870, 10038, 10184, 10362, 10496, 10581, 11000, 14849, 15741, 15862, 17558, 18287, 18942, 19462, 19937, 20114, 25246, 25380, 25499, 26129, 27067, 35656, 36432, 37112, 37243], "trial_type": "free-recall", "conditions": [18, 1200, "a", 18000], "internal_node_id": "0.0-32.0-0.0", "key_presses": [70, 79, 79, 84, 13, 68, 79, 76, 80, 72, 73, 78, 13, 80, 76, 85, 84, 79, 13, 67, 72, 69, 87, 8, 8, 8, 65, 83, 72, 69, 87, 13, 78, 65, 80, 13, 66, 73, 78, 71, 13, 78, 65, 80, 65, 13, 80, 76, 8, 8], "trial": 0, "time_elapsed": 76120667, "type": "FREE_RECALL", "trial_index": 41}, "uniqueid": "MTK2609:3EWIJTFFVPE37U06H5YJHKM93SEE0B", "dateTime": 1519495259147}, {"current_trial": 42, "trialdata": {"rt": 3572, "trial_type": "text", "internal_node_id": "0.0-33.0", "time_elapsed": 76126261, "key_press": 32, "type": "INSTRUCTIONS", "trial_index": 42}, "uniqueid": "MTK2609:3EWIJTFFVPE37U06H5YJHKM93SEE0B", "dateTime": 1519495264722}, {"current_trial": 43, "trialdata": {"rt": [3587, 5080, 6392, 9191, 10673, 12167, 14536, 16630], "trial_type": "math-distractor", "key_times": [3410, 3454, 3587, 4831, 4928, 5080, 6200, 6275, 6392, 8842, 9111, 9191, 10543, 10613, 10673, 11690, 12039, 12167, 14300, 14386, 14536, 16069, 16454, 16630, 17994], "responses": ["10", "20", "10", "16", "21", "16", "19", "16"], "num2": [2, 6, 1, 1, 8, 9, 6, 3, 7], "num3": [3, 8, 8, 7, 7, 1, 7, 9, 1], "conditions": [18, 1200, "a", 18000], "internal_node_id": "0.0-34.0", "key_presses": [49, 48, 13, 50, 48, 13, 49, 48, 13, 49, 54, 13, 50, 49, 13, 49, 54, 13, 49, 57, 13, 49, 54, 13, 49], "trial": 1, "time_elapsed": 76146273, "type": "DISTRACTOR", "trial_index": 43, "num1": [5, 6, 1, 8, 6, 6, 6, 4, 7]}, "uniqueid": "MTK2609:3EWIJTFFVPE37U06H5YJHKM93SEE0B", "dateTime": 1519495284733}, {"current_trial": 44, "trialdata": {"rt": -1, "trial_type": "single-stim", "stimulus": "<p id=\"stim\">10</p>", "internal_node_id": "0.0-35.0-0.0", "time_elapsed": 76149277, "key_press": -1, "trial_index": 44}, "uniqueid": "MTK2609:3EWIJTFFVPE37U06H5YJHKM93SEE0B", "dateTime": 1519495287737}, {"current_trial": 45, "trialdata": {"rt": -1, "trial_type": "single-stim", "stimulus": "<p id=\"stim\">9</p>", "internal_node_id": "0.0-35.0-1.0", "time_elapsed": 76150291, "key_press": -1, "trial_index": 45}, "uniqueid": "MTK2609:3EWIJTFFVPE37U06H5YJHKM93SEE0B", "dateTime": 1519495288751}, {"current_trial": 46, "trialdata": {"rt": -1, "trial_type": "single-stim", "stimulus": "<p id=\"stim\">8</p>", "internal_node_id": "0.0-35.0-2.0", "time_elapsed": 76151291, "key_press": -1, "trial_index": 46}, "uniqueid": "MTK2609:3EWIJTFFVPE37U06H5YJHKM93SEE0B", "dateTime": 1519495289751}, {"current_trial": 47, "trialdata": {"rt": -1, "trial_type": "single-stim", "stimulus": "<p id=\"stim\">7</p>", "internal_node_id": "0.0-35.0-3.0", "time_elapsed": 76152295, "key_press": -1, "trial_index": 47}, "uniqueid": "MTK2609:3EWIJTFFVPE37U06H5YJHKM93SEE0B", "dateTime": 1519495290755}, {"current_trial": 48, "trialdata": {"rt": -1, "trial_type": "single-stim", "stimulus": "<p id=\"stim\">6</p>", "internal_node_id": "0.0-35.0-4.0", "time_elapsed": 76153341, "key_press": -1, "trial_index": 48}, "uniqueid": "MTK2609:3EWIJTFFVPE37U06H5YJHKM93SEE0B", "dateTime": 1519495291801}, {"current_trial": 49, "trialdata": {"rt": -1, "trial_type": "single-stim", "stimulus": "<p id=\"stim\">5</p>", "internal_node_id": "0.0-35.0-5.0", "time_elapsed": 76154346, "key_press": -1, "trial_index": 49}, "uniqueid": "MTK2609:3EWIJTFFVPE37U06H5YJHKM93SEE0B", "dateTime": 1519495292806}, {"current_trial": 50, "trialdata": {"rt": -1, "trial_type": "single-stim", "stimulus": "<p id=\"stim\">4</p>", "internal_node_id": "0.0-35.0-6.0", "time_elapsed": 76155347, "key_press": -1, "trial_index": 50}, "uniqueid": "MTK2609:3EWIJTFFVPE37U06H5YJHKM93SEE0B", "dateTime": 1519495293807}, {"current_trial": 51, "trialdata": {"rt": -1, "trial_type": "single-stim", "stimulus": "<p id=\"stim\">3</p>", "internal_node_id": "0.0-35.0-7.0", "time_elapsed": 76156350, "key_press": -1, "trial_index": 51}, "uniqueid": "MTK2609:3EWIJTFFVPE37U06H5YJHKM93SEE0B", "dateTime": 1519495294810}, {"current_trial": 52, "trialdata": {"rt": -1, "trial_type": "single-stim", "stimulus": "<p id=\"stim\">2</p>", "internal_node_id": "0.0-35.0-8.0", "time_elapsed": 76157352, "key_press": -1, "trial_index": 52}, "uniqueid": "MTK2609:3EWIJTFFVPE37U06H5YJHKM93SEE0B", "dateTime": 1519495295812}, {"current_trial": 53, "trialdata": {"rt": -1, "trial_type": "single-stim", "stimulus": "<p id=\"stim\">1</p>", "internal_node_id": "0.0-35.0-9.0", "time_elapsed": 76158351, "key_press": -1, "trial_index": 53}, "uniqueid": "MTK2609:3EWIJTFFVPE37U06H5YJHKM93SEE0B", "dateTime": 1519495296812}, {"current_trial": 54, "trialdata": {"rt": -1, "trial_type": "single-stim", "stimulus": "<p id=\"stim\">+</p>", "internal_node_id": "0.0-36.0-0.0", "time_elapsed": 76159852, "key_press": -1, "type": "FIXATION", "trial_index": 54}, "uniqueid": "MTK2609:3EWIJTFFVPE37U06H5YJHKM93SEE0B", "dateTime": 1519495298313}, {"current_trial": 55, "trialdata": {"rt": -1000, "trial_type": "single-audio", "word": "slope", "stimulus": "/static/audio/wordpool/SLOPE.wav", "conditions": [18, 1200, "a", 18000], "internal_node_id": "0.0-37.0", "trial": 1, "time_elapsed": 76162145, "serialpos": 0, "key_press": -1, "wordID": 1327, "type": "PRES_AUD", "trial_index": 55}, "uniqueid": "MTK2609:3EWIJTFFVPE37U06H5YJHKM93SEE0B", "dateTime": 1519495300605}, {"current_trial": 56, "trialdata": {"rt": -1000, "trial_type": "single-audio", "word": "wrench", "stimulus": "/static/audio/wordpool/WRENCH.wav", "conditions": [18, 1200, "a", 18000], "internal_node_id": "0.0-38.0", "trial": 1, "time_elapsed": 76164229, "serialpos": 1, "key_press": -1, "wordID": 1624, "type": "PRES_AUD", "trial_index": 56}, "uniqueid": "MTK2609:3EWIJTFFVPE37U06H5YJHKM93SEE0B", "dateTime": 1519495302689}, {"current_trial": 57, "trialdata": {"rt": -1000, "trial_type": "single-audio", "word": "lapel", "stimulus": "/static/audio/wordpool/LAPEL.wav", "conditions": [18, 1200, "a", 18000], "internal_node_id": "0.0-39.0", "trial": 1, "time_elapsed": 76166312, "serialpos": 2, "key_press": -1, "wordID": 799, "type": "PRES_AUD", "trial_index": 57}, "uniqueid": "MTK2609:3EWIJTFFVPE37U06H5YJHKM93SEE0B", "dateTime": 1519495304773}, {"current_trial": 58, "trialdata": {"rt": -1000, "trial_type": "single-audio", "word": "mummy", "stimulus": "/static/audio/wordpool/MUMMY.wav", "conditions": [18, 1200, "a", 18000], "internal_node_id": "0.0-40.0", "trial": 1, "time_elapsed": 76168437, "serialpos": 3, "key_press": -1, "wordID": 931, "type": "PRES_AUD", "trial_index": 58}, "uniqueid": "MTK2609:3EWIJTFFVPE37U06H5YJHKM93SEE0B", "dateTime": 1519495306899}, {"current_trial": 59, "trialdata": {"rt": -1000, "trial_type": "single-audio", "word": "tutu", "stimulus": "/static/audio/wordpool/TUTU.wav", "conditions": [18, 1200, "a", 18000], "internal_node_id": "0.0-41.0", "trial": 1, "time_elapsed": 76170587, "serialpos": 4, "key_press": -1, "wordID": 1523, "type": "PRES_AUD", "trial_index": 59}, "uniqueid": "MTK2609:3EWIJTFFVPE37U06H5YJHKM93SEE0B", "dateTime": 1519495309047}, {"current_trial": 60, "trialdata": {"rt": -1000, "trial_type": "single-audio", "word": "lettuce", "stimulus": "/static/audio/wordpool/LETTUCE.wav", "conditions": [18, 1200, "a", 18000], "internal_node_id": "0.0-42.0", "trial": 1, "time_elapsed": 76172778, "serialpos": 5, "key_press": -1, "wordID": 813, "type": "PRES_AUD", "trial_index": 60}, "uniqueid": "MTK2609:3EWIJTFFVPE37U06H5YJHKM93SEE0B", "dateTime": 1519495311239}, {"current_trial": 61, "trialdata": {"rt": -1000, "trial_type": "single-audio", "word": "banker", "stimulus": "/static/audio/wordpool/BANKER.wav", "conditions": [18, 1200, "a", 18000], "internal_node_id": "0.0-43.0", "trial": 1, "time_elapsed": 76175038, "serialpos": 6, "key_press": -1, "wordID": 83, "type": "PRES_AUD", "trial_index": 61}, "uniqueid": "MTK2609:3EWIJTFFVPE37U06H5YJHKM93SEE0B", "dateTime": 1519495313498}, {"current_trial": 62, "trialdata": {"rt": -1000, "trial_type": "single-audio", "word": "orange", "stimulus": "/static/audio/wordpool/ORANGE.wav", "conditions": [18, 1200, "a", 18000], "internal_node_id": "0.0-44.0", "trial": 1, "time_elapsed": 76177414, "serialpos": 7, "key_press": -1, "wordID": 979, "type": "PRES_AUD", "trial_index": 62}, "uniqueid": "MTK2609:3EWIJTFFVPE37U06H5YJHKM93SEE0B", "dateTime": 1519495315874}, {"current_trial": 63, "trialdata": {"rt": -1000, "trial_type": "single-audio", "word": "muffin", "stimulus": "/static/audio/wordpool/MUFFIN.wav", "conditions": [18, 1200, "a", 18000], "internal_node_id": "0.0-45.0", "trial": 1, "time_elapsed": 76179447, "serialpos": 8, "key_press": -1, "wordID": 928, "type": "PRES_AUD", "trial_index": 63}, "uniqueid": "MTK2609:3EWIJTFFVPE37U06H5YJHKM93SEE0B", "dateTime": 1519495317907}, {"current_trial": 64, "trialdata": {"rt": -1000, "trial_type": "single-audio", "word": "supper", "stimulus": "/static/audio/wordpool/SUPPER.wav", "conditions": [18, 1200, "a", 18000], "internal_node_id": "0.0-46.0", "trial": 1, "time_elapsed": 76181762, "serialpos": 9, "key_press": -1, "wordID": 1410, "type": "PRES_AUD", "trial_index": 64}, "uniqueid": "MTK2609:3EWIJTFFVPE37U06H5YJHKM93SEE0B", "dateTime": 1519495320222}, {"current_trial": 65, "trialdata": {"rt": -1000, "trial_type": "single-audio", "word": "rebel", "stimulus": "/static/audio/wordpool/REBEL.wav", "conditions": [18, 1200, "a", 18000], "internal_node_id": "0.0-47.0", "trial": 1, "time_elapsed": 76183812, "serialpos": 10, "key_press": -1, "wordID": 1171, "type": "PRES_AUD", "trial_index": 65}, "uniqueid": "MTK2609:3EWIJTFFVPE37U06H5YJHKM93SEE0B", "dateTime": 1519495322272}, {"current_trial": 66, "trialdata": {"rt": -1000, "trial_type": "single-audio", "word": "whistle", "stimulus": "/static/audio/wordpool/WHISTLE.wav", "conditions": [18, 1200, "a", 18000], "internal_node_id": "0.0-48.0", "trial": 1, "time_elapsed": 76186006, "serialpos": 11, "key_press": -1, "wordID": 1605, "type": "PRES_AUD", "trial_index": 66}, "uniqueid": "MTK2609:3EWIJTFFVPE37U06H5YJHKM93SEE0B", "dateTime": 1519495324466}, {"current_trial": 67, "trialdata": {"rt": -1000, "trial_type": "single-audio", "word": "message", "stimulus": "/static/audio/wordpool/MESSAGE.wav", "conditions": [18, 1200, "a", 18000], "internal_node_id": "0.0-49.0", "trial": 1, "time_elapsed": 76188347, "serialpos": 12, "key_press": -1, "wordID": 887, "type": "PRES_AUD", "trial_index": 67}, "uniqueid": "MTK2609:3EWIJTFFVPE37U06H5YJHKM93SEE0B", "dateTime": 1519495326807}, {"current_trial": 68, "trialdata": {"rt": -1000, "trial_type": "single-audio", "word": "dashboard", "stimulus": "/static/audio/wordpool/DASHBOARD.wav", "conditions": [18, 1200, "a", 18000], "internal_node_id": "0.0-50.0", "trial": 1, "time_elapsed": 76190482, "serialpos": 13, "key_press": -1, "wordID": 440, "type": "PRES_AUD", "trial_index": 68}, "uniqueid": "MTK2609:3EWIJTFFVPE37U06H5YJHKM93SEE0B", "dateTime": 1519495328946}, {"current_trial": 69, "trialdata": {"rt": -1000, "trial_type": "single-audio", "word": "salt", "stimulus": "/static/audio/wordpool/SALT.wav", "conditions": [18, 1200, "a", 18000], "internal_node_id": "0.0-51.0", "trial": 1, "time_elapsed": 76192793, "serialpos": 14, "key_press": -1, "wordID": 1228, "type": "PRES_AUD", "trial_index": 69}, "uniqueid": "MTK2609:3EWIJTFFVPE37U06H5YJHKM93SEE0B", "dateTime": 1519495331253}, {"current_trial": 70, "trialdata": {"rt": -1000, "trial_type": "single-audio", "word": "mars", "stimulus": "/static/audio/wordpool/MARS.wav", "conditions": [18, 1200, "a", 18000], "internal_node_id": "0.0-52.0", "trial": 1, "time_elapsed": 76194861, "serialpos": 15, "key_press": -1, "wordID": 872, "type": "PRES_AUD", "trial_index": 70}, "uniqueid": "MTK2609:3EWIJTFFVPE37U06H5YJHKM93SEE0B", "dateTime": 1519495333321}, {"current_trial": 71, "trialdata": {"rt": -1000, "trial_type": "single-audio", "word": "tortoise", "stimulus": "/static/audio/wordpool/TORTOISE.wav", "conditions": [18, 1200, "a", 18000], "internal_node_id": "0.0-53.0", "trial": 1, "time_elapsed": 76197064, "serialpos": 16, "key_press": -1, "wordID": 1485, "type": "PRES_AUD", "trial_index": 71}, "uniqueid": "MTK2609:3EWIJTFFVPE37U06H5YJHKM93SEE0B", "dateTime": 1519495335524}, {"current_trial": 72, "trialdata": {"rt": -1000, "trial_type": "single-audio", "word": "milk", "stimulus": "/static/audio/wordpool/MILK.wav", "conditions": [18, 1200, "a", 18000], "internal_node_id": "0.0-54.0", "trial": 1, "time_elapsed": 76199226, "serialpos": 17, "key_press": -1, "wordID": 894, "type": "PRES_AUD", "trial_index": 72}, "uniqueid": "MTK2609:3EWIJTFFVPE37U06H5YJHKM93SEE0B", "dateTime": 1519495337686}, {"current_trial": 73, "trialdata": {"rt": -1, "trial_type": "single-stim", "stimulus": "", "internal_node_id": "0.0-55.0-0.0", "time_elapsed": 76200503, "key_press": -1, "type": "PRE_RECALL_DELAY", "trial_index": 73}, "uniqueid": "MTK2609:3EWIJTFFVPE37U06H5YJHKM93SEE0B", "dateTime": 1519495338963}, {"current_trial": 74, "trialdata": {"rt": -1000, "trial_type": "single-audio", "stimulus": "/static/audio/400Hz.wav", "internal_node_id": "0.0-56.0", "time_elapsed": 76201005, "key_press": -1, "type": "PRE_RECALL_ALERT", "trial_index": 74}, "uniqueid": "MTK2609:3EWIJTFFVPE37U06H5YJHKM93SEE0B", "dateTime": 1519495339465}], "currenttrial": 75, "condition": 1, "mode": "live"}