{"assignmentId": "3OVHNO1VE78VH9SWP40RH17ALIODZR", "workerId": "MTK2719", "questiondata": {"avail_screen_height": 728, "color_depth": 24, "screen_width": 1366, "pixel_depth": 24, "avail_screen_width": 1366, "screen_height": 768}, "bonus": 0, "hitId": "3OB6JN3A9QWNWSEO2E0FP4WL06ZRMI", "counterbalance": 86, "useragent": "Mozilla/5.0 (Windows NT 10.0; Win64; x64) AppleWebKit/537.36 (KHTML, like Gecko) Chrome/64.0.3282.167 Safari/537.36", "eventdata": [{"eventtype": "initialized", "interval": 0, "value": null, "timestamp": 1519252110424}, {"eventtype": "window_resize", "interval": 0, "value": [1366, 721], "timestamp": 1519252110424}], "data": [{"current_trial": 0, "trialdata": {"rt": 33451, "trial_type": "text", "internal_node_id": "0.0-0.0", "time_elapsed": 33457, "key_press": 32, "type": "INSTRUCTIONS", "trial_index": 0}, "uniqueid": "MTK2719:3OVHNO1VE78VH9SWP40RH17ALIODZR", "dateTime": 1519252163087}, {"current_trial": 1, "trialdata": {"rt": 20752, "trial_type": "text", "internal_node_id": "0.0-1.0", "time_elapsed": 54213, "key_press": 13, "type": "INSTRUCTIONS", "trial_index": 1}, "uniqueid": "MTK2719:3OVHNO1VE78VH9SWP40RH17ALIODZR", "dateTime": 1519252183842}, {"current_trial": 2, "trialdata": {"rt": [11627], "trial_type": "audio-test", "responses": ["ocean"], "internal_node_id": "0.0-2.0", "time_elapsed": 65849, "type": "AUDIO_TEST", "trial_index": 2}, "uniqueid": "MTK2719:3OVHNO1VE78VH9SWP40RH17ALIODZR", "dateTime": 1519252195478}, {"current_trial": 3, "trialdata": {"rt": [14120], "trial_type": "audio-test", "responses": ["crystal"], "internal_node_id": "0.0-3.0", "time_elapsed": 79974, "type": "AUDIO_TEST", "trial_index": 3}, "uniqueid": "MTK2719:3OVHNO1VE78VH9SWP40RH17ALIODZR", "dateTime": 1519252209603}, {"current_trial": 4, "trialdata": {"rt": [15082], "trial_type": "audio-test", "responses": ["spice"], "internal_node_id": "0.0-4.0", "time_elapsed": 95060, "type": "AUDIO_TEST", "trial_index": 4}, "uniqueid": "MTK2719:3OVHNO1VE78VH9SWP40RH17ALIODZR", "dateTime": 1519252224689}, {"current_trial": 5, "trialdata": {"rt": 20731, "trial_type": "survey-text", "responses": "{\"Q0\":\"10\",\"Q1\":\"6\",\"Q2\":\"4\"}", "internal_node_id": "0.0-5.0", "time_elapsed": 116546, "type": "SLEEP_SURVEY", "trial_index": 5}, "uniqueid": "MTK2719:3OVHNO1VE78VH9SWP40RH17ALIODZR", "dateTime": 1519252246175}, {"current_trial": 6, "trialdata": {"rt": 66587, "trial_type": "text", "internal_node_id": "0.0-6.0", "time_elapsed": 184135, "key_press": 13, "type": "INSTRUCTIONS", "trial_index": 6}, "uniqueid": "MTK2719:3OVHNO1VE78VH9SWP40RH17ALIODZR", "dateTime": 1519252313764}, {"current_trial": 7, "trialdata": {"rt": 20372, "trial_type": "text", "internal_node_id": "0.0-7.0", "time_elapsed": 205008, "key_press": 13, "type": "INSTRUCTIONS", "trial_index": 7}, "uniqueid": "MTK2719:3OVHNO1VE78VH9SWP40RH17ALIODZR", "dateTime": 1519252334637}, {"current_trial": 8, "trialdata": {"rt": 15855, "trial_type": "text", "internal_node_id": "0.0-8.0", "time_elapsed": 221365, "key_press": 13, "type": "INSTRUCTIONS", "trial_index": 8}, "uniqueid": "MTK2719:3OVHNO1VE78VH9SWP40RH17ALIODZR", "dateTime": 1519252350994}, {"current_trial": 9, "trialdata": {"rt": [3922, 9424, 13845], "trial_type": "math-distractor", "key_times": [3026, 3182, 3922, 7570, 7755, 9424, 11863, 12048, 13845], "responses": ["14", "10", "14"], "num2": [6, 1, 1, 7], "num3": [2, 5, 9, 6], "conditions": [18, 1200, "a", 18000], "internal_node_id": "0.0-9.0", "key_presses": [97, 100, 13, 97, 96, 13, 97, 100, 13], "trial": 0, "time_elapsed": 240375, "type": "DISTRACTOR", "trial_index": 9, "num1": [6, 4, 4, 6]}, "uniqueid": "MTK2719:3OVHNO1VE78VH9SWP40RH17ALIODZR", "dateTime": 1519252370005}, {"current_trial": 10, "trialdata": {"rt": -1, "trial_type": "single-stim", "stimulus": "<p id=\"stim\">10</p>", "internal_node_id": "0.0-10.0-0.0", "time_elapsed": 243380, "key_press": -1, "trial_index": 10}, "uniqueid": "MTK2719:3OVHNO1VE78VH9SWP40RH17ALIODZR", "dateTime": 1519252373009}, {"current_trial": 11, "trialdata": {"rt": -1, "trial_type": "single-stim", "stimulus": "<p id=\"stim\">9</p>", "internal_node_id": "0.0-10.0-1.0", "time_elapsed": 244383, "key_press": -1, "trial_index": 11}, "uniqueid": "MTK2719:3OVHNO1VE78VH9SWP40RH17ALIODZR", "dateTime": 1519252374012}, {"current_trial": 12, "trialdata": {"rt": -1, "trial_type": "single-stim", "stimulus": "<p id=\"stim\">8</p>", "internal_node_id": "0.0-10.0-2.0", "time_elapsed": 245386, "key_press": -1, "trial_index": 12}, "uniqueid": "MTK2719:3OVHNO1VE78VH9SWP40RH17ALIODZR", "dateTime": 1519252375015}, {"current_trial": 13, "trialdata": {"rt": -1, "trial_type": "single-stim", "stimulus": "<p id=\"stim\">7</p>", "internal_node_id": "0.0-10.0-3.0", "time_elapsed": 246389, "key_press": -1, "trial_index": 13}, "uniqueid": "MTK2719:3OVHNO1VE78VH9SWP40RH17ALIODZR", "dateTime": 1519252376018}, {"current_trial": 14, "trialdata": {"rt": -1, "trial_type": "single-stim", "stimulus": "<p id=\"stim\">6</p>", "internal_node_id": "0.0-10.0-4.0", "time_elapsed": 247391, "key_press": -1, "trial_index": 14}, "uniqueid": "MTK2719:3OVHNO1VE78VH9SWP40RH17ALIODZR", "dateTime": 1519252377021}, {"current_trial": 15, "trialdata": {"rt": -1, "trial_type": "single-stim", "stimulus": "<p id=\"stim\">5</p>", "internal_node_id": "0.0-10.0-5.0", "time_elapsed": 248393, "key_press": -1, "trial_index": 15}, "uniqueid": "MTK2719:3OVHNO1VE78VH9SWP40RH17ALIODZR", "dateTime": 1519252378023}, {"current_trial": 16, "trialdata": {"rt": -1, "trial_type": "single-stim", "stimulus": "<p id=\"stim\">4</p>", "internal_node_id": "0.0-10.0-6.0", "time_elapsed": 249396, "key_press": -1, "trial_index": 16}, "uniqueid": "MTK2719:3OVHNO1VE78VH9SWP40RH17ALIODZR", "dateTime": 1519252379026}, {"current_trial": 17, "trialdata": {"rt": -1, "trial_type": "single-stim", "stimulus": "<p id=\"stim\">3</p>", "internal_node_id": "0.0-10.0-7.0", "time_elapsed": 250400, "key_press": -1, "trial_index": 17}, "uniqueid": "MTK2719:3OVHNO1VE78VH9SWP40RH17ALIODZR", "dateTime": 1519252380029}, {"current_trial": 18, "trialdata": {"rt": -1, "trial_type": "single-stim", "stimulus": "<p id=\"stim\">2</p>", "internal_node_id": "0.0-10.0-8.0", "time_elapsed": 251403, "key_press": -1, "trial_index": 18}, "uniqueid": "MTK2719:3OVHNO1VE78VH9SWP40RH17ALIODZR", "dateTime": 1519252381032}, {"current_trial": 19, "trialdata": {"rt": -1, "trial_type": "single-stim", "stimulus": "<p id=\"stim\">1</p>", "internal_node_id": "0.0-10.0-9.0", "time_elapsed": 252404, "key_press": -1, "trial_index": 19}, "uniqueid": "MTK2719:3OVHNO1VE78VH9SWP40RH17ALIODZR", "dateTime": 1519252382033}, {"current_trial": 20, "trialdata": {"rt": -1, "trial_type": "single-stim", "stimulus": "<p id=\"stim\">+</p>", "internal_node_id": "0.0-11.0-0.0", "time_elapsed": 253907, "key_press": -1, "type": "FIXATION", "trial_index": 20}, "uniqueid": "MTK2719:3OVHNO1VE78VH9SWP40RH17ALIODZR", "dateTime": 1519252383536}, {"current_trial": 21, "trialdata": {"rt": 1409.3333333333362, "trial_type": "single-audio", "word": "guitar", "stimulus": "/static/audio/wordpool/GUITAR.wav", "conditions": [18, 1200, "a", 18000], "internal_node_id": "0.0-12.0", "trial": 0, "time_elapsed": 255993, "serialpos": 0, "key_press": 71, "wordID": 669, "type": "PRES_AUD", "trial_index": 21}, "uniqueid": "MTK2719:3OVHNO1VE78VH9SWP40RH17ALIODZR", "dateTime": 1519252385622}, {"current_trial": 22, "trialdata": {"rt": -89.33333333339988, "trial_type": "single-audio", "word": "partner", "stimulus": "/static/audio/wordpool/PARTNER.wav", "conditions": [18, 1200, "a", 18000], "internal_node_id": "0.0-13.0", "trial": 0, "time_elapsed": 258123, "serialpos": 1, "key_press": 85, "wordID": 1016, "type": "PRES_AUD", "trial_index": 22}, "uniqueid": "MTK2719:3OVHNO1VE78VH9SWP40RH17ALIODZR", "dateTime": 1519252387753}, {"current_trial": 23, "trialdata": {"rt": 19.99999999998181, "trial_type": "single-audio", "word": "poison", "stimulus": "/static/audio/wordpool/POISON.wav", "conditions": [18, 1200, "a", 18000], "internal_node_id": "0.0-14.0", "trial": 0, "time_elapsed": 260183, "serialpos": 2, "key_press": 84, "wordID": 1095, "type": "PRES_AUD", "trial_index": 23}, "uniqueid": "MTK2719:3OVHNO1VE78VH9SWP40RH17ALIODZR", "dateTime": 1519252389812}, {"current_trial": 24, "trialdata": {"rt": 150.66666666666606, "trial_type": "single-audio", "word": "friend", "stimulus": "/static/audio/wordpool/FRIEND.wav", "conditions": [18, 1200, "a", 18000], "internal_node_id": "0.0-15.0", "trial": 0, "time_elapsed": 262298, "serialpos": 3, "key_press": 82, "wordID": 605, "type": "PRES_AUD", "trial_index": 24}, "uniqueid": "MTK2719:3OVHNO1VE78VH9SWP40RH17ALIODZR", "dateTime": 1519252391927}, {"current_trial": 25, "trialdata": {"rt": -100.00000000002274, "trial_type": "single-audio", "word": "summit", "stimulus": "/static/audio/wordpool/SUMMIT.wav", "conditions": [18, 1200, "a", 18000], "internal_node_id": "0.0-16.0", "trial": 0, "time_elapsed": 264640, "serialpos": 4, "key_press": 32, "wordID": 1404, "type": "PRES_AUD", "trial_index": 25}, "uniqueid": "MTK2719:3OVHNO1VE78VH9SWP40RH17ALIODZR", "dateTime": 1519252394269}, {"current_trial": 26, "trialdata": {"rt": 89.33333333328619, "trial_type": "single-audio", "word": "leopard", "stimulus": "/static/audio/wordpool/LEOPARD.wav", "conditions": [18, 1200, "a", 18000], "internal_node_id": "0.0-17.0", "trial": 0, "time_elapsed": 266719, "serialpos": 5, "key_press": 70, "wordID": 811, "type": "PRES_AUD", "trial_index": 26}, "uniqueid": "MTK2719:3OVHNO1VE78VH9SWP40RH17ALIODZR", "dateTime": 1519252396349}, {"current_trial": 27, "trialdata": {"rt": 401.333333333298, "trial_type": "single-audio", "word": "mattress", "stimulus": "/static/audio/wordpool/MATTRESS.wav", "conditions": [18, 1200, "a", 18000], "internal_node_id": "0.0-18.0", "trial": 0, "time_elapsed": 268952, "serialpos": 6, "key_press": 13, "wordID": 878, "type": "PRES_AUD", "trial_index": 27}, "uniqueid": "MTK2719:3OVHNO1VE78VH9SWP40RH17ALIODZR", "dateTime": 1519252398581}, {"current_trial": 28, "trialdata": {"rt": 601.3333333332866, "trial_type": "single-audio", "word": "hatchet", "stimulus": "/static/audio/wordpool/HATCHET.wav", "conditions": [18, 1200, "a", 18000], "internal_node_id": "0.0-19.0", "trial": 0, "time_elapsed": 271049, "serialpos": 7, "key_press": 77, "wordID": 690, "type": "PRES_AUD", "trial_index": 28}, "uniqueid": "MTK2719:3OVHNO1VE78VH9SWP40RH17ALIODZR", "dateTime": 1519252400678}, {"current_trial": 29, "trialdata": {"rt": 38.66666666664287, "trial_type": "single-audio", "word": "husband", "stimulus": "/static/audio/wordpool/HUSBAND.wav", "conditions": [18, 1200, "a", 18000], "internal_node_id": "0.0-20.0", "trial": 0, "time_elapsed": 273057, "serialpos": 8, "key_press": 83, "wordID": 727, "type": "PRES_AUD", "trial_index": 29}, "uniqueid": "MTK2719:3OVHNO1VE78VH9SWP40RH17ALIODZR", "dateTime": 1519252402686}, {"current_trial": 30, "trialdata": {"rt": 718.6666666666497, "trial_type": "single-audio", "word": "daisy", "stimulus": "/static/audio/wordpool/DAISY.wav", "conditions": [18, 1200, "a", 18000], "internal_node_id": "0.0-21.0", "trial": 0, "time_elapsed": 275195, "serialpos": 9, "key_press": 72, "wordID": 434, "type": "PRES_AUD", "trial_index": 30}, "uniqueid": "MTK2719:3OVHNO1VE78VH9SWP40RH17ALIODZR", "dateTime": 1519252404824}, {"current_trial": 31, "trialdata": {"rt": -20.000000000038654, "trial_type": "single-audio", "word": "playground", "stimulus": "/static/audio/wordpool/PLAYGROUND.wav", "conditions": [18, 1200, "a", 18000], "internal_node_id": "0.0-22.0", "trial": 0, "time_elapsed": 277594, "serialpos": 10, "key_press": 72, "wordID": 1086, "type": "PRES_AUD", "trial_index": 31}, "uniqueid": "MTK2719:3OVHNO1VE78VH9SWP40RH17ALIODZR", "dateTime": 1519252407223}, {"current_trial": 32, "trialdata": {"rt": -49.33333333332257, "trial_type": "single-audio", "word": "guard", "stimulus": "/static/audio/wordpool/GUARD.wav", "conditions": [18, 1200, "a", 18000], "internal_node_id": "0.0-23.0", "trial": 0, "time_elapsed": 279793, "serialpos": 11, "key_press": 78, "wordID": 666, "type": "PRES_AUD", "trial_index": 32}, "uniqueid": "MTK2719:3OVHNO1VE78VH9SWP40RH17ALIODZR", "dateTime": 1519252409422}, {"current_trial": 33, "trialdata": {"rt": 190.66666666668652, "trial_type": "single-audio", "word": "cafe", "stimulus": "/static/audio/wordpool/CAFE.wav", "conditions": [18, 1200, "a", 18000], "internal_node_id": "0.0-24.0", "trial": 0, "time_elapsed": 282123, "serialpos": 12, "key_press": 80, "wordID": 215, "type": "PRES_AUD", "trial_index": 33}, "uniqueid": "MTK2719:3OVHNO1VE78VH9SWP40RH17ALIODZR", "dateTime": 1519252411752}, {"current_trial": 34, "trialdata": {"rt": -41.333333333341216, "trial_type": "single-audio", "word": "cellar", "stimulus": "/static/audio/wordpool/CELLAR.wav", "conditions": [18, 1200, "a", 18000], "internal_node_id": "0.0-25.0", "trial": 0, "time_elapsed": 284505, "serialpos": 13, "key_press": 85, "wordID": 266, "type": "PRES_AUD", "trial_index": 34}, "uniqueid": "MTK2719:3OVHNO1VE78VH9SWP40RH17ALIODZR", "dateTime": 1519252414134}, {"current_trial": 35, "trialdata": {"rt": 60.000000000002274, "trial_type": "single-audio", "word": "perfume", "stimulus": "/static/audio/wordpool/PERFUME.wav", "conditions": [18, 1200, "a", 18000], "internal_node_id": "0.0-26.0", "trial": 0, "time_elapsed": 286876, "serialpos": 14, "key_press": 69, "wordID": 1048, "type": "PRES_AUD", "trial_index": 35}, "uniqueid": "MTK2719:3OVHNO1VE78VH9SWP40RH17ALIODZR", "dateTime": 1519252416505}, {"current_trial": 36, "trialdata": {"rt": 49.33333333332257, "trial_type": "single-audio", "word": "supper", "stimulus": "/static/audio/wordpool/SUPPER.wav", "conditions": [18, 1200, "a", 18000], "internal_node_id": "0.0-27.0", "trial": 0, "time_elapsed": 289090, "serialpos": 15, "key_press": 76, "wordID": 1410, "type": "PRES_AUD", "trial_index": 36}, "uniqueid": "MTK2719:3OVHNO1VE78VH9SWP40RH17ALIODZR", "dateTime": 1519252418719}, {"current_trial": 37, "trialdata": {"rt": -49.333333333379414, "trial_type": "single-audio", "word": "muffin", "stimulus": "/static/audio/wordpool/MUFFIN.wav", "conditions": [18, 1200, "a", 18000], "internal_node_id": "0.0-28.0", "trial": 0, "time_elapsed": 291228, "serialpos": 16, "key_press": 85, "wordID": 928, "type": "PRES_AUD", "trial_index": 37}, "uniqueid": "MTK2719:3OVHNO1VE78VH9SWP40RH17ALIODZR", "dateTime": 1519252420857}, {"current_trial": 38, "trialdata": {"rt": 291.99999999997317, "trial_type": "single-audio", "word": "beaker", "stimulus": "/static/audio/wordpool/BEAKER.wav", "conditions": [18, 1200, "a", 18000], "internal_node_id": "0.0-29.0", "trial": 0, "time_elapsed": 293403, "serialpos": 17, "key_press": 70, "wordID": 103, "type": "PRES_AUD", "trial_index": 38}, "uniqueid": "MTK2719:3OVHNO1VE78VH9SWP40RH17ALIODZR", "dateTime": 1519252423032}, {"current_trial": 39, "trialdata": {"rt": 62, "trial_type": "single-stim", "stimulus": "", "internal_node_id": "0.0-30.0-0.0", "time_elapsed": 294689, "key_press": 69, "type": "PRE_RECALL_DELAY", "trial_index": 39}, "uniqueid": "MTK2719:3OVHNO1VE78VH9SWP40RH17ALIODZR", "dateTime": 1519252424318}, {"current_trial": 40, "trialdata": {"rt": 49.33333333332257, "trial_type": "single-audio", "stimulus": "/static/audio/400Hz.wav", "internal_node_id": "0.0-31.0", "time_elapsed": 295192, "key_press": 32, "type": "PRE_RECALL_ALERT", "trial_index": 40}, "uniqueid": "MTK2719:3OVHNO1VE78VH9SWP40RH17ALIODZR", "dateTime": 1519252424821}, {"current_trial": 41, "trialdata": {"rt": [6919, 9444, 12804, 15712, 18804, 27238, 35355, 42615, 45358, 47246, 58663], "recwords": ["supper", "perfume", "mattress", "husband", "beaker", "guard", "daisy", "husband", "mattress", "daisy", "guitar"], "key_times": [5164, 5377, 6012, 6197, 6441, 6687, 6919, 7279, 7470, 7710, 8030, 8267, 8569, 9030, 9444, 9871, 10026, 10350, 10538, 10766, 10960, 11230, 12125, 12804, 13210, 13439, 13634, 14624, 14811, 15103, 15350, 15712, 16891, 17116, 17313, 17660, 17827, 18126, 18804, 24803, 25033, 25210, 25460, 25749, 27238, 33402, 33607, 33857, 34026, 34382, 35355, 39412, 39623, 40128, 40774, 40978, 41295, 41709, 42615, 43097, 43281, 43626, 43831, 44041, 44256, 44506, 44705, 45358, 45776, 46039, 46313, 46563, 46898, 47246, 56543, 56772, 57153, 57479, 57679, 57986, 58663], "trial_type": "free-recall", "conditions": [18, 1200, "a", 18000], "internal_node_id": "0.0-32.0-0.0", "key_presses": [83, 85, 80, 80, 69, 82, 32, 80, 69, 82, 70, 85, 77, 69, 32, 77, 65, 84, 84, 82, 69, 83, 83, 32, 72, 85, 83, 66, 65, 78, 68, 32, 66, 69, 65, 75, 69, 82, 32, 71, 85, 65, 82, 68, 13, 68, 65, 73, 83, 89, 13, 72, 85, 83, 66, 65, 78, 68, 13, 77, 65, 84, 84, 82, 69, 83, 83, 13, 68, 65, 73, 83, 89, 32, 71, 85, 73, 84, 65, 82, 13], "trial": 0, "time_elapsed": 355198, "type": "FREE_RECALL", "trial_index": 41}, "uniqueid": "MTK2719:3OVHNO1VE78VH9SWP40RH17ALIODZR", "dateTime": 1519252484831}, {"current_trial": 42, "trialdata": {"rt": 2331, "trial_type": "text", "internal_node_id": "0.0-33.0", "time_elapsed": 359535, "key_press": 13, "type": "INSTRUCTIONS", "trial_index": 42}, "uniqueid": "MTK2719:3OVHNO1VE78VH9SWP40RH17ALIODZR", "dateTime": 1519252489164}, {"current_trial": 43, "trialdata": {"rt": [3088, 7019, 10878], "trial_type": "math-distractor", "key_times": [2406, 3088, 5491, 6009, 7019, 10021, 10209, 10878], "responses": ["9", "13", "14"], "num2": [4, 6, 4, 8], "num3": [4, 4, 6, 6], "conditions": [18, 1200, "a", 18000], "internal_node_id": "0.0-34.0", "key_presses": [105, 13, 97, 99, 13, 97, 100, 13], "trial": 1, "time_elapsed": 379541, "type": "DISTRACTOR", "trial_index": 43, "num1": [1, 3, 4, 6]}, "uniqueid": "MTK2719:3OVHNO1VE78VH9SWP40RH17ALIODZR", "dateTime": 1519252509170}, {"current_trial": 44, "trialdata": {"rt": -1, "trial_type": "single-stim", "stimulus": "<p id=\"stim\">10</p>", "internal_node_id": "0.0-35.0-0.0", "time_elapsed": 382546, "key_press": -1, "trial_index": 44}, "uniqueid": "MTK2719:3OVHNO1VE78VH9SWP40RH17ALIODZR", "dateTime": 1519252512175}, {"current_trial": 45, "trialdata": {"rt": -1, "trial_type": "single-stim", "stimulus": "<p id=\"stim\">9</p>", "internal_node_id": "0.0-35.0-1.0", "time_elapsed": 383548, "key_press": -1, "trial_index": 45}, "uniqueid": "MTK2719:3OVHNO1VE78VH9SWP40RH17ALIODZR", "dateTime": 1519252513178}, {"current_trial": 46, "trialdata": {"rt": -1, "trial_type": "single-stim", "stimulus": "<p id=\"stim\">8</p>", "internal_node_id": "0.0-35.0-2.0", "time_elapsed": 384551, "key_press": -1, "trial_index": 46}, "uniqueid": "MTK2719:3OVHNO1VE78VH9SWP40RH17ALIODZR", "dateTime": 1519252514180}, {"current_trial": 47, "trialdata": {"rt": -1, "trial_type": "single-stim", "stimulus": "<p id=\"stim\">7</p>", "internal_node_id": "0.0-35.0-3.0", "time_elapsed": 385554, "key_press": -1, "trial_index": 47}, "uniqueid": "MTK2719:3OVHNO1VE78VH9SWP40RH17ALIODZR", "dateTime": 1519252515183}, {"current_trial": 48, "trialdata": {"rt": -1, "trial_type": "single-stim", "stimulus": "<p id=\"stim\">6</p>", "internal_node_id": "0.0-35.0-4.0", "time_elapsed": 386556, "key_press": -1, "trial_index": 48}, "uniqueid": "MTK2719:3OVHNO1VE78VH9SWP40RH17ALIODZR", "dateTime": 1519252516185}, {"current_trial": 49, "trialdata": {"rt": -1, "trial_type": "single-stim", "stimulus": "<p id=\"stim\">5</p>", "internal_node_id": "0.0-35.0-5.0", "time_elapsed": 387559, "key_press": -1, "trial_index": 49}, "uniqueid": "MTK2719:3OVHNO1VE78VH9SWP40RH17ALIODZR", "dateTime": 1519252517188}, {"current_trial": 50, "trialdata": {"rt": -1, "trial_type": "single-stim", "stimulus": "<p id=\"stim\">4</p>", "internal_node_id": "0.0-35.0-6.0", "time_elapsed": 388562, "key_press": -1, "trial_index": 50}, "uniqueid": "MTK2719:3OVHNO1VE78VH9SWP40RH17ALIODZR", "dateTime": 1519252518191}, {"current_trial": 51, "trialdata": {"rt": -1, "trial_type": "single-stim", "stimulus": "<p id=\"stim\">3</p>", "internal_node_id": "0.0-35.0-7.0", "time_elapsed": 389564, "key_press": -1, "trial_index": 51}, "uniqueid": "MTK2719:3OVHNO1VE78VH9SWP40RH17ALIODZR", "dateTime": 1519252519193}, {"current_trial": 52, "trialdata": {"rt": -1, "trial_type": "single-stim", "stimulus": "<p id=\"stim\">2</p>", "internal_node_id": "0.0-35.0-8.0", "time_elapsed": 390566, "key_press": -1, "trial_index": 52}, "uniqueid": "MTK2719:3OVHNO1VE78VH9SWP40RH17ALIODZR", "dateTime": 1519252520195}, {"current_trial": 53, "trialdata": {"rt": -1, "trial_type": "single-stim", "stimulus": "<p id=\"stim\">1</p>", "internal_node_id": "0.0-35.0-9.0", "time_elapsed": 391568, "key_press": -1, "trial_index": 53}, "uniqueid": "MTK2719:3OVHNO1VE78VH9SWP40RH17ALIODZR", "dateTime": 1519252521198}, {"current_trial": 54, "trialdata": {"rt": -1, "trial_type": "single-stim", "stimulus": "<p id=\"stim\">+</p>", "internal_node_id": "0.0-36.0-0.0", "time_elapsed": 393071, "key_press": -1, "type": "FIXATION", "trial_index": 54}, "uniqueid": "MTK2719:3OVHNO1VE78VH9SWP40RH17ALIODZR", "dateTime": 1519252522700}, {"current_trial": 55, "trialdata": {"rt": -1000, "trial_type": "single-audio", "word": "padding", "stimulus": "/static/audio/wordpool/PADDING.wav", "conditions": [18, 1200, "a", 18000], "internal_node_id": "0.0-37.0", "trial": 1, "time_elapsed": 395218, "serialpos": 0, "key_press": -1, "wordID": 998, "type": "PRES_AUD", "trial_index": 55}, "uniqueid": "MTK2719:3OVHNO1VE78VH9SWP40RH17ALIODZR", "dateTime": 1519252524847}, {"current_trial": 56, "trialdata": {"rt": -1000, "trial_type": "single-audio", "word": "whiskers", "stimulus": "/static/audio/wordpool/WHISKERS.wav", "conditions": [18, 1200, "a", 18000], "internal_node_id": "0.0-38.0", "trial": 1, "time_elapsed": 397551, "serialpos": 1, "key_press": -1, "wordID": 1604, "type": "PRES_AUD", "trial_index": 56}, "uniqueid": "MTK2719:3OVHNO1VE78VH9SWP40RH17ALIODZR", "dateTime": 1519252527180}, {"current_trial": 57, "trialdata": {"rt": -1000, "trial_type": "single-audio", "word": "flower", "stimulus": "/static/audio/wordpool/FLOWER.wav", "conditions": [18, 1200, "a", 18000], "internal_node_id": "0.0-39.0", "trial": 1, "time_elapsed": 399718, "serialpos": 2, "key_press": -1, "wordID": 583, "type": "PRES_AUD", "trial_index": 57}, "uniqueid": "MTK2719:3OVHNO1VE78VH9SWP40RH17ALIODZR", "dateTime": 1519252529348}, {"current_trial": 58, "trialdata": {"rt": -1000, "trial_type": "single-audio", "word": "saddle", "stimulus": "/static/audio/wordpool/SADDLE.wav", "conditions": [18, 1200, "a", 18000], "internal_node_id": "0.0-40.0", "trial": 1, "time_elapsed": 402056, "serialpos": 3, "key_press": -1, "wordID": 1220, "type": "PRES_AUD", "trial_index": 58}, "uniqueid": "MTK2719:3OVHNO1VE78VH9SWP40RH17ALIODZR", "dateTime": 1519252531685}, {"current_trial": 59, "trialdata": {"rt": -1000, "trial_type": "single-audio", "word": "pepper", "stimulus": "/static/audio/wordpool/PEPPER.wav", "conditions": [18, 1200, "a", 18000], "internal_node_id": "0.0-41.0", "trial": 1, "time_elapsed": 404228, "serialpos": 4, "key_press": -1, "wordID": 1046, "type": "PRES_AUD", "trial_index": 59}, "uniqueid": "MTK2719:3OVHNO1VE78VH9SWP40RH17ALIODZR", "dateTime": 1519252533857}, {"current_trial": 60, "trialdata": {"rt": -1000, "trial_type": "single-audio", "word": "market", "stimulus": "/static/audio/wordpool/MARKET.wav", "conditions": [18, 1200, "a", 18000], "internal_node_id": "0.0-42.0", "trial": 1, "time_elapsed": 406287, "serialpos": 5, "key_press": -1, "wordID": 870, "type": "PRES_AUD", "trial_index": 60}, "uniqueid": "MTK2719:3OVHNO1VE78VH9SWP40RH17ALIODZR", "dateTime": 1519252535916}, {"current_trial": 61, "trialdata": {"rt": -1000, "trial_type": "single-audio", "word": "fleet", "stimulus": "/static/audio/wordpool/FLEET.wav", "conditions": [18, 1200, "a", 18000], "internal_node_id": "0.0-43.0", "trial": 1, "time_elapsed": 408408, "serialpos": 6, "key_press": -1, "wordID": 577, "type": "PRES_AUD", "trial_index": 61}, "uniqueid": "MTK2719:3OVHNO1VE78VH9SWP40RH17ALIODZR", "dateTime": 1519252538037}, {"current_trial": 62, "trialdata": {"rt": -1000, "trial_type": "single-audio", "word": "permit", "stimulus": "/static/audio/wordpool/PERMIT.wav", "conditions": [18, 1200, "a", 18000], "internal_node_id": "0.0-44.0", "trial": 1, "time_elapsed": 410704, "serialpos": 7, "key_press": -1, "wordID": 1050, "type": "PRES_AUD", "trial_index": 62}, "uniqueid": "MTK2719:3OVHNO1VE78VH9SWP40RH17ALIODZR", "dateTime": 1519252540333}, {"current_trial": 63, "trialdata": {"rt": -1000, "trial_type": "single-audio", "word": "france", "stimulus": "/static/audio/wordpool/FRANCE.wav", "conditions": [18, 1200, "a", 18000], "internal_node_id": "0.0-45.0", "trial": 1, "time_elapsed": 412759, "serialpos": 8, "key_press": -1, "wordID": 600, "type": "PRES_AUD", "trial_index": 63}, "uniqueid": "MTK2719:3OVHNO1VE78VH9SWP40RH17ALIODZR", "dateTime": 1519252542388}, {"current_trial": 64, "trialdata": {"rt": -1000, "trial_type": "single-audio", "word": "denim", "stimulus": "/static/audio/wordpool/DENIM.wav", "conditions": [18, 1200, "a", 18000], "internal_node_id": "0.0-46.0", "trial": 1, "time_elapsed": 414990, "serialpos": 9, "key_press": -1, "wordID": 445, "type": "PRES_AUD", "trial_index": 64}, "uniqueid": "MTK2719:3OVHNO1VE78VH9SWP40RH17ALIODZR", "dateTime": 1519252544619}, {"current_trial": 65, "trialdata": {"rt": -1000, "trial_type": "single-audio", "word": "airplane", "stimulus": "/static/audio/wordpool/AIRPLANE.wav", "conditions": [18, 1200, "a", 18000], "internal_node_id": "0.0-47.0", "trial": 1, "time_elapsed": 417077, "serialpos": 10, "key_press": -1, "wordID": 11, "type": "PRES_AUD", "trial_index": 65}, "uniqueid": "MTK2719:3OVHNO1VE78VH9SWP40RH17ALIODZR", "dateTime": 1519252546706}, {"current_trial": 66, "trialdata": {"rt": -1000, "trial_type": "single-audio", "word": "scarf", "stimulus": "/static/audio/wordpool/SCARF.wav", "conditions": [18, 1200, "a", 18000], "internal_node_id": "0.0-48.0", "trial": 1, "time_elapsed": 419263, "serialpos": 11, "key_press": -1, "wordID": 1245, "type": "PRES_AUD", "trial_index": 66}, "uniqueid": "MTK2719:3OVHNO1VE78VH9SWP40RH17ALIODZR", "dateTime": 1519252548893}, {"current_trial": 67, "trialdata": {"rt": -1000, "trial_type": "single-audio", "word": "dolphin", "stimulus": "/static/audio/wordpool/DOLPHIN.wav", "conditions": [18, 1200, "a", 18000], "internal_node_id": "0.0-49.0", "trial": 1, "time_elapsed": 421350, "serialpos": 12, "key_press": -1, "wordID": 482, "type": "PRES_AUD", "trial_index": 67}, "uniqueid": "MTK2719:3OVHNO1VE78VH9SWP40RH17ALIODZR", "dateTime": 1519252550981}, {"current_trial": 68, "trialdata": {"rt": -1000, "trial_type": "single-audio", "word": "ox", "stimulus": "/static/audio/wordpool/OX.wav", "conditions": [18, 1200, "a", 18000], "internal_node_id": "0.0-50.0", "trial": 1, "time_elapsed": 423628, "serialpos": 13, "key_press": -1, "wordID": 993, "type": "PRES_AUD", "trial_index": 68}, "uniqueid": "MTK2719:3OVHNO1VE78VH9SWP40RH17ALIODZR", "dateTime": 1519252553257}, {"current_trial": 69, "trialdata": {"rt": -1000, "trial_type": "single-audio", "word": "message", "stimulus": "/static/audio/wordpool/MESSAGE.wav", "conditions": [18, 1200, "a", 18000], "internal_node_id": "0.0-51.0", "trial": 1, "time_elapsed": 425753, "serialpos": 14, "key_press": -1, "wordID": 887, "type": "PRES_AUD", "trial_index": 69}, "uniqueid": "MTK2719:3OVHNO1VE78VH9SWP40RH17ALIODZR", "dateTime": 1519252555382}, {"current_trial": 70, "trialdata": {"rt": -1000, "trial_type": "single-audio", "word": "uncle", "stimulus": "/static/audio/wordpool/UNCLE.wav", "conditions": [18, 1200, "a", 18000], "internal_node_id": "0.0-52.0", "trial": 1, "time_elapsed": 428118, "serialpos": 15, "key_press": -1, "wordID": 1535, "type": "PRES_AUD", "trial_index": 70}, "uniqueid": "MTK2719:3OVHNO1VE78VH9SWP40RH17ALIODZR", "dateTime": 1519252557748}, {"current_trial": 71, "trialdata": {"rt": -1000, "trial_type": "single-audio", "word": "hound", "stimulus": "/static/audio/wordpool/HOUND.wav", "conditions": [18, 1200, "a", 18000], "internal_node_id": "0.0-53.0", "trial": 1, "time_elapsed": 430375, "serialpos": 16, "key_press": -1, "wordID": 723, "type": "PRES_AUD", "trial_index": 71}, "uniqueid": "MTK2719:3OVHNO1VE78VH9SWP40RH17ALIODZR", "dateTime": 1519252560004}, {"current_trial": 72, "trialdata": {"rt": -1000, "trial_type": "single-audio", "word": "bubble", "stimulus": "/static/audio/wordpool/BUBBLE.wav", "conditions": [18, 1200, "a", 18000], "internal_node_id": "0.0-54.0", "trial": 1, "time_elapsed": 432715, "serialpos": 17, "key_press": -1, "wordID": 182, "type": "PRES_AUD", "trial_index": 72}, "uniqueid": "MTK2719:3OVHNO1VE78VH9SWP40RH17ALIODZR", "dateTime": 1519252562344}, {"current_trial": 73, "trialdata": {"rt": -1, "trial_type": "single-stim", "stimulus": "", "internal_node_id": "0.0-55.0-0.0", "time_elapsed": 434032, "key_press": -1, "type": "PRE_RECALL_DELAY", "trial_index": 73}, "uniqueid": "MTK2719:3OVHNO1VE78VH9SWP40RH17ALIODZR", "dateTime": 1519252563661}, {"current_trial": 74, "trialdata": {"rt": -1000, "trial_type": "single-audio", "stimulus": "/static/audio/400Hz.wav", "internal_node_id": "0.0-56.0", "time_elapsed": 434538, "key_press": -1, "type": "PRE_RECALL_ALERT", "trial_index": 74}, "uniqueid": "MTK2719:3OVHNO1VE78VH9SWP40RH17ALIODZR", "dateTime": 1519252564167}, {"current_trial": 75, "trialdata": {"rt": [4186, 6172, 8714, 13437, 15970, 39277], "recwords": ["bubble", "hound", "uncle", "pepper", "flower", "message"], "key_times": [1822, 2035, 2869, 3051, 3449, 3670, 4186, 4565, 4728, 4966, 5222, 5456, 6172, 6854, 7100, 7603, 7849, 8061, 8714, 9785, 9984, 12082, 12262, 12464, 12745, 13437, 14325, 14541, 14739, 15013, 15273, 15532, 15970, 35496, 35682, 36314, 36520, 36757, 37048, 37978, 38194, 38402, 39277], "trial_type": "free-recall", "conditions": [18, 1200, "a", 18000], "internal_node_id": "0.0-57.0-0.0", "key_presses": [66, 85, 66, 66, 76, 69, 13, 72, 79, 85, 78, 68, 13, 85, 78, 67, 76, 69, 13, 80, 69, 80, 80, 69, 82, 13, 70, 76, 79, 87, 69, 82, 13, 77, 69, 83, 83, 65, 70, 8, 71, 69, 13], "trial": 1, "time_elapsed": 494544, "type": "FREE_RECALL", "trial_index": 75}, "uniqueid": "MTK2719:3OVHNO1VE78VH9SWP40RH17ALIODZR", "dateTime": 1519252624178}, {"current_trial": 76, "trialdata": {"rt": 6585, "trial_type": "text", "internal_node_id": "0.0-58.0", "time_elapsed": 503136, "key_press": 13, "type": "INSTRUCTIONS", "trial_index": 76}, "uniqueid": "MTK2719:3OVHNO1VE78VH9SWP40RH17ALIODZR", "dateTime": 1519252632765}, {"current_trial": 77, "trialdata": {"rt": [3208, 7619], "trial_type": "math-distractor", "key_times": [2361, 2531, 3208, 6638, 6809, 7619], "responses": ["11", "14"], "num2": [4, 1, 9], "num3": [2, 7, 3], "conditions": [24, 800, "a", 12000], "internal_node_id": "0.0-59.0", "key_presses": [97, 97, 13, 97, 100, 13], "trial": 2, "time_elapsed": 516141, "type": "DISTRACTOR", "trial_index": 77, "num1": [5, 6, 5]}, "uniqueid": "MTK2719:3OVHNO1VE78VH9SWP40RH17ALIODZR", "dateTime": 1519252645771}, {"current_trial": 78, "trialdata": {"rt": -1, "trial_type": "single-stim", "stimulus": "<p id=\"stim\">10</p>", "internal_node_id": "0.0-60.0-0.0", "time_elapsed": 519144, "key_press": -1, "trial_index": 78}, "uniqueid": "MTK2719:3OVHNO1VE78VH9SWP40RH17ALIODZR", "dateTime": 1519252648773}, {"current_trial": 79, "trialdata": {"rt": -1, "trial_type": "single-stim", "stimulus": "<p id=\"stim\">9</p>", "internal_node_id": "0.0-60.0-1.0", "time_elapsed": 520146, "key_press": -1, "trial_index": 79}, "uniqueid": "MTK2719:3OVHNO1VE78VH9SWP40RH17ALIODZR", "dateTime": 1519252649775}, {"current_trial": 80, "trialdata": {"rt": -1, "trial_type": "single-stim", "stimulus": "<p id=\"stim\">8</p>", "internal_node_id": "0.0-60.0-2.0", "time_elapsed": 521148, "key_press": -1, "trial_index": 80}, "uniqueid": "MTK2719:3OVHNO1VE78VH9SWP40RH17ALIODZR", "dateTime": 1519252650777}, {"current_trial": 81, "trialdata": {"rt": -1, "trial_type": "single-stim", "stimulus": "<p id=\"stim\">7</p>", "internal_node_id": "0.0-60.0-3.0", "time_elapsed": 522150, "key_press": -1, "trial_index": 81}, "uniqueid": "MTK2719:3OVHNO1VE78VH9SWP40RH17ALIODZR", "dateTime": 1519252651779}, {"current_trial": 82, "trialdata": {"rt": -1, "trial_type": "single-stim", "stimulus": "<p id=\"stim\">6</p>", "internal_node_id": "0.0-60.0-4.0", "time_elapsed": 523152, "key_press": -1, "trial_index": 82}, "uniqueid": "MTK2719:3OVHNO1VE78VH9SWP40RH17ALIODZR", "dateTime": 1519252652782}, {"current_trial": 83, "trialdata": {"rt": -1, "trial_type": "single-stim", "stimulus": "<p id=\"stim\">5</p>", "internal_node_id": "0.0-60.0-5.0", "time_elapsed": 524155, "key_press": -1, "trial_index": 83}, "uniqueid": "MTK2719:3OVHNO1VE78VH9SWP40RH17ALIODZR", "dateTime": 1519252653784}, {"current_trial": 84, "trialdata": {"rt": -1, "trial_type": "single-stim", "stimulus": "<p id=\"stim\">4</p>", "internal_node_id": "0.0-60.0-6.0", "time_elapsed": 525157, "key_press": -1, "trial_index": 84}, "uniqueid": "MTK2719:3OVHNO1VE78VH9SWP40RH17ALIODZR", "dateTime": 1519252654786}, {"current_trial": 85, "trialdata": {"rt": -1, "trial_type": "single-stim", "stimulus": "<p id=\"stim\">3</p>", "internal_node_id": "0.0-60.0-7.0", "time_elapsed": 526158, "key_press": -1, "trial_index": 85}, "uniqueid": "MTK2719:3OVHNO1VE78VH9SWP40RH17ALIODZR", "dateTime": 1519252655788}, {"current_trial": 86, "trialdata": {"rt": -1, "trial_type": "single-stim", "stimulus": "<p id=\"stim\">2</p>", "internal_node_id": "0.0-60.0-8.0", "time_elapsed": 527161, "key_press": -1, "trial_index": 86}, "uniqueid": "MTK2719:3OVHNO1VE78VH9SWP40RH17ALIODZR", "dateTime": 1519252656790}, {"current_trial": 87, "trialdata": {"rt": -1, "trial_type": "single-stim", "stimulus": "<p id=\"stim\">1</p>", "internal_node_id": "0.0-60.0-9.0", "time_elapsed": 528163, "key_press": -1, "trial_index": 87}, "uniqueid": "MTK2719:3OVHNO1VE78VH9SWP40RH17ALIODZR", "dateTime": 1519252657797}, {"current_trial": 88, "trialdata": {"rt": -1, "trial_type": "single-stim", "stimulus": "<p id=\"stim\">+</p>", "internal_node_id": "0.0-61.0-0.0", "time_elapsed": 529670, "key_press": -1, "type": "FIXATION", "trial_index": 88}, "uniqueid": "MTK2719:3OVHNO1VE78VH9SWP40RH17ALIODZR", "dateTime": 1519252659300}, {"current_trial": 89, "trialdata": {"rt": -1000, "trial_type": "single-audio", "word": "shortcake", "stimulus": "/static/audio/wordpool/SHORTCAKE.wav", "conditions": [24, 800, "a", 12000], "internal_node_id": "0.0-62.0", "trial": 2, "time_elapsed": 531378, "serialpos": 0, "key_press": -1, "wordID": 1291, "type": "PRES_AUD", "trial_index": 89}, "uniqueid": "MTK2719:3OVHNO1VE78VH9SWP40RH17ALIODZR", "dateTime": 1519252661009}, {"current_trial": 90, "trialdata": {"rt": -1000, "trial_type": "single-audio", "word": "coffee", "stimulus": "/static/audio/wordpool/COFFEE.wav", "conditions": [24, 800, "a", 12000], "internal_node_id": "0.0-63.0", "trial": 2, "time_elapsed": 533104, "serialpos": 1, "key_press": -1, "wordID": 340, "type": "PRES_AUD", "trial_index": 90}, "uniqueid": "MTK2719:3OVHNO1VE78VH9SWP40RH17ALIODZR", "dateTime": 1519252662734}, {"current_trial": 91, "trialdata": {"rt": -1000, "trial_type": "single-audio", "word": "victim", "stimulus": "/static/audio/wordpool/VICTIM.wav", "conditions": [24, 800, "a", 12000], "internal_node_id": "0.0-64.0", "trial": 2, "time_elapsed": 534972, "serialpos": 2, "key_press": -1, "wordID": 1561, "type": "PRES_AUD", "trial_index": 91}, "uniqueid": "MTK2719:3OVHNO1VE78VH9SWP40RH17ALIODZR", "dateTime": 1519252664601}, {"current_trial": 92, "trialdata": {"rt": -1000, "trial_type": "single-audio", "word": "quail", "stimulus": "/static/audio/wordpool/QUAIL.wav", "conditions": [24, 800, "a", 12000], "internal_node_id": "0.0-65.0", "trial": 2, "time_elapsed": 536596, "serialpos": 3, "key_press": -1, "wordID": 1146, "type": "PRES_AUD", "trial_index": 92}, "uniqueid": "MTK2719:3OVHNO1VE78VH9SWP40RH17ALIODZR", "dateTime": 1519252666225}, {"current_trial": 93, "trialdata": {"rt": -1000, "trial_type": "single-audio", "word": "cousin", "stimulus": "/static/audio/wordpool/COUSIN.wav", "conditions": [24, 800, "a", 12000], "internal_node_id": "0.0-66.0", "trial": 2, "time_elapsed": 538344, "serialpos": 4, "key_press": -1, "wordID": 391, "type": "PRES_AUD", "trial_index": 93}, "uniqueid": "MTK2719:3OVHNO1VE78VH9SWP40RH17ALIODZR", "dateTime": 1519252667973}, {"current_trial": 94, "trialdata": {"rt": -1000, "trial_type": "single-audio", "word": "knapsack", "stimulus": "/static/audio/wordpool/KNAPSACK.wav", "conditions": [24, 800, "a", 12000], "internal_node_id": "0.0-67.0", "trial": 2, "time_elapsed": 540349, "serialpos": 5, "key_press": -1, "wordID": 782, "type": "PRES_AUD", "trial_index": 94}, "uniqueid": "MTK2719:3OVHNO1VE78VH9SWP40RH17ALIODZR", "dateTime": 1519252669979}, {"current_trial": 95, "trialdata": {"rt": -1000, "trial_type": "single-audio", "word": "sunset", "stimulus": "/static/audio/wordpool/SUNSET.wav", "conditions": [24, 800, "a", 12000], "internal_node_id": "0.0-68.0", "trial": 2, "time_elapsed": 542128, "serialpos": 6, "key_press": -1, "wordID": 1407, "type": "PRES_AUD", "trial_index": 95}, "uniqueid": "MTK2719:3OVHNO1VE78VH9SWP40RH17ALIODZR", "dateTime": 1519252671757}, {"current_trial": 96, "trialdata": {"rt": -1000, "trial_type": "single-audio", "word": "dancer", "stimulus": "/static/audio/wordpool/DANCER.wav", "conditions": [24, 800, "a", 12000], "internal_node_id": "0.0-69.0", "trial": 2, "time_elapsed": 544095, "serialpos": 7, "key_press": -1, "wordID": 436, "type": "PRES_AUD", "trial_index": 96}, "uniqueid": "MTK2719:3OVHNO1VE78VH9SWP40RH17ALIODZR", "dateTime": 1519252673724}, {"current_trial": 97, "trialdata": {"rt": -1000, "trial_type": "single-audio", "word": "gymnast", "stimulus": "/static/audio/wordpool/GYMNAST.wav", "conditions": [24, 800, "a", 12000], "internal_node_id": "0.0-70.0", "trial": 2, "time_elapsed": 545724, "serialpos": 8, "key_press": -1, "wordID": 674, "type": "PRES_AUD", "trial_index": 97}, "uniqueid": "MTK2719:3OVHNO1VE78VH9SWP40RH17ALIODZR", "dateTime": 1519252675353}, {"current_trial": 98, "trialdata": {"rt": -1000, "trial_type": "single-audio", "word": "champagne", "stimulus": "/static/audio/wordpool/CHAMPAGNE.wav", "conditions": [24, 800, "a", 12000], "internal_node_id": "0.0-71.0", "trial": 2, "time_elapsed": 547694, "serialpos": 9, "key_press": -1, "wordID": 277, "type": "PRES_AUD", "trial_index": 98}, "uniqueid": "MTK2719:3OVHNO1VE78VH9SWP40RH17ALIODZR", "dateTime": 1519252677323}, {"current_trial": 99, "trialdata": {"rt": -1000, "trial_type": "single-audio", "word": "scarecrow", "stimulus": "/static/audio/wordpool/SCARECROW.wav", "conditions": [24, 800, "a", 12000], "internal_node_id": "0.0-72.0", "trial": 2, "time_elapsed": 549560, "serialpos": 10, "key_press": -1, "wordID": 1244, "type": "PRES_AUD", "trial_index": 99}, "uniqueid": "MTK2719:3OVHNO1VE78VH9SWP40RH17ALIODZR", "dateTime": 1519252679189}, {"current_trial": 100, "trialdata": {"rt": -1000, "trial_type": "single-audio", "word": "pastry", "stimulus": "/static/audio/wordpool/PASTRY.wav", "conditions": [24, 800, "a", 12000], "internal_node_id": "0.0-73.0", "trial": 2, "time_elapsed": 551545, "serialpos": 11, "key_press": -1, "wordID": 1021, "type": "PRES_AUD", "trial_index": 100}, "uniqueid": "MTK2719:3OVHNO1VE78VH9SWP40RH17ALIODZR", "dateTime": 1519252681175}, {"current_trial": 101, "trialdata": {"rt": -1000, "trial_type": "single-audio", "word": "island", "stimulus": "/static/audio/wordpool/ISLAND.wav", "conditions": [24, 800, "a", 12000], "internal_node_id": "0.0-74.0", "trial": 2, "time_elapsed": 553412, "serialpos": 12, "key_press": -1, "wordID": 744, "type": "PRES_AUD", "trial_index": 101}, "uniqueid": "MTK2719:3OVHNO1VE78VH9SWP40RH17ALIODZR", "dateTime": 1519252683041}, {"current_trial": 102, "trialdata": {"rt": -1000, "trial_type": "single-audio", "word": "liver", "stimulus": "/static/audio/wordpool/LIVER.wav", "conditions": [24, 800, "a", 12000], "internal_node_id": "0.0-75.0", "trial": 2, "time_elapsed": 555255, "serialpos": 13, "key_press": -1, "wordID": 832, "type": "PRES_AUD", "trial_index": 102}, "uniqueid": "MTK2719:3OVHNO1VE78VH9SWP40RH17ALIODZR", "dateTime": 1519252684884}, {"current_trial": 103, "trialdata": {"rt": -1000, "trial_type": "single-audio", "word": "brandy", "stimulus": "/static/audio/wordpool/BRANDY.wav", "conditions": [24, 800, "a", 12000], "internal_node_id": "0.0-76.0", "trial": 2, "time_elapsed": 557103, "serialpos": 14, "key_press": -1, "wordID": 168, "type": "PRES_AUD", "trial_index": 103}, "uniqueid": "MTK2719:3OVHNO1VE78VH9SWP40RH17ALIODZR", "dateTime": 1519252686734}, {"current_trial": 104, "trialdata": {"rt": -1000, "trial_type": "single-audio", "word": "scalpel", "stimulus": "/static/audio/wordpool/SCALPEL.wav", "conditions": [24, 800, "a", 12000], "internal_node_id": "0.0-77.0", "trial": 2, "time_elapsed": 558881, "serialpos": 15, "key_press": -1, "wordID": 1242, "type": "PRES_AUD", "trial_index": 104}, "uniqueid": "MTK2719:3OVHNO1VE78VH9SWP40RH17ALIODZR", "dateTime": 1519252688510}, {"current_trial": 105, "trialdata": {"rt": -1000, "trial_type": "single-audio", "word": "primate", "stimulus": "/static/audio/wordpool/PRIMATE.wav", "conditions": [24, 800, "a", 12000], "internal_node_id": "0.0-78.0", "trial": 2, "time_elapsed": 560553, "serialpos": 16, "key_press": -1, "wordID": 1122, "type": "PRES_AUD", "trial_index": 105}, "uniqueid": "MTK2719:3OVHNO1VE78VH9SWP40RH17ALIODZR", "dateTime": 1519252690182}, {"current_trial": 106, "trialdata": {"rt": -1000, "trial_type": "single-audio", "word": "suspect", "stimulus": "/static/audio/wordpool/SUSPECT.wav", "conditions": [24, 800, "a", 12000], "internal_node_id": "0.0-79.0", "trial": 2, "time_elapsed": 562461, "serialpos": 17, "key_press": -1, "wordID": 1414, "type": "PRES_AUD", "trial_index": 106}, "uniqueid": "MTK2719:3OVHNO1VE78VH9SWP40RH17ALIODZR", "dateTime": 1519252692090}, {"current_trial": 107, "trialdata": {"rt": -1000, "trial_type": "single-audio", "word": "thief", "stimulus": "/static/audio/wordpool/THIEF.wav", "conditions": [24, 800, "a", 12000], "internal_node_id": "0.0-80.0", "trial": 2, "time_elapsed": 564402, "serialpos": 18, "key_press": -1, "wordID": 1455, "type": "PRES_AUD", "trial_index": 107}, "uniqueid": "MTK2719:3OVHNO1VE78VH9SWP40RH17ALIODZR", "dateTime": 1519252694031}, {"current_trial": 108, "trialdata": {"rt": -1000, "trial_type": "single-audio", "word": "burglar", "stimulus": "/static/audio/wordpool/BURGLAR.wav", "conditions": [24, 800, "a", 12000], "internal_node_id": "0.0-81.0", "trial": 2, "time_elapsed": 566091, "serialpos": 19, "key_press": -1, "wordID": 199, "type": "PRES_AUD", "trial_index": 108}, "uniqueid": "MTK2719:3OVHNO1VE78VH9SWP40RH17ALIODZR", "dateTime": 1519252695721}, {"current_trial": 109, "trialdata": {"rt": -1000, "trial_type": "single-audio", "word": "cyclone", "stimulus": "/static/audio/wordpool/CYCLONE.wav", "conditions": [24, 800, "a", 12000], "internal_node_id": "0.0-82.0", "trial": 2, "time_elapsed": 567969, "serialpos": 20, "key_press": -1, "wordID": 430, "type": "PRES_AUD", "trial_index": 109}, "uniqueid": "MTK2719:3OVHNO1VE78VH9SWP40RH17ALIODZR", "dateTime": 1519252697598}, {"current_trial": 110, "trialdata": {"rt": -1000, "trial_type": "single-audio", "word": "spool", "stimulus": "/static/audio/wordpool/SPOOL.wav", "conditions": [24, 800, "a", 12000], "internal_node_id": "0.0-83.0", "trial": 2, "time_elapsed": 569701, "serialpos": 21, "key_press": -1, "wordID": 1355, "type": "PRES_AUD", "trial_index": 110}, "uniqueid": "MTK2719:3OVHNO1VE78VH9SWP40RH17ALIODZR", "dateTime": 1519252699330}, {"current_trial": 111, "trialdata": {"rt": -1000, "trial_type": "single-audio", "word": "robber", "stimulus": "/static/audio/wordpool/ROBBER.wav", "conditions": [24, 800, "a", 12000], "internal_node_id": "0.0-84.0", "trial": 2, "time_elapsed": 571410, "serialpos": 22, "key_press": -1, "wordID": 1196, "type": "PRES_AUD", "trial_index": 111}, "uniqueid": "MTK2719:3OVHNO1VE78VH9SWP40RH17ALIODZR", "dateTime": 1519252701039}, {"current_trial": 112, "trialdata": {"rt": -1000, "trial_type": "single-audio", "word": "blouse", "stimulus": "/static/audio/wordpool/BLOUSE.wav", "conditions": [24, 800, "a", 12000], "internal_node_id": "0.0-85.0", "trial": 2, "time_elapsed": 573212, "serialpos": 23, "key_press": -1, "wordID": 138, "type": "PRES_AUD", "trial_index": 112}, "uniqueid": "MTK2719:3OVHNO1VE78VH9SWP40RH17ALIODZR", "dateTime": 1519252702842}, {"current_trial": 113, "trialdata": {"rt": -1, "trial_type": "single-stim", "stimulus": "", "internal_node_id": "0.0-86.0-0.0", "time_elapsed": 574558, "key_press": -1, "type": "PRE_RECALL_DELAY", "trial_index": 113}, "uniqueid": "MTK2719:3OVHNO1VE78VH9SWP40RH17ALIODZR", "dateTime": 1519252704187}, {"current_trial": 114, "trialdata": {"rt": -1000, "trial_type": "single-audio", "stimulus": "/static/audio/400Hz.wav", "internal_node_id": "0.0-87.0", "time_elapsed": 575065, "key_press": -1, "type": "PRE_RECALL_ALERT", "trial_index": 114}, "uniqueid": "MTK2719:3OVHNO1VE78VH9SWP40RH17ALIODZR", "dateTime": 1519252704694}, {"current_trial": 115, "trialdata": {"rt": [5023, 7709, 10589, 14375, 16953, 22484, 26456, 39174], "recwords": ["rubber", "blouse", "primate", "champagne", "dancer", "knapsack", "gymnist", "blouse"], "key_times": [2613, 2890, 3462, 3638, 4306, 4546, 5023, 5462, 5752, 6147, 6442, 6731, 6995, 7709, 8376, 8608, 8885, 9203, 9400, 9773, 10022, 10589, 10917, 11263, 11509, 11833, 12394, 12593, 12936, 13387, 13637, 14375, 15011, 15250, 15482, 15746, 16024, 16341, 16953, 17549, 17778, 18019, 18495, 18755, 20686, 21185, 21515, 22484, 23132, 23506, 24129, 24787, 25022, 25220, 25621, 26456, 37298, 37521, 37777, 38113, 38353, 38671, 39174], "trial_type": "free-recall", "conditions": [24, 800, "a", 12000], "internal_node_id": "0.0-88.0-0.0", "key_presses": [82, 85, 66, 66, 69, 82, 13, 66, 76, 79, 85, 83, 69, 13, 80, 82, 73, 77, 65, 84, 69, 13, 67, 72, 65, 77, 80, 65, 71, 78, 69, 13, 68, 65, 78, 67, 69, 82, 13, 75, 78, 65, 80, 83, 65, 67, 75, 13, 71, 89, 77, 78, 73, 83, 84, 13, 66, 76, 79, 85, 83, 69, 13], "trial": 2, "time_elapsed": 635070, "type": "FREE_RECALL", "trial_index": 115}, "uniqueid": "MTK2719:3OVHNO1VE78VH9SWP40RH17ALIODZR", "dateTime": 1519252764702}, {"current_trial": 116, "trialdata": {"rt": 6544, "trial_type": "text", "internal_node_id": "0.0-89.0", "time_elapsed": 643619, "key_press": 13, "type": "INSTRUCTIONS", "trial_index": 116}, "uniqueid": "MTK2719:3OVHNO1VE78VH9SWP40RH17ALIODZR", "dateTime": 1519252773248}, {"current_trial": 117, "trialdata": {"rt": [2909, 5503, 9234, 12400, 17871], "trial_type": "math-distractor", "key_times": [2272, 2909, 4503, 4686, 5503, 7595, 7778, 9234, 11530, 12009, 12400, 17131, 17315, 17871], "responses": ["8", "18", "10", "16", "21"], "num2": [2, 6, 2, 4, 8, 5], "num3": [5, 6, 6, 2, 9, 9], "conditions": [12, 800, "a", 24000], "internal_node_id": "0.0-90.0", "key_presses": [104, 13, 97, 104, 13, 97, 96, 13, 97, 102, 13, 98, 97, 13], "trial": 3, "time_elapsed": 669624, "type": "DISTRACTOR", "trial_index": 117, "num1": [1, 6, 2, 9, 4, 2]}, "uniqueid": "MTK2719:3OVHNO1VE78VH9SWP40RH17ALIODZR", "dateTime": 1519252799253}, {"current_trial": 118, "trialdata": {"rt": -1, "trial_type": "single-stim", "stimulus": "<p id=\"stim\">10</p>", "internal_node_id": "0.0-91.0-0.0", "time_elapsed": 672627, "key_press": -1, "trial_index": 118}, "uniqueid": "MTK2719:3OVHNO1VE78VH9SWP40RH17ALIODZR", "dateTime": 1519252802256}, {"current_trial": 119, "trialdata": {"rt": -1, "trial_type": "single-stim", "stimulus": "<p id=\"stim\">9</p>", "internal_node_id": "0.0-91.0-1.0", "time_elapsed": 673630, "key_press": -1, "trial_index": 119}, "uniqueid": "MTK2719:3OVHNO1VE78VH9SWP40RH17ALIODZR", "dateTime": 1519252803259}, {"current_trial": 120, "trialdata": {"rt": -1, "trial_type": "single-stim", "stimulus": "<p id=\"stim\">8</p>", "internal_node_id": "0.0-91.0-2.0", "time_elapsed": 674632, "key_press": -1, "trial_index": 120}, "uniqueid": "MTK2719:3OVHNO1VE78VH9SWP40RH17ALIODZR", "dateTime": 1519252804261}, {"current_trial": 121, "trialdata": {"rt": -1, "trial_type": "single-stim", "stimulus": "<p id=\"stim\">7</p>", "internal_node_id": "0.0-91.0-3.0", "time_elapsed": 675634, "key_press": -1, "trial_index": 121}, "uniqueid": "MTK2719:3OVHNO1VE78VH9SWP40RH17ALIODZR", "dateTime": 1519252805263}, {"current_trial": 122, "trialdata": {"rt": -1, "trial_type": "single-stim", "stimulus": "<p id=\"stim\">6</p>", "internal_node_id": "0.0-91.0-4.0", "time_elapsed": 676636, "key_press": -1, "trial_index": 122}, "uniqueid": "MTK2719:3OVHNO1VE78VH9SWP40RH17ALIODZR", "dateTime": 1519252806266}, {"current_trial": 123, "trialdata": {"rt": -1, "trial_type": "single-stim", "stimulus": "<p id=\"stim\">5</p>", "internal_node_id": "0.0-91.0-5.0", "time_elapsed": 677639, "key_press": -1, "trial_index": 123}, "uniqueid": "MTK2719:3OVHNO1VE78VH9SWP40RH17ALIODZR", "dateTime": 1519252807268}, {"current_trial": 124, "trialdata": {"rt": -1, "trial_type": "single-stim", "stimulus": "<p id=\"stim\">4</p>", "internal_node_id": "0.0-91.0-6.0", "time_elapsed": 678643, "key_press": -1, "trial_index": 124}, "uniqueid": "MTK2719:3OVHNO1VE78VH9SWP40RH17ALIODZR", "dateTime": 1519252808272}, {"current_trial": 125, "trialdata": {"rt": -1, "trial_type": "single-stim", "stimulus": "<p id=\"stim\">3</p>", "internal_node_id": "0.0-91.0-7.0", "time_elapsed": 679646, "key_press": -1, "trial_index": 125}, "uniqueid": "MTK2719:3OVHNO1VE78VH9SWP40RH17ALIODZR", "dateTime": 1519252809275}, {"current_trial": 126, "trialdata": {"rt": -1, "trial_type": "single-stim", "stimulus": "<p id=\"stim\">2</p>", "internal_node_id": "0.0-91.0-8.0", "time_elapsed": 680647, "key_press": -1, "trial_index": 126}, "uniqueid": "MTK2719:3OVHNO1VE78VH9SWP40RH17ALIODZR", "dateTime": 1519252810276}, {"current_trial": 127, "trialdata": {"rt": -1, "trial_type": "single-stim", "stimulus": "<p id=\"stim\">1</p>", "internal_node_id": "0.0-91.0-9.0", "time_elapsed": 681650, "key_press": -1, "trial_index": 127}, "uniqueid": "MTK2719:3OVHNO1VE78VH9SWP40RH17ALIODZR", "dateTime": 1519252811279}, {"current_trial": 128, "trialdata": {"rt": -1, "trial_type": "single-stim", "stimulus": "<p id=\"stim\">+</p>", "internal_node_id": "0.0-92.0-0.0", "time_elapsed": 683151, "key_press": -1, "type": "FIXATION", "trial_index": 128}, "uniqueid": "MTK2719:3OVHNO1VE78VH9SWP40RH17ALIODZR", "dateTime": 1519252812780}, {"current_trial": 129, "trialdata": {"rt": -1000, "trial_type": "single-audio", "word": "virus", "stimulus": "/static/audio/wordpool/VIRUS.wav", "conditions": [12, 800, "a", 24000], "internal_node_id": "0.0-93.0", "trial": 3, "time_elapsed": 684833, "serialpos": 0, "key_press": -1, "wordID": 1571, "type": "PRES_AUD", "trial_index": 129}, "uniqueid": "MTK2719:3OVHNO1VE78VH9SWP40RH17ALIODZR", "dateTime": 1519252814462}, {"current_trial": 130, "trialdata": {"rt": -1000, "trial_type": "single-audio", "word": "dentist", "stimulus": "/static/audio/wordpool/DENTIST.wav", "conditions": [12, 800, "a", 24000], "internal_node_id": "0.0-94.0", "trial": 3, "time_elapsed": 686790, "serialpos": 1, "key_press": -1, "wordID": 446, "type": "PRES_AUD", "trial_index": 130}, "uniqueid": "MTK2719:3OVHNO1VE78VH9SWP40RH17ALIODZR", "dateTime": 1519252816419}, {"current_trial": 131, "trialdata": {"rt": -1000, "trial_type": "single-audio", "word": "seagull", "stimulus": "/static/audio/wordpool/SEAGULL.wav", "conditions": [12, 800, "a", 24000], "internal_node_id": "0.0-95.0", "trial": 3, "time_elapsed": 688772, "serialpos": 2, "key_press": -1, "wordID": 1260, "type": "PRES_AUD", "trial_index": 131}, "uniqueid": "MTK2719:3OVHNO1VE78VH9SWP40RH17ALIODZR", "dateTime": 1519252818401}, {"current_trial": 132, "trialdata": {"rt": -1000, "trial_type": "single-audio", "word": "crown", "stimulus": "/static/audio/wordpool/CROWN.wav", "conditions": [12, 800, "a", 24000], "internal_node_id": "0.0-96.0", "trial": 3, "time_elapsed": 690473, "serialpos": 3, "key_press": -1, "wordID": 414, "type": "PRES_AUD", "trial_index": 132}, "uniqueid": "MTK2719:3OVHNO1VE78VH9SWP40RH17ALIODZR", "dateTime": 1519252820102}, {"current_trial": 133, "trialdata": {"rt": -1000, "trial_type": "single-audio", "word": "sword", "stimulus": "/static/audio/wordpool/SWORD.wav", "conditions": [12, 800, "a", 24000], "internal_node_id": "0.0-97.0", "trial": 3, "time_elapsed": 692359, "serialpos": 4, "key_press": -1, "wordID": 1422, "type": "PRES_AUD", "trial_index": 133}, "uniqueid": "MTK2719:3OVHNO1VE78VH9SWP40RH17ALIODZR", "dateTime": 1519252821988}, {"current_trial": 134, "trialdata": {"rt": -1000, "trial_type": "single-audio", "word": "diner", "stimulus": "/static/audio/wordpool/DINER.wav", "conditions": [12, 800, "a", 24000], "internal_node_id": "0.0-98.0", "trial": 3, "time_elapsed": 694341, "serialpos": 5, "key_press": -1, "wordID": 466, "type": "PRES_AUD", "trial_index": 134}, "uniqueid": "MTK2719:3OVHNO1VE78VH9SWP40RH17ALIODZR", "dateTime": 1519252823970}, {"current_trial": 135, "trialdata": {"rt": -1000, "trial_type": "single-audio", "word": "cloud", "stimulus": "/static/audio/wordpool/CLOUD.wav", "conditions": [12, 800, "a", 24000], "internal_node_id": "0.0-99.0", "trial": 3, "time_elapsed": 696197, "serialpos": 6, "key_press": -1, "wordID": 327, "type": "PRES_AUD", "trial_index": 135}, "uniqueid": "MTK2719:3OVHNO1VE78VH9SWP40RH17ALIODZR", "dateTime": 1519252825827}, {"current_trial": 136, "trialdata": {"rt": -1000, "trial_type": "single-audio", "word": "highway", "stimulus": "/static/audio/wordpool/HIGHWAY.wav", "conditions": [12, 800, "a", 24000], "internal_node_id": "0.0-100.0", "trial": 3, "time_elapsed": 698015, "serialpos": 7, "key_press": -1, "wordID": 706, "type": "PRES_AUD", "trial_index": 136}, "uniqueid": "MTK2719:3OVHNO1VE78VH9SWP40RH17ALIODZR", "dateTime": 1519252827644}, {"current_trial": 137, "trialdata": {"rt": -1000, "trial_type": "single-audio", "word": "label", "stimulus": "/static/audio/wordpool/LABEL.wav", "conditions": [12, 800, "a", 24000], "internal_node_id": "0.0-101.0", "trial": 3, "time_elapsed": 699951, "serialpos": 8, "key_press": -1, "wordID": 789, "type": "PRES_AUD", "trial_index": 137}, "uniqueid": "MTK2719:3OVHNO1VE78VH9SWP40RH17ALIODZR", "dateTime": 1519252829580}, {"current_trial": 138, "trialdata": {"rt": -1000, "trial_type": "single-audio", "word": "bug", "stimulus": "/static/audio/wordpool/BUG.wav", "conditions": [12, 800, "a", 24000], "internal_node_id": "0.0-102.0", "trial": 3, "time_elapsed": 701893, "serialpos": 9, "key_press": -1, "wordID": 186, "type": "PRES_AUD", "trial_index": 138}, "uniqueid": "MTK2719:3OVHNO1VE78VH9SWP40RH17ALIODZR", "dateTime": 1519252831522}, {"current_trial": 139, "trialdata": {"rt": -1000, "trial_type": "single-audio", "word": "briefcase", "stimulus": "/static/audio/wordpool/BRIEFCASE.wav", "conditions": [12, 800, "a", 24000], "internal_node_id": "0.0-103.0", "trial": 3, "time_elapsed": 703872, "serialpos": 10, "key_press": -1, "wordID": 174, "type": "PRES_AUD", "trial_index": 139}, "uniqueid": "MTK2719:3OVHNO1VE78VH9SWP40RH17ALIODZR", "dateTime": 1519252833501}, {"current_trial": 140, "trialdata": {"rt": -1000, "trial_type": "single-audio", "word": "handbag", "stimulus": "/static/audio/wordpool/HANDBAG.wav", "conditions": [12, 800, "a", 24000], "internal_node_id": "0.0-104.0", "trial": 3, "time_elapsed": 705649, "serialpos": 11, "key_press": -1, "wordID": 683, "type": "PRES_AUD", "trial_index": 140}, "uniqueid": "MTK2719:3OVHNO1VE78VH9SWP40RH17ALIODZR", "dateTime": 1519252835278}, {"current_trial": 141, "trialdata": {"rt": -1, "trial_type": "single-stim", "stimulus": "", "internal_node_id": "0.0-105.0-0.0", "time_elapsed": 707038, "key_press": -1, "type": "PRE_RECALL_DELAY", "trial_index": 141}, "uniqueid": "MTK2719:3OVHNO1VE78VH9SWP40RH17ALIODZR", "dateTime": 1519252836667}, {"current_trial": 142, "trialdata": {"rt": -1000, "trial_type": "single-audio", "stimulus": "/static/audio/400Hz.wav", "internal_node_id": "0.0-106.0", "time_elapsed": 707542, "key_press": -1, "type": "PRE_RECALL_ALERT", "trial_index": 142}, "uniqueid": "MTK2719:3OVHNO1VE78VH9SWP40RH17ALIODZR", "dateTime": 1519252837171}, {"current_trial": 143, "trialdata": {"rt": [4255, 8431, 11617, 14045, 19165, 34250, 56999], "recwords": ["handbag", "briefcase", "dentist", "virus", "diner", "love", "garden"], "key_times": [1906, 2038, 2266, 2610, 3016, 3172, 3726, 4255, 4842, 5310, 5605, 5768, 6088, 6786, 7002, 7254, 7525, 8431, 9265, 9504, 9736, 10019, 10425, 10602, 10983, 11617, 12241, 12464, 12746, 13049, 13288, 14045, 17642, 17921, 18150, 18367, 18702, 19165, 32963, 33139, 33364, 33603, 34250, 54351, 54560, 54810, 55062, 55323, 56334, 56999], "trial_type": "free-recall", "conditions": [12, 800, "a", 24000], "internal_node_id": "0.0-107.0-0.0", "key_presses": [72, 65, 78, 68, 66, 65, 71, 13, 66, 82, 73, 69, 70, 67, 65, 83, 69, 13, 68, 69, 78, 84, 73, 83, 84, 13, 86, 73, 82, 85, 83, 13, 68, 73, 78, 69, 82, 13, 76, 79, 86, 69, 13, 71, 65, 82, 68, 69, 78, 13], "trial": 3, "time_elapsed": 767547, "type": "FREE_RECALL", "trial_index": 143}, "uniqueid": "MTK2719:3OVHNO1VE78VH9SWP40RH17ALIODZR", "dateTime": 1519252897180}, {"current_trial": 144, "trialdata": {"rt": 4318, "trial_type": "text", "internal_node_id": "0.0-108.0", "time_elapsed": 773871, "key_press": 66, "type": "INSTRUCTIONS", "trial_index": 144}, "uniqueid": "MTK2719:3OVHNO1VE78VH9SWP40RH17ALIODZR", "dateTime": 1519252903500}, {"current_trial": 145, "trialdata": {"rt": [5124, 9801], "trial_type": "math-distractor", "key_times": [58, 343, 1912, 2080, 2255, 4193, 4369, 5124, 8761, 8996, 9801], "responses": ["10", "19"], "num2": [3, 8, 3], "num3": [5, 6, 4], "conditions": [12, 800, "a", 12000], "internal_node_id": "0.0-109.0", "key_presses": [65, 83, 8, 8, 8, 97, 96, 13, 97, 105, 13], "trial": 4, "time_elapsed": 787876, "type": "DISTRACTOR", "trial_index": 145, "num1": [2, 5, 9]}, "uniqueid": "MTK2719:3OVHNO1VE78VH9SWP40RH17ALIODZR", "dateTime": 1519252917505}, {"current_trial": 146, "trialdata": {"rt": -1, "trial_type": "single-stim", "stimulus": "<p id=\"stim\">10</p>", "internal_node_id": "0.0-110.0-0.0", "time_elapsed": 790879, "key_press": -1, "trial_index": 146}, "uniqueid": "MTK2719:3OVHNO1VE78VH9SWP40RH17ALIODZR", "dateTime": 1519252920508}, {"current_trial": 147, "trialdata": {"rt": -1, "trial_type": "single-stim", "stimulus": "<p id=\"stim\">9</p>", "internal_node_id": "0.0-110.0-1.0", "time_elapsed": 791881, "key_press": -1, "trial_index": 147}, "uniqueid": "MTK2719:3OVHNO1VE78VH9SWP40RH17ALIODZR", "dateTime": 1519252921510}, {"current_trial": 148, "trialdata": {"rt": -1, "trial_type": "single-stim", "stimulus": "<p id=\"stim\">8</p>", "internal_node_id": "0.0-110.0-2.0", "time_elapsed": 792883, "key_press": -1, "trial_index": 148}, "uniqueid": "MTK2719:3OVHNO1VE78VH9SWP40RH17ALIODZR", "dateTime": 1519252922512}, {"current_trial": 149, "trialdata": {"rt": -1, "trial_type": "single-stim", "stimulus": "<p id=\"stim\">7</p>", "internal_node_id": "0.0-110.0-3.0", "time_elapsed": 793885, "key_press": -1, "trial_index": 149}, "uniqueid": "MTK2719:3OVHNO1VE78VH9SWP40RH17ALIODZR", "dateTime": 1519252923514}, {"current_trial": 150, "trialdata": {"rt": -1, "trial_type": "single-stim", "stimulus": "<p id=\"stim\">6</p>", "internal_node_id": "0.0-110.0-4.0", "time_elapsed": 794886, "key_press": -1, "trial_index": 150}, "uniqueid": "MTK2719:3OVHNO1VE78VH9SWP40RH17ALIODZR", "dateTime": 1519252924515}, {"current_trial": 151, "trialdata": {"rt": -1, "trial_type": "single-stim", "stimulus": "<p id=\"stim\">5</p>", "internal_node_id": "0.0-110.0-5.0", "time_elapsed": 795889, "key_press": -1, "trial_index": 151}, "uniqueid": "MTK2719:3OVHNO1VE78VH9SWP40RH17ALIODZR", "dateTime": 1519252925519}, {"current_trial": 152, "trialdata": {"rt": -1, "trial_type": "single-stim", "stimulus": "<p id=\"stim\">4</p>", "internal_node_id": "0.0-110.0-6.0", "time_elapsed": 796891, "key_press": -1, "trial_index": 152}, "uniqueid": "MTK2719:3OVHNO1VE78VH9SWP40RH17ALIODZR", "dateTime": 1519252926520}, {"current_trial": 153, "trialdata": {"rt": -1, "trial_type": "single-stim", "stimulus": "<p id=\"stim\">3</p>", "internal_node_id": "0.0-110.0-7.0", "time_elapsed": 797893, "key_press": -1, "trial_index": 153}, "uniqueid": "MTK2719:3OVHNO1VE78VH9SWP40RH17ALIODZR", "dateTime": 1519252927523}, {"current_trial": 154, "trialdata": {"rt": -1, "trial_type": "single-stim", "stimulus": "<p id=\"stim\">2</p>", "internal_node_id": "0.0-110.0-8.0", "time_elapsed": 798895, "key_press": -1, "trial_index": 154}, "uniqueid": "MTK2719:3OVHNO1VE78VH9SWP40RH17ALIODZR", "dateTime": 1519252928524}, {"current_trial": 155, "trialdata": {"rt": -1, "trial_type": "single-stim", "stimulus": "<p id=\"stim\">1</p>", "internal_node_id": "0.0-110.0-9.0", "time_elapsed": 799897, "key_press": -1, "trial_index": 155}, "uniqueid": "MTK2719:3OVHNO1VE78VH9SWP40RH17ALIODZR", "dateTime": 1519252929526}, {"current_trial": 156, "trialdata": {"rt": -1, "trial_type": "single-stim", "stimulus": "<p id=\"stim\">+</p>", "internal_node_id": "0.0-111.0-0.0", "time_elapsed": 801401, "key_press": -1, "type": "FIXATION", "trial_index": 156}, "uniqueid": "MTK2719:3OVHNO1VE78VH9SWP40RH17ALIODZR", "dateTime": 1519252931030}, {"current_trial": 157, "trialdata": {"rt": -1000, "trial_type": "single-audio", "word": "couch", "stimulus": "/static/audio/wordpool/COUCH.wav", "conditions": [12, 800, "a", 12000], "internal_node_id": "0.0-112.0", "trial": 4, "time_elapsed": 803025, "serialpos": 0, "key_press": -1, "wordID": 385, "type": "PRES_AUD", "trial_index": 157}, "uniqueid": "MTK2719:3OVHNO1VE78VH9SWP40RH17ALIODZR", "dateTime": 1519252932654}, {"current_trial": 158, "trialdata": {"rt": -1000, "trial_type": "single-audio", "word": "sphinx", "stimulus": "/static/audio/wordpool/SPHINX.wav", "conditions": [12, 800, "a", 12000], "internal_node_id": "0.0-113.0", "trial": 4, "time_elapsed": 804638, "serialpos": 1, "key_press": -1, "wordID": 1348, "type": "PRES_AUD", "trial_index": 158}, "uniqueid": "MTK2719:3OVHNO1VE78VH9SWP40RH17ALIODZR", "dateTime": 1519252934267}, {"current_trial": 159, "trialdata": {"rt": -1000, "trial_type": "single-audio", "word": "seafood", "stimulus": "/static/audio/wordpool/SEAFOOD.wav", "conditions": [12, 800, "a", 12000], "internal_node_id": "0.0-114.0", "trial": 4, "time_elapsed": 806552, "serialpos": 2, "key_press": -1, "wordID": 1259, "type": "PRES_AUD", "trial_index": 159}, "uniqueid": "MTK2719:3OVHNO1VE78VH9SWP40RH17ALIODZR", "dateTime": 1519252936182}, {"current_trial": 160, "trialdata": {"rt": -1000, "trial_type": "single-audio", "word": "lightning", "stimulus": "/static/audio/wordpool/LIGHTNING.wav", "conditions": [12, 800, "a", 12000], "internal_node_id": "0.0-115.0", "trial": 4, "time_elapsed": 808388, "serialpos": 3, "key_press": -1, "wordID": 819, "type": "PRES_AUD", "trial_index": 160}, "uniqueid": "MTK2719:3OVHNO1VE78VH9SWP40RH17ALIODZR", "dateTime": 1519252938018}, {"current_trial": 161, "trialdata": {"rt": -1000, "trial_type": "single-audio", "word": "judge", "stimulus": "/static/audio/wordpool/JUDGE.wav", "conditions": [12, 800, "a", 12000], "internal_node_id": "0.0-116.0", "trial": 4, "time_elapsed": 810234, "serialpos": 4, "key_press": -1, "wordID": 760, "type": "PRES_AUD", "trial_index": 161}, "uniqueid": "MTK2719:3OVHNO1VE78VH9SWP40RH17ALIODZR", "dateTime": 1519252939863}, {"current_trial": 162, "trialdata": {"rt": -1000, "trial_type": "single-audio", "word": "tart", "stimulus": "/static/audio/wordpool/TART.wav", "conditions": [12, 800, "a", 12000], "internal_node_id": "0.0-117.0", "trial": 4, "time_elapsed": 812085, "serialpos": 5, "key_press": -1, "wordID": 1435, "type": "PRES_AUD", "trial_index": 162}, "uniqueid": "MTK2719:3OVHNO1VE78VH9SWP40RH17ALIODZR", "dateTime": 1519252941714}, {"current_trial": 163, "trialdata": {"rt": -1000, "trial_type": "single-audio", "word": "robin", "stimulus": "/static/audio/wordpool/ROBIN.wav", "conditions": [12, 800, "a", 12000], "internal_node_id": "0.0-118.0", "trial": 4, "time_elapsed": 813885, "serialpos": 6, "key_press": -1, "wordID": 1198, "type": "PRES_AUD", "trial_index": 163}, "uniqueid": "MTK2719:3OVHNO1VE78VH9SWP40RH17ALIODZR", "dateTime": 1519252943515}, {"current_trial": 164, "trialdata": {"rt": -1000, "trial_type": "single-audio", "word": "sparrow", "stimulus": "/static/audio/wordpool/SPARROW.wav", "conditions": [12, 800, "a", 12000], "internal_node_id": "0.0-119.0", "trial": 4, "time_elapsed": 815721, "serialpos": 7, "key_press": -1, "wordID": 1346, "type": "PRES_AUD", "trial_index": 164}, "uniqueid": "MTK2719:3OVHNO1VE78VH9SWP40RH17ALIODZR", "dateTime": 1519252945350}, {"current_trial": 165, "trialdata": {"rt": -1000, "trial_type": "single-audio", "word": "jury", "stimulus": "/static/audio/wordpool/JURY.wav", "conditions": [12, 800, "a", 12000], "internal_node_id": "0.0-120.0", "trial": 4, "time_elapsed": 817497, "serialpos": 8, "key_press": -1, "wordID": 765, "type": "PRES_AUD", "trial_index": 165}, "uniqueid": "MTK2719:3OVHNO1VE78VH9SWP40RH17ALIODZR", "dateTime": 1519252947126}, {"current_trial": 166, "trialdata": {"rt": -1000, "trial_type": "single-audio", "word": "freckle", "stimulus": "/static/audio/wordpool/FRECKLE.wav", "conditions": [12, 800, "a", 12000], "internal_node_id": "0.0-121.0", "trial": 4, "time_elapsed": 819222, "serialpos": 9, "key_press": -1, "wordID": 601, "type": "PRES_AUD", "trial_index": 166}, "uniqueid": "MTK2719:3OVHNO1VE78VH9SWP40RH17ALIODZR", "dateTime": 1519252948851}, {"current_trial": 167, "trialdata": {"rt": -1000, "trial_type": "single-audio", "word": "queen", "stimulus": "/static/audio/wordpool/QUEEN.wav", "conditions": [12, 800, "a", 12000], "internal_node_id": "0.0-122.0", "trial": 4, "time_elapsed": 820934, "serialpos": 10, "key_press": -1, "wordID": 1148, "type": "PRES_AUD", "trial_index": 167}, "uniqueid": "MTK2719:3OVHNO1VE78VH9SWP40RH17ALIODZR", "dateTime": 1519252950563}, {"current_trial": 168, "trialdata": {"rt": -1000, "trial_type": "single-audio", "word": "nurse", "stimulus": "/static/audio/wordpool/NURSE.wav", "conditions": [12, 800, "a", 12000], "internal_node_id": "0.0-123.0", "trial": 4, "time_elapsed": 822896, "serialpos": 11, "key_press": -1, "wordID": 962, "type": "PRES_AUD", "trial_index": 168}, "uniqueid": "MTK2719:3OVHNO1VE78VH9SWP40RH17ALIODZR", "dateTime": 1519252952525}, {"current_trial": 169, "trialdata": {"rt": -1, "trial_type": "single-stim", "stimulus": "", "internal_node_id": "0.0-124.0-0.0", "time_elapsed": 824127, "key_press": -1, "type": "PRE_RECALL_DELAY", "trial_index": 169}, "uniqueid": "MTK2719:3OVHNO1VE78VH9SWP40RH17ALIODZR", "dateTime": 1519252953756}, {"current_trial": 170, "trialdata": {"rt": -1000, "trial_type": "single-audio", "stimulus": "/static/audio/400Hz.wav", "internal_node_id": "0.0-125.0", "time_elapsed": 824638, "key_press": -1, "type": "PRE_RECALL_ALERT", "trial_index": 170}, "uniqueid": "MTK2719:3OVHNO1VE78VH9SWP40RH17ALIODZR", "dateTime": 1519252954267}, {"current_trial": 171, "trialdata": {"rt": [2378, 7453, 11184, 13575, 19588, 30421, 33188, 46098], "recwords": ["nurse", "queen", "suckle", "nurse", "lightning", "jury", "judge", "swift"], "key_times": [863, 1058, 1275, 1557, 1790, 2378, 3173, 3466, 4400, 4858, 5675, 6039, 6286, 6454, 6837, 7453, 8245, 9108, 9443, 9901, 10105, 10349, 11184, 12013, 12235, 12527, 12756, 12982, 13575, 16607, 16807, 17235, 17766, 17994, 18339, 18502, 18663, 18847, 19588, 28909, 29088, 29485, 29745, 30421, 31245, 31425, 32088, 32350, 32539, 33188, 44029, 44399, 44757, 45052, 45331, 46098], "trial_type": "free-recall", "conditions": [12, 800, "a", 12000], "internal_node_id": "0.0-126.0-0.0", "key_presses": [78, 85, 82, 83, 69, 13, 81, 73, 8, 89, 8, 85, 69, 69, 78, 13, 83, 85, 67, 75, 76, 69, 13, 78, 85, 82, 83, 69, 13, 76, 73, 71, 72, 84, 78, 73, 78, 71, 13, 74, 85, 82, 89, 13, 74, 85, 68, 71, 69, 13, 83, 87, 73, 70, 84, 13], "trial": 4, "time_elapsed": 884643, "type": "FREE_RECALL", "trial_index": 171}, "uniqueid": "MTK2719:3OVHNO1VE78VH9SWP40RH17ALIODZR", "dateTime": 1519253014278}, {"current_trial": 172, "trialdata": {"rt": 3801, "trial_type": "text", "internal_node_id": "0.0-127.0", "time_elapsed": 890454, "key_press": 13, "type": "INSTRUCTIONS", "trial_index": 172}, "uniqueid": "MTK2719:3OVHNO1VE78VH9SWP40RH17ALIODZR", "dateTime": 1519253020083}, {"current_trial": 173, "trialdata": {"rt": [4627, 8005, 12589, 16641, 21882], "trial_type": "math-distractor", "key_times": [3734, 3910, 4627, 7182, 7376, 8005, 11838, 12013, 12589, 15872, 16038, 16641, 20944, 21140, 21882], "responses": ["20", "12", "14", "14", "12"], "num2": [4, 1, 1, 3, 8, 7], "num3": [7, 1, 5, 3, 1, 9], "conditions": [12, 1600, "a", 24000], "internal_node_id": "0.0-128.0", "key_presses": [98, 96, 13, 97, 98, 13, 97, 100, 13, 97, 100, 13, 97, 98, 13], "trial": 5, "time_elapsed": 916459, "type": "DISTRACTOR", "trial_index": 173, "num1": [9, 9, 8, 8, 3, 2]}, "uniqueid": "MTK2719:3OVHNO1VE78VH9SWP40RH17ALIODZR", "dateTime": 1519253046089}, {"current_trial": 174, "trialdata": {"rt": -1, "trial_type": "single-stim", "stimulus": "<p id=\"stim\">10</p>", "internal_node_id": "0.0-129.0-0.0", "time_elapsed": 919462, "key_press": -1, "trial_index": 174}, "uniqueid": "MTK2719:3OVHNO1VE78VH9SWP40RH17ALIODZR", "dateTime": 1519253049091}, {"current_trial": 175, "trialdata": {"rt": -1, "trial_type": "single-stim", "stimulus": "<p id=\"stim\">9</p>", "internal_node_id": "0.0-129.0-1.0", "time_elapsed": 920464, "key_press": -1, "trial_index": 175}, "uniqueid": "MTK2719:3OVHNO1VE78VH9SWP40RH17ALIODZR", "dateTime": 1519253050093}, {"current_trial": 176, "trialdata": {"rt": -1, "trial_type": "single-stim", "stimulus": "<p id=\"stim\">8</p>", "internal_node_id": "0.0-129.0-2.0", "time_elapsed": 921468, "key_press": -1, "trial_index": 176}, "uniqueid": "MTK2719:3OVHNO1VE78VH9SWP40RH17ALIODZR", "dateTime": 1519253051097}, {"current_trial": 177, "trialdata": {"rt": -1, "trial_type": "single-stim", "stimulus": "<p id=\"stim\">7</p>", "internal_node_id": "0.0-129.0-3.0", "time_elapsed": 922469, "key_press": -1, "trial_index": 177}, "uniqueid": "MTK2719:3OVHNO1VE78VH9SWP40RH17ALIODZR", "dateTime": 1519253052099}, {"current_trial": 178, "trialdata": {"rt": -1, "trial_type": "single-stim", "stimulus": "<p id=\"stim\">6</p>", "internal_node_id": "0.0-129.0-4.0", "time_elapsed": 923472, "key_press": -1, "trial_index": 178}, "uniqueid": "MTK2719:3OVHNO1VE78VH9SWP40RH17ALIODZR", "dateTime": 1519253053101}, {"current_trial": 179, "trialdata": {"rt": -1, "trial_type": "single-stim", "stimulus": "<p id=\"stim\">5</p>", "internal_node_id": "0.0-129.0-5.0", "time_elapsed": 924474, "key_press": -1, "trial_index": 179}, "uniqueid": "MTK2719:3OVHNO1VE78VH9SWP40RH17ALIODZR", "dateTime": 1519253054103}, {"current_trial": 180, "trialdata": {"rt": -1, "trial_type": "single-stim", "stimulus": "<p id=\"stim\">4</p>", "internal_node_id": "0.0-129.0-6.0", "time_elapsed": 925476, "key_press": -1, "trial_index": 180}, "uniqueid": "MTK2719:3OVHNO1VE78VH9SWP40RH17ALIODZR", "dateTime": 1519253055105}, {"current_trial": 181, "trialdata": {"rt": -1, "trial_type": "single-stim", "stimulus": "<p id=\"stim\">3</p>", "internal_node_id": "0.0-129.0-7.0", "time_elapsed": 926479, "key_press": -1, "trial_index": 181}, "uniqueid": "MTK2719:3OVHNO1VE78VH9SWP40RH17ALIODZR", "dateTime": 1519253056108}, {"current_trial": 182, "trialdata": {"rt": -1, "trial_type": "single-stim", "stimulus": "<p id=\"stim\">2</p>", "internal_node_id": "0.0-129.0-8.0", "time_elapsed": 927479, "key_press": -1, "trial_index": 182}, "uniqueid": "MTK2719:3OVHNO1VE78VH9SWP40RH17ALIODZR", "dateTime": 1519253057109}, {"current_trial": 183, "trialdata": {"rt": -1, "trial_type": "single-stim", "stimulus": "<p id=\"stim\">1</p>", "internal_node_id": "0.0-129.0-9.0", "time_elapsed": 928484, "key_press": -1, "trial_index": 183}, "uniqueid": "MTK2719:3OVHNO1VE78VH9SWP40RH17ALIODZR", "dateTime": 1519253058113}, {"current_trial": 184, "trialdata": {"rt": -1, "trial_type": "single-stim", "stimulus": "<p id=\"stim\">+</p>", "internal_node_id": "0.0-130.0-0.0", "time_elapsed": 929986, "key_press": -1, "type": "FIXATION", "trial_index": 184}, "uniqueid": "MTK2719:3OVHNO1VE78VH9SWP40RH17ALIODZR", "dateTime": 1519253059615}, {"current_trial": 185, "trialdata": {"rt": -1000, "trial_type": "single-audio", "word": "salmon", "stimulus": "/static/audio/wordpool/SALMON.wav", "conditions": [12, 1600, "a", 24000], "internal_node_id": "0.0-131.0", "trial": 5, "time_elapsed": 932398, "serialpos": 0, "key_press": -1, "wordID": 1226, "type": "PRES_AUD", "trial_index": 185}, "uniqueid": "MTK2719:3OVHNO1VE78VH9SWP40RH17ALIODZR", "dateTime": 1519253062027}, {"current_trial": 186, "trialdata": {"rt": 1499.9999999998863, "trial_type": "single-audio", "word": "blade", "stimulus": "/static/audio/wordpool/BLADE.wav", "conditions": [12, 1600, "a", 24000], "internal_node_id": "0.0-132.0", "trial": 5, "time_elapsed": 934823, "serialpos": 1, "key_press": 83, "wordID": 133, "type": "PRES_AUD", "trial_index": 186}, "uniqueid": "MTK2719:3OVHNO1VE78VH9SWP40RH17ALIODZR", "dateTime": 1519253064452}, {"current_trial": 187, "trialdata": {"rt": -100.00000000002274, "trial_type": "single-audio", "word": "harp", "stimulus": "/static/audio/wordpool/HARP.wav", "conditions": [12, 1600, "a", 24000], "internal_node_id": "0.0-133.0", "trial": 5, "time_elapsed": 937447, "serialpos": 2, "key_press": 79, "wordID": 688, "type": "PRES_AUD", "trial_index": 187}, "uniqueid": "MTK2719:3OVHNO1VE78VH9SWP40RH17ALIODZR", "dateTime": 1519253067076}, {"current_trial": 188, "trialdata": {"rt": 11.999999999943611, "trial_type": "single-audio", "word": "sculpture", "stimulus": "/static/audio/wordpool/SCULPTURE.wav", "conditions": [12, 1600, "a", 24000], "internal_node_id": "0.0-134.0", "trial": 5, "time_elapsed": 940094, "serialpos": 3, "key_press": 65, "wordID": 1257, "type": "PRES_AUD", "trial_index": 188}, "uniqueid": "MTK2719:3OVHNO1VE78VH9SWP40RH17ALIODZR", "dateTime": 1519253069724}, {"current_trial": 189, "trialdata": {"rt": 350.66666666659785, "trial_type": "single-audio", "word": "possum", "stimulus": "/static/audio/wordpool/POSSUM.wav", "conditions": [12, 1600, "a", 24000], "internal_node_id": "0.0-135.0", "trial": 5, "time_elapsed": 942592, "serialpos": 4, "key_press": 76, "wordID": 1111, "type": "PRES_AUD", "trial_index": 189}, "uniqueid": "MTK2719:3OVHNO1VE78VH9SWP40RH17ALIODZR", "dateTime": 1519253072221}, {"current_trial": 190, "trialdata": {"rt": -60.00000000005912, "trial_type": "single-audio", "word": "balloon", "stimulus": "/static/audio/wordpool/BALLOON.wav", "conditions": [12, 1600, "a", 24000], "internal_node_id": "0.0-136.0", "trial": 5, "time_elapsed": 945010, "serialpos": 5, "key_press": 69, "wordID": 74, "type": "PRES_AUD", "trial_index": 190}, "uniqueid": "MTK2719:3OVHNO1VE78VH9SWP40RH17ALIODZR", "dateTime": 1519253074639}, {"current_trial": 191, "trialdata": {"rt": -1000, "trial_type": "single-audio", "word": "statue", "stimulus": "/static/audio/wordpool/STATUE.wav", "conditions": [12, 1600, "a", 24000], "internal_node_id": "0.0-137.0", "trial": 5, "time_elapsed": 947558, "serialpos": 6, "key_press": -1, "wordID": 1373, "type": "PRES_AUD", "trial_index": 191}, "uniqueid": "MTK2719:3OVHNO1VE78VH9SWP40RH17ALIODZR", "dateTime": 1519253077187}, {"current_trial": 192, "trialdata": {"rt": -1000, "trial_type": "single-audio", "word": "salad", "stimulus": "/static/audio/wordpool/SALAD.wav", "conditions": [12, 1600, "a", 24000], "internal_node_id": "0.0-138.0", "trial": 5, "time_elapsed": 950068, "serialpos": 7, "key_press": -1, "wordID": 1223, "type": "PRES_AUD", "trial_index": 192}, "uniqueid": "MTK2719:3OVHNO1VE78VH9SWP40RH17ALIODZR", "dateTime": 1519253079697}, {"current_trial": 193, "trialdata": {"rt": -1000, "trial_type": "single-audio", "word": "slope", "stimulus": "/static/audio/wordpool/SLOPE.wav", "conditions": [12, 1600, "a", 24000], "internal_node_id": "0.0-139.0", "trial": 5, "time_elapsed": 952759, "serialpos": 8, "key_press": -1, "wordID": 1327, "type": "PRES_AUD", "trial_index": 193}, "uniqueid": "MTK2719:3OVHNO1VE78VH9SWP40RH17ALIODZR", "dateTime": 1519253082388}, {"current_trial": 194, "trialdata": {"rt": -1000, "trial_type": "single-audio", "word": "rabbit", "stimulus": "/static/audio/wordpool/RABBIT.wav", "conditions": [12, 1600, "a", 24000], "internal_node_id": "0.0-140.0", "trial": 5, "time_elapsed": 955219, "serialpos": 9, "key_press": -1, "wordID": 1151, "type": "PRES_AUD", "trial_index": 194}, "uniqueid": "MTK2719:3OVHNO1VE78VH9SWP40RH17ALIODZR", "dateTime": 1519253084849}, {"current_trial": 195, "trialdata": {"rt": -1000, "trial_type": "single-audio", "word": "snake", "stimulus": "/static/audio/wordpool/SNAKE.wav", "conditions": [12, 1600, "a", 24000], "internal_node_id": "0.0-141.0", "trial": 5, "time_elapsed": 957640, "serialpos": 10, "key_press": -1, "wordID": 1332, "type": "PRES_AUD", "trial_index": 195}, "uniqueid": "MTK2719:3OVHNO1VE78VH9SWP40RH17ALIODZR", "dateTime": 1519253087269}, {"current_trial": 196, "trialdata": {"rt": -1000, "trial_type": "single-audio", "word": "pebble", "stimulus": "/static/audio/wordpool/PEBBLE.wav", "conditions": [12, 1600, "a", 24000], "internal_node_id": "0.0-142.0", "trial": 5, "time_elapsed": 960059, "serialpos": 11, "key_press": -1, "wordID": 1034, "type": "PRES_AUD", "trial_index": 196}, "uniqueid": "MTK2719:3OVHNO1VE78VH9SWP40RH17ALIODZR", "dateTime": 1519253089688}, {"current_trial": 197, "trialdata": {"rt": -1, "trial_type": "single-stim", "stimulus": "", "internal_node_id": "0.0-143.0-0.0", "time_elapsed": 961377, "key_press": -1, "type": "PRE_RECALL_DELAY", "trial_index": 197}, "uniqueid": "MTK2719:3OVHNO1VE78VH9SWP40RH17ALIODZR", "dateTime": 1519253091006}, {"current_trial": 198, "trialdata": {"rt": -1000, "trial_type": "single-audio", "stimulus": "/static/audio/400Hz.wav", "internal_node_id": "0.0-144.0", "time_elapsed": 961884, "key_press": -1, "type": "PRE_RECALL_ALERT", "trial_index": 198}, "uniqueid": "MTK2719:3OVHNO1VE78VH9SWP40RH17ALIODZR", "dateTime": 1519253091513}, {"current_trial": 199, "trialdata": {"rt": [4284, 6879, 10185, 21062, 26445, 29846], "recwords": ["rqabbit", "snake", "pebble", "statue", "sculpture", "possum"], "key_times": [909, 1120, 1149, 1584, 2783, 3084, 3265, 3845, 4033, 4284, 5210, 5442, 5857, 6117, 6317, 6879, 7524, 7721, 8316, 8480, 8721, 8911, 10185, 18666, 19005, 19219, 19514, 19845, 20037, 21062, 21440, 22081, 22509, 23225, 23597, 24430, 24891, 25222, 25513, 26445, 27596, 27850, 28222, 28433, 28725, 29078, 29846], "trial_type": "free-recall", "conditions": [12, 1600, "a", 24000], "internal_node_id": "0.0-145.0-0.0", "key_presses": [82, 81, 65, 86, 8, 66, 66, 73, 84, 32, 83, 78, 65, 75, 69, 32, 80, 69, 66, 66, 76, 69, 13, 83, 84, 65, 84, 85, 69, 13, 83, 67, 85, 76, 80, 84, 85, 82, 69, 13, 80, 79, 83, 83, 85, 77, 13], "trial": 5, "time_elapsed": 1021889, "type": "FREE_RECALL", "trial_index": 199}, "uniqueid": "MTK2719:3OVHNO1VE78VH9SWP40RH17ALIODZR", "dateTime": 1519253151523}, {"current_trial": 200, "trialdata": {"rt": 67887, "trial_type": "text", "internal_node_id": "0.0-146.0", "time_elapsed": 1091784, "key_press": 13, "type": "INSTRUCTIONS", "trial_index": 200}, "uniqueid": "MTK2719:3OVHNO1VE78VH9SWP40RH17ALIODZR", "dateTime": 1519253221413}, {"current_trial": 201, "trialdata": {"rt": [3499, 8726, 11029, 14083, 17289, 20638], "trial_type": "math-distractor", "key_times": [2447, 2603, 3499, 7214, 7465, 8726, 10280, 10445, 11029, 13058, 13236, 14083, 16073, 16657, 17289, 20054, 20638], "responses": ["14", "18", "11", "14", "16", "8"], "num2": [4, 7, 5, 3, 4, 2, 6], "num3": [3, 3, 5, 4, 8, 2, 9], "conditions": [24, 1600, "a", 24000], "internal_node_id": "0.0-147.0", "key_presses": [97, 100, 13, 97, 104, 13, 97, 97, 13, 97, 100, 13, 97, 102, 13, 104, 13], "trial": 6, "time_elapsed": 1117788, "type": "DISTRACTOR", "trial_index": 201, "num1": [7, 8, 1, 7, 4, 4, 2]}, "uniqueid": "MTK2719:3OVHNO1VE78VH9SWP40RH17ALIODZR", "dateTime": 1519253247418}, {"current_trial": 202, "trialdata": {"rt": -1, "trial_type": "single-stim", "stimulus": "<p id=\"stim\">10</p>", "internal_node_id": "0.0-148.0-0.0", "time_elapsed": 1120791, "key_press": -1, "trial_index": 202}, "uniqueid": "MTK2719:3OVHNO1VE78VH9SWP40RH17ALIODZR", "dateTime": 1519253250420}, {"current_trial": 203, "trialdata": {"rt": -1, "trial_type": "single-stim", "stimulus": "<p id=\"stim\">9</p>", "internal_node_id": "0.0-148.0-1.0", "time_elapsed": 1121795, "key_press": -1, "trial_index": 203}, "uniqueid": "MTK2719:3OVHNO1VE78VH9SWP40RH17ALIODZR", "dateTime": 1519253251424}, {"current_trial": 204, "trialdata": {"rt": -1, "trial_type": "single-stim", "stimulus": "<p id=\"stim\">8</p>", "internal_node_id": "0.0-148.0-2.0", "time_elapsed": 1122798, "key_press": -1, "trial_index": 204}, "uniqueid": "MTK2719:3OVHNO1VE78VH9SWP40RH17ALIODZR", "dateTime": 1519253252427}, {"current_trial": 205, "trialdata": {"rt": -1, "trial_type": "single-stim", "stimulus": "<p id=\"stim\">7</p>", "internal_node_id": "0.0-148.0-3.0", "time_elapsed": 1123800, "key_press": -1, "trial_index": 205}, "uniqueid": "MTK2719:3OVHNO1VE78VH9SWP40RH17ALIODZR", "dateTime": 1519253253429}, {"current_trial": 206, "trialdata": {"rt": -1, "trial_type": "single-stim", "stimulus": "<p id=\"stim\">6</p>", "internal_node_id": "0.0-148.0-4.0", "time_elapsed": 1124803, "key_press": -1, "trial_index": 206}, "uniqueid": "MTK2719:3OVHNO1VE78VH9SWP40RH17ALIODZR", "dateTime": 1519253254432}, {"current_trial": 207, "trialdata": {"rt": -1, "trial_type": "single-stim", "stimulus": "<p id=\"stim\">5</p>", "internal_node_id": "0.0-148.0-5.0", "time_elapsed": 1125805, "key_press": -1, "trial_index": 207}, "uniqueid": "MTK2719:3OVHNO1VE78VH9SWP40RH17ALIODZR", "dateTime": 1519253255434}, {"current_trial": 208, "trialdata": {"rt": -1, "trial_type": "single-stim", "stimulus": "<p id=\"stim\">4</p>", "internal_node_id": "0.0-148.0-6.0", "time_elapsed": 1126807, "key_press": -1, "trial_index": 208}, "uniqueid": "MTK2719:3OVHNO1VE78VH9SWP40RH17ALIODZR", "dateTime": 1519253256436}, {"current_trial": 209, "trialdata": {"rt": -1, "trial_type": "single-stim", "stimulus": "<p id=\"stim\">3</p>", "internal_node_id": "0.0-148.0-7.0", "time_elapsed": 1127809, "key_press": -1, "trial_index": 209}, "uniqueid": "MTK2719:3OVHNO1VE78VH9SWP40RH17ALIODZR", "dateTime": 1519253257439}, {"current_trial": 210, "trialdata": {"rt": -1, "trial_type": "single-stim", "stimulus": "<p id=\"stim\">2</p>", "internal_node_id": "0.0-148.0-8.0", "time_elapsed": 1128812, "key_press": -1, "trial_index": 210}, "uniqueid": "MTK2719:3OVHNO1VE78VH9SWP40RH17ALIODZR", "dateTime": 1519253258441}, {"current_trial": 211, "trialdata": {"rt": -1, "trial_type": "single-stim", "stimulus": "<p id=\"stim\">1</p>", "internal_node_id": "0.0-148.0-9.0", "time_elapsed": 1129813, "key_press": -1, "trial_index": 211}, "uniqueid": "MTK2719:3OVHNO1VE78VH9SWP40RH17ALIODZR", "dateTime": 1519253259443}, {"current_trial": 212, "trialdata": {"rt": -1, "trial_type": "single-stim", "stimulus": "<p id=\"stim\">+</p>", "internal_node_id": "0.0-149.0-0.0", "time_elapsed": 1131316, "key_press": -1, "type": "FIXATION", "trial_index": 212}, "uniqueid": "MTK2719:3OVHNO1VE78VH9SWP40RH17ALIODZR", "dateTime": 1519253260945}, {"current_trial": 213, "trialdata": {"rt": -1000, "trial_type": "single-audio", "word": "lettuce", "stimulus": "/static/audio/wordpool/LETTUCE.wav", "conditions": [24, 1600, "a", 24000], "internal_node_id": "0.0-150.0", "trial": 6, "time_elapsed": 1133807, "serialpos": 0, "key_press": -1, "wordID": 813, "type": "PRES_AUD", "trial_index": 213}, "uniqueid": "MTK2719:3OVHNO1VE78VH9SWP40RH17ALIODZR", "dateTime": 1519253263436}, {"current_trial": 214, "trialdata": {"rt": -1000, "trial_type": "single-audio", "word": "stove", "stimulus": "/static/audio/wordpool/STOVE.wav", "conditions": [24, 1600, "a", 24000], "internal_node_id": "0.0-151.0", "trial": 6, "time_elapsed": 1136221, "serialpos": 1, "key_press": -1, "wordID": 1387, "type": "PRES_AUD", "trial_index": 214}, "uniqueid": "MTK2719:3OVHNO1VE78VH9SWP40RH17ALIODZR", "dateTime": 1519253265850}, {"current_trial": 215, "trialdata": {"rt": -1000, "trial_type": "single-audio", "word": "toaster", "stimulus": "/static/audio/wordpool/TOASTER.wav", "conditions": [24, 1600, "a", 24000], "internal_node_id": "0.0-152.0", "trial": 6, "time_elapsed": 1138764, "serialpos": 2, "key_press": -1, "wordID": 1471, "type": "PRES_AUD", "trial_index": 215}, "uniqueid": "MTK2719:3OVHNO1VE78VH9SWP40RH17ALIODZR", "dateTime": 1519253268394}, {"current_trial": 216, "trialdata": {"rt": -1000, "trial_type": "single-audio", "word": "xerox", "stimulus": "/static/audio/wordpool/XEROX.wav", "conditions": [24, 1600, "a", 24000], "internal_node_id": "0.0-153.0", "trial": 6, "time_elapsed": 1141429, "serialpos": 3, "key_press": -1, "wordID": 1627, "type": "PRES_AUD", "trial_index": 216}, "uniqueid": "MTK2719:3OVHNO1VE78VH9SWP40RH17ALIODZR", "dateTime": 1519253271059}, {"current_trial": 217, "trialdata": {"rt": -1000, "trial_type": "single-audio", "word": "proton", "stimulus": "/static/audio/wordpool/PROTON.wav", "conditions": [24, 1600, "a", 24000], "internal_node_id": "0.0-154.0", "trial": 6, "time_elapsed": 1143909, "serialpos": 4, "key_press": -1, "wordID": 1131, "type": "PRES_AUD", "trial_index": 217}, "uniqueid": "MTK2719:3OVHNO1VE78VH9SWP40RH17ALIODZR", "dateTime": 1519253273538}, {"current_trial": 218, "trialdata": {"rt": -1000, "trial_type": "single-audio", "word": "binder", "stimulus": "/static/audio/wordpool/BINDER.wav", "conditions": [24, 1600, "a", 24000], "internal_node_id": "0.0-155.0", "trial": 6, "time_elapsed": 1146562, "serialpos": 5, "key_press": -1, "wordID": 126, "type": "PRES_AUD", "trial_index": 218}, "uniqueid": "MTK2719:3OVHNO1VE78VH9SWP40RH17ALIODZR", "dateTime": 1519253276191}, {"current_trial": 219, "trialdata": {"rt": -1000, "trial_type": "single-audio", "word": "sidewalk", "stimulus": "/static/audio/wordpool/SIDEWALK.wav", "conditions": [24, 1600, "a", 24000], "internal_node_id": "0.0-156.0", "trial": 6, "time_elapsed": 1149227, "serialpos": 6, "key_press": -1, "wordID": 1302, "type": "PRES_AUD", "trial_index": 219}, "uniqueid": "MTK2719:3OVHNO1VE78VH9SWP40RH17ALIODZR", "dateTime": 1519253278856}, {"current_trial": 220, "trialdata": {"rt": -1000, "trial_type": "single-audio", "word": "turtle", "stimulus": "/static/audio/wordpool/TURTLE.wav", "conditions": [24, 1600, "a", 24000], "internal_node_id": "0.0-157.0", "trial": 6, "time_elapsed": 1151887, "serialpos": 7, "key_press": -1, "wordID": 1521, "type": "PRES_AUD", "trial_index": 220}, "uniqueid": "MTK2719:3OVHNO1VE78VH9SWP40RH17ALIODZR", "dateTime": 1519253281516}, {"current_trial": 221, "trialdata": {"rt": -1000, "trial_type": "single-audio", "word": "camel", "stimulus": "/static/audio/wordpool/CAMEL.wav", "conditions": [24, 1600, "a", 24000], "internal_node_id": "0.0-158.0", "trial": 6, "time_elapsed": 1154646, "serialpos": 8, "key_press": -1, "wordID": 222, "type": "PRES_AUD", "trial_index": 221}, "uniqueid": "MTK2719:3OVHNO1VE78VH9SWP40RH17ALIODZR", "dateTime": 1519253284275}, {"current_trial": 222, "trialdata": {"rt": -1000, "trial_type": "single-audio", "word": "plaza", "stimulus": "/static/audio/wordpool/PLAZA.wav", "conditions": [24, 1600, "a", 24000], "internal_node_id": "0.0-159.0", "trial": 6, "time_elapsed": 1157358, "serialpos": 9, "key_press": -1, "wordID": 1087, "type": "PRES_AUD", "trial_index": 222}, "uniqueid": "MTK2719:3OVHNO1VE78VH9SWP40RH17ALIODZR", "dateTime": 1519253286988}, {"current_trial": 223, "trialdata": {"rt": -1000, "trial_type": "single-audio", "word": "lipstick", "stimulus": "/static/audio/wordpool/LIPSTICK.wav", "conditions": [24, 1600, "a", 24000], "internal_node_id": "0.0-160.0", "trial": 6, "time_elapsed": 1159822, "serialpos": 10, "key_press": -1, "wordID": 828, "type": "PRES_AUD", "trial_index": 223}, "uniqueid": "MTK2719:3OVHNO1VE78VH9SWP40RH17ALIODZR", "dateTime": 1519253289452}, {"current_trial": 224, "trialdata": {"rt": -1000, "trial_type": "single-audio", "word": "wagon", "stimulus": "/static/audio/wordpool/WAGON.wav", "conditions": [24, 1600, "a", 24000], "internal_node_id": "0.0-161.0", "trial": 6, "time_elapsed": 1162402, "serialpos": 11, "key_press": -1, "wordID": 1577, "type": "PRES_AUD", "trial_index": 224}, "uniqueid": "MTK2719:3OVHNO1VE78VH9SWP40RH17ALIODZR", "dateTime": 1519253292031}, {"current_trial": 225, "trialdata": {"rt": -1000, "trial_type": "single-audio", "word": "clothes", "stimulus": "/static/audio/wordpool/CLOTHES.wav", "conditions": [24, 1600, "a", 24000], "internal_node_id": "0.0-162.0", "trial": 6, "time_elapsed": 1164997, "serialpos": 12, "key_press": -1, "wordID": 326, "type": "PRES_AUD", "trial_index": 225}, "uniqueid": "MTK2719:3OVHNO1VE78VH9SWP40RH17ALIODZR", "dateTime": 1519253294627}, {"current_trial": 226, "trialdata": {"rt": -1000, "trial_type": "single-audio", "word": "ankle", "stimulus": "/static/audio/wordpool/ANKLE.wav", "conditions": [24, 1600, "a", 24000], "internal_node_id": "0.0-163.0", "trial": 6, "time_elapsed": 1167607, "serialpos": 13, "key_press": -1, "wordID": 23, "type": "PRES_AUD", "trial_index": 226}, "uniqueid": "MTK2719:3OVHNO1VE78VH9SWP40RH17ALIODZR", "dateTime": 1519253297236}, {"current_trial": 227, "trialdata": {"rt": -1000, "trial_type": "single-audio", "word": "contract", "stimulus": "/static/audio/wordpool/CONTRACT.wav", "conditions": [24, 1600, "a", 24000], "internal_node_id": "0.0-164.0", "trial": 6, "time_elapsed": 1170332, "serialpos": 14, "key_press": -1, "wordID": 367, "type": "PRES_AUD", "trial_index": 227}, "uniqueid": "MTK2719:3OVHNO1VE78VH9SWP40RH17ALIODZR", "dateTime": 1519253299962}, {"current_trial": 228, "trialdata": {"rt": -1000, "trial_type": "single-audio", "word": "onion", "stimulus": "/static/audio/wordpool/ONION.wav", "conditions": [24, 1600, "a", 24000], "internal_node_id": "0.0-165.0", "trial": 6, "time_elapsed": 1173037, "serialpos": 15, "key_press": -1, "wordID": 976, "type": "PRES_AUD", "trial_index": 228}, "uniqueid": "MTK2719:3OVHNO1VE78VH9SWP40RH17ALIODZR", "dateTime": 1519253302666}, {"current_trial": 229, "trialdata": {"rt": -1000, "trial_type": "single-audio", "word": "cod", "stimulus": "/static/audio/wordpool/COD.wav", "conditions": [24, 1600, "a", 24000], "internal_node_id": "0.0-166.0", "trial": 6, "time_elapsed": 1175498, "serialpos": 16, "key_press": -1, "wordID": 339, "type": "PRES_AUD", "trial_index": 229}, "uniqueid": "MTK2719:3OVHNO1VE78VH9SWP40RH17ALIODZR", "dateTime": 1519253305128}, {"current_trial": 230, "trialdata": {"rt": -1000, "trial_type": "single-audio", "word": "scallop", "stimulus": "/static/audio/wordpool/SCALLOP.wav", "conditions": [24, 1600, "a", 24000], "internal_node_id": "0.0-167.0", "trial": 6, "time_elapsed": 1178063, "serialpos": 17, "key_press": -1, "wordID": 1241, "type": "PRES_AUD", "trial_index": 230}, "uniqueid": "MTK2719:3OVHNO1VE78VH9SWP40RH17ALIODZR", "dateTime": 1519253307692}, {"current_trial": 231, "trialdata": {"rt": -1000, "trial_type": "single-audio", "word": "shelter", "stimulus": "/static/audio/wordpool/SHELTER.wav", "conditions": [24, 1600, "a", 24000], "internal_node_id": "0.0-168.0", "trial": 6, "time_elapsed": 1180673, "serialpos": 18, "key_press": -1, "wordID": 1281, "type": "PRES_AUD", "trial_index": 231}, "uniqueid": "MTK2719:3OVHNO1VE78VH9SWP40RH17ALIODZR", "dateTime": 1519253310303}, {"current_trial": 232, "trialdata": {"rt": -1000, "trial_type": "single-audio", "word": "drink", "stimulus": "/static/audio/wordpool/DRINK.wav", "conditions": [24, 1600, "a", 24000], "internal_node_id": "0.0-169.0", "trial": 6, "time_elapsed": 1183324, "serialpos": 19, "key_press": -1, "wordID": 497, "type": "PRES_AUD", "trial_index": 232}, "uniqueid": "MTK2719:3OVHNO1VE78VH9SWP40RH17ALIODZR", "dateTime": 1519253312953}, {"current_trial": 233, "trialdata": {"rt": -1000, "trial_type": "single-audio", "word": "river", "stimulus": "/static/audio/wordpool/RIVER.wav", "conditions": [24, 1600, "a", 24000], "internal_node_id": "0.0-170.0", "trial": 6, "time_elapsed": 1185996, "serialpos": 20, "key_press": -1, "wordID": 1193, "type": "PRES_AUD", "trial_index": 233}, "uniqueid": "MTK2719:3OVHNO1VE78VH9SWP40RH17ALIODZR", "dateTime": 1519253315626}, {"current_trial": 234, "trialdata": {"rt": -1000, "trial_type": "single-audio", "word": "plaster", "stimulus": "/static/audio/wordpool/PLASTER.wav", "conditions": [24, 1600, "a", 24000], "internal_node_id": "0.0-171.0", "trial": 6, "time_elapsed": 1188603, "serialpos": 21, "key_press": -1, "wordID": 1084, "type": "PRES_AUD", "trial_index": 234}, "uniqueid": "MTK2719:3OVHNO1VE78VH9SWP40RH17ALIODZR", "dateTime": 1519253318232}, {"current_trial": 235, "trialdata": {"rt": -1000, "trial_type": "single-audio", "word": "velvet", "stimulus": "/static/audio/wordpool/VELVET.wav", "conditions": [24, 1600, "a", 24000], "internal_node_id": "0.0-172.0", "trial": 6, "time_elapsed": 1191276, "serialpos": 22, "key_press": -1, "wordID": 1554, "type": "PRES_AUD", "trial_index": 235}, "uniqueid": "MTK2719:3OVHNO1VE78VH9SWP40RH17ALIODZR", "dateTime": 1519253320905}, {"current_trial": 236, "trialdata": {"rt": -1000, "trial_type": "single-audio", "word": "brook", "stimulus": "/static/audio/wordpool/BROOK.wav", "conditions": [24, 1600, "a", 24000], "internal_node_id": "0.0-173.0", "trial": 6, "time_elapsed": 1193723, "serialpos": 23, "key_press": -1, "wordID": 176, "type": "PRES_AUD", "trial_index": 236}, "uniqueid": "MTK2719:3OVHNO1VE78VH9SWP40RH17ALIODZR", "dateTime": 1519253323352}, {"current_trial": 237, "trialdata": {"rt": -1, "trial_type": "single-stim", "stimulus": "", "internal_node_id": "0.0-174.0-0.0", "time_elapsed": 1194943, "key_press": -1, "type": "PRE_RECALL_DELAY", "trial_index": 237}, "uniqueid": "MTK2719:3OVHNO1VE78VH9SWP40RH17ALIODZR", "dateTime": 1519253324572}, {"current_trial": 238, "trialdata": {"rt": -1000, "trial_type": "single-audio", "stimulus": "/static/audio/400Hz.wav", "internal_node_id": "0.0-175.0", "time_elapsed": 1195447, "key_press": -1, "type": "PRE_RECALL_ALERT", "trial_index": 238}, "uniqueid": "MTK2719:3OVHNO1VE78VH9SWP40RH17ALIODZR", "dateTime": 1519253325077}, {"current_trial": 239, "trialdata": {"rt": [3895, 6575, 9271, 11572, 16639], "recwords": ["brook", "shelter", "scallop", "cod", "plaster"], "key_times": [1543, 2144, 2553, 2718, 2973, 3895, 4545, 4808, 4995, 5384, 5707, 5913, 6159, 6575, 7089, 7327, 7557, 7957, 8132, 8354, 8561, 9271, 10427, 10733, 11012, 11572, 14704, 14899, 15069, 15321, 15641, 15844, 16102, 16639], "trial_type": "free-recall", "conditions": [24, 1600, "a", 24000], "internal_node_id": "0.0-176.0-0.0", "key_presses": [66, 82, 79, 79, 75, 13, 83, 72, 69, 76, 84, 69, 82, 13, 83, 67, 65, 76, 76, 79, 80, 13, 67, 79, 68, 13, 80, 76, 65, 83, 84, 69, 82, 13], "trial": 6, "time_elapsed": 1255453, "type": "FREE_RECALL", "trial_index": 239}, "uniqueid": "MTK2719:3OVHNO1VE78VH9SWP40RH17ALIODZR", "dateTime": 1519253385089}, {"current_trial": 240, "trialdata": {"rt": 2227, "trial_type": "text", "internal_node_id": "0.0-177.0", "time_elapsed": 1259688, "key_press": 13, "type": "INSTRUCTIONS", "trial_index": 240}, "uniqueid": "MTK2719:3OVHNO1VE78VH9SWP40RH17ALIODZR", "dateTime": 1519253389317}, {"current_trial": 241, "trialdata": {"rt": [3098, 5606, 8421, 11637], "trial_type": "math-distractor", "key_times": [2346, 2497, 3098, 4702, 4968, 5606, 7460, 7624, 8421, 10835, 11011, 11637], "responses": ["11", "13", "20", "10"], "num2": [5, 6, 2, 2, 2], "num3": [5, 6, 9, 3, 4], "conditions": [24, 1600, "a", 12000], "internal_node_id": "0.0-178.0", "key_presses": [97, 97, 13, 97, 99, 13, 98, 96, 13, 97, 96, 13], "trial": 7, "time_elapsed": 1273693, "type": "DISTRACTOR", "trial_index": 241, "num1": [1, 1, 9, 5, 3]}, "uniqueid": "MTK2719:3OVHNO1VE78VH9SWP40RH17ALIODZR", "dateTime": 1519253403322}, {"current_trial": 242, "trialdata": {"rt": -1, "trial_type": "single-stim", "stimulus": "<p id=\"stim\">10</p>", "internal_node_id": "0.0-179.0-0.0", "time_elapsed": 1276696, "key_press": -1, "trial_index": 242}, "uniqueid": "MTK2719:3OVHNO1VE78VH9SWP40RH17ALIODZR", "dateTime": 1519253406325}, {"current_trial": 243, "trialdata": {"rt": -1, "trial_type": "single-stim", "stimulus": "<p id=\"stim\">9</p>", "internal_node_id": "0.0-179.0-1.0", "time_elapsed": 1277698, "key_press": -1, "trial_index": 243}, "uniqueid": "MTK2719:3OVHNO1VE78VH9SWP40RH17ALIODZR", "dateTime": 1519253407327}, {"current_trial": 244, "trialdata": {"rt": -1, "trial_type": "single-stim", "stimulus": "<p id=\"stim\">8</p>", "internal_node_id": "0.0-179.0-2.0", "time_elapsed": 1278702, "key_press": -1, "trial_index": 244}, "uniqueid": "MTK2719:3OVHNO1VE78VH9SWP40RH17ALIODZR", "dateTime": 1519253408331}, {"current_trial": 245, "trialdata": {"rt": -1, "trial_type": "single-stim", "stimulus": "<p id=\"stim\">7</p>", "internal_node_id": "0.0-179.0-3.0", "time_elapsed": 1279704, "key_press": -1, "trial_index": 245}, "uniqueid": "MTK2719:3OVHNO1VE78VH9SWP40RH17ALIODZR", "dateTime": 1519253409333}, {"current_trial": 246, "trialdata": {"rt": -1, "trial_type": "single-stim", "stimulus": "<p id=\"stim\">6</p>", "internal_node_id": "0.0-179.0-4.0", "time_elapsed": 1280705, "key_press": -1, "trial_index": 246}, "uniqueid": "MTK2719:3OVHNO1VE78VH9SWP40RH17ALIODZR", "dateTime": 1519253410334}, {"current_trial": 247, "trialdata": {"rt": -1, "trial_type": "single-stim", "stimulus": "<p id=\"stim\">5</p>", "internal_node_id": "0.0-179.0-5.0", "time_elapsed": 1281708, "key_press": -1, "trial_index": 247}, "uniqueid": "MTK2719:3OVHNO1VE78VH9SWP40RH17ALIODZR", "dateTime": 1519253411340}, {"current_trial": 248, "trialdata": {"rt": -1, "trial_type": "single-stim", "stimulus": "<p id=\"stim\">4</p>", "internal_node_id": "0.0-179.0-6.0", "time_elapsed": 1282712, "key_press": -1, "trial_index": 248}, "uniqueid": "MTK2719:3OVHNO1VE78VH9SWP40RH17ALIODZR", "dateTime": 1519253412342}, {"current_trial": 249, "trialdata": {"rt": -1, "trial_type": "single-stim", "stimulus": "<p id=\"stim\">3</p>", "internal_node_id": "0.0-179.0-7.0", "time_elapsed": 1283714, "key_press": -1, "trial_index": 249}, "uniqueid": "MTK2719:3OVHNO1VE78VH9SWP40RH17ALIODZR", "dateTime": 1519253413344}, {"current_trial": 250, "trialdata": {"rt": -1, "trial_type": "single-stim", "stimulus": "<p id=\"stim\">2</p>", "internal_node_id": "0.0-179.0-8.0", "time_elapsed": 1284716, "key_press": -1, "trial_index": 250}, "uniqueid": "MTK2719:3OVHNO1VE78VH9SWP40RH17ALIODZR", "dateTime": 1519253414345}, {"current_trial": 251, "trialdata": {"rt": -1, "trial_type": "single-stim", "stimulus": "<p id=\"stim\">1</p>", "internal_node_id": "0.0-179.0-9.0", "time_elapsed": 1285718, "key_press": -1, "trial_index": 251}, "uniqueid": "MTK2719:3OVHNO1VE78VH9SWP40RH17ALIODZR", "dateTime": 1519253415348}, {"current_trial": 252, "trialdata": {"rt": -1, "trial_type": "single-stim", "stimulus": "<p id=\"stim\">+</p>", "internal_node_id": "0.0-180.0-0.0", "time_elapsed": 1287221, "key_press": -1, "type": "FIXATION", "trial_index": 252}, "uniqueid": "MTK2719:3OVHNO1VE78VH9SWP40RH17ALIODZR", "dateTime": 1519253416850}, {"current_trial": 253, "trialdata": {"rt": -1000, "trial_type": "single-audio", "word": "custard", "stimulus": "/static/audio/wordpool/CUSTARD.wav", "conditions": [24, 1600, "a", 12000], "internal_node_id": "0.0-181.0", "trial": 7, "time_elapsed": 1289844, "serialpos": 0, "key_press": -1, "wordID": 428, "type": "PRES_AUD", "trial_index": 253}, "uniqueid": "MTK2719:3OVHNO1VE78VH9SWP40RH17ALIODZR", "dateTime": 1519253419474}, {"current_trial": 254, "trialdata": {"rt": -1000, "trial_type": "single-audio", "word": "dime", "stimulus": "/static/audio/wordpool/DIME.wav", "conditions": [24, 1600, "a", 12000], "internal_node_id": "0.0-182.0", "trial": 7, "time_elapsed": 1292324, "serialpos": 1, "key_press": -1, "wordID": 465, "type": "PRES_AUD", "trial_index": 254}, "uniqueid": "MTK2719:3OVHNO1VE78VH9SWP40RH17ALIODZR", "dateTime": 1519253421954}, {"current_trial": 255, "trialdata": {"rt": -1000, "trial_type": "single-audio", "word": "police", "stimulus": "/static/audio/wordpool/POLICE.wav", "conditions": [24, 1600, "a", 12000], "internal_node_id": "0.0-183.0", "trial": 7, "time_elapsed": 1294953, "serialpos": 2, "key_press": -1, "wordID": 1097, "type": "PRES_AUD", "trial_index": 255}, "uniqueid": "MTK2719:3OVHNO1VE78VH9SWP40RH17ALIODZR", "dateTime": 1519253424583}, {"current_trial": 256, "trialdata": {"rt": -1000, "trial_type": "single-audio", "word": "stream", "stimulus": "/static/audio/wordpool/STREAM.