{"assignmentId": "3AQF3RZ559PQRJMHE5Y683H0TEBF6S", "workerId": "MTK3643", "questiondata": {"avail_screen_height": 728, "color_depth": 24, "screen_width": 1366, "pixel_depth": 24, "avail_screen_width": 1366, "screen_height": 768}, "bonus": 0, "hitId": "3BO3NEOQM0O91S2GFOG12L0UKBOIAJ", "counterbalance": 1043, "useragent": "Mozilla/5.0 (Windows NT 6.3; Win64; x64) AppleWebKit/537.36 (KHTML, like Gecko) Chrome/64.0.3282.186 Safari/537.36", "eventdata": [{"eventtype": "initialized", "interval": 0, "value": null, "timestamp": 1520877127023}, {"eventtype": "window_resize", "interval": 0, "value": [1362, 713], "timestamp": 1520877127023}, {"eventtype": "focus", "interval": 587992, "value": "off", "timestamp": 1520877715015}, {"eventtype": "focus", "interval": 65182, "value": "on", "timestamp": 1520877780197}, {"eventtype": "focus", "interval": 1780321, "value": "off", "timestamp": 1520879560518}, {"eventtype": "focus", "interval": 2883, "value": "on", "timestamp": 1520879563401}, {"eventtype": "focus", "interval": 400529, "value": "off", "timestamp": 1520879963930}, {"eventtype": "focus", "interval": 22390, "value": "on", "timestamp": 1520879986320}, {"eventtype": "focus", "interval": 3, "value": "off", "timestamp": 1520879986323}, {"eventtype": "focus", "interval": 5, "value": "on", "timestamp": 1520879986328}], "data": [{"current_trial": 0, "trialdata": {"rt": 5015, "trial_type": "text", "internal_node_id": "0.0-0.0", "time_elapsed": 5018, "key_press": 76, "type": "INSTRUCTIONS", "trial_index": 0}, "uniqueid": "MTK3643:3AQF3RZ559PQRJMHE5Y683H0TEBF6S", "dateTime": 1520877135986}, {"current_trial": 1, "trialdata": {"rt": 44698, "trial_type": "text", "internal_node_id": "0.0-1.0", "time_elapsed": 49721, "key_press": 74, "type": "INSTRUCTIONS", "trial_index": 1}, "uniqueid": "MTK3643:3AQF3RZ559PQRJMHE5Y683H0TEBF6S", "dateTime": 1520877180689}, {"current_trial": 2, "trialdata": {"rt": [14706], "trial_type": "audio-test", "responses": ["ocean"], "internal_node_id": "0.0-2.0", "time_elapsed": 64439, "type": "AUDIO_TEST", "trial_index": 2}, "uniqueid": "MTK3643:3AQF3RZ559PQRJMHE5Y683H0TEBF6S", "dateTime": 1520877195406}, {"current_trial": 3, "trialdata": {"rt": [11132], "trial_type": "audio-test", "responses": ["crystal"], "internal_node_id": "0.0-3.0", "time_elapsed": 75575, "type": "AUDIO_TEST", "trial_index": 3}, "uniqueid": "MTK3643:3AQF3RZ559PQRJMHE5Y683H0TEBF6S", "dateTime": 1520877206542}, {"current_trial": 4, "trialdata": {"rt": [14067], "trial_type": "audio-test", "responses": ["spice"], "internal_node_id": "0.0-4.0", "time_elapsed": 89646, "type": "AUDIO_TEST", "trial_index": 4}, "uniqueid": "MTK3643:3AQF3RZ559PQRJMHE5Y683H0TEBF6S", "dateTime": 1520877220614}, {"current_trial": 5, "trialdata": {"rt": 47963, "trial_type": "survey-text", "responses": "{\"Q0\":\"10 pm\",\"Q1\":\"6 pm\",\"Q2\":\"5\"}", "internal_node_id": "0.0-5.0", "time_elapsed": 138364, "type": "SLEEP_SURVEY", "trial_index": 5}, "uniqueid": "MTK3643:3AQF3RZ559PQRJMHE5Y683H0TEBF6S", "dateTime": 1520877269331}, {"current_trial": 6, "trialdata": {"rt": 59052, "trial_type": "text", "internal_node_id": "0.0-6.0", "time_elapsed": 198418, "key_press": 20, "type": "INSTRUCTIONS", "trial_index": 6}, "uniqueid": "MTK3643:3AQF3RZ559PQRJMHE5Y683H0TEBF6S", "dateTime": 1520877329385}, {"current_trial": 7, "trialdata": {"rt": 39543, "trial_type": "text", "internal_node_id": "0.0-7.0", "time_elapsed": 238463, "key_press": 13, "type": "INSTRUCTIONS", "trial_index": 7}, "uniqueid": "MTK3643:3AQF3RZ559PQRJMHE5Y683H0TEBF6S", "dateTime": 1520877369431}, {"current_trial": 8, "trialdata": {"rt": 16731, "trial_type": "text", "internal_node_id": "0.0-8.0", "time_elapsed": 255697, "key_press": 72, "type": "INSTRUCTIONS", "trial_index": 8}, "uniqueid": "MTK3643:3AQF3RZ559PQRJMHE5Y683H0TEBF6S", "dateTime": 1520877386664}, {"current_trial": 9, "trialdata": {"rt": [8399, 11903, 14711], "trial_type": "math-distractor", "key_times": [7512, 8399, 11256, 11455, 11903, 13984, 14135, 14711, 17104, 17695], "responses": ["9", "13", "12"], "num2": [1, 2, 4, 3], "num3": [4, 9, 4, 5], "conditions": [18, 1200, "v", 18000], "internal_node_id": "0.0-9.0", "key_presses": [105, 13, 97, 99, 13, 97, 98, 13, 49, 53], "trial": 0, "time_elapsed": 274708, "type": "DISTRACTOR", "trial_index": 9, "num1": [4, 2, 4, 7]}, "uniqueid": "MTK3643:3AQF3RZ559PQRJMHE5Y683H0TEBF6S", "dateTime": 1520877405675}, {"current_trial": 10, "trialdata": {"rt": -1, "trial_type": "single-stim", "stimulus": "<p id=\"stim\">10</p>", "internal_node_id": "0.0-10.0-0.0", "time_elapsed": 277711, "key_press": -1, "trial_index": 10}, "uniqueid": "MTK3643:3AQF3RZ559PQRJMHE5Y683H0TEBF6S", "dateTime": 1520877408678}, {"current_trial": 11, "trialdata": {"rt": -1, "trial_type": "single-stim", "stimulus": "<p id=\"stim\">9</p>", "internal_node_id": "0.0-10.0-1.0", "time_elapsed": 278713, "key_press": -1, "trial_index": 11}, "uniqueid": "MTK3643:3AQF3RZ559PQRJMHE5Y683H0TEBF6S", "dateTime": 1520877409680}, {"current_trial": 12, "trialdata": {"rt": -1, "trial_type": "single-stim", "stimulus": "<p id=\"stim\">8</p>", "internal_node_id": "0.0-10.0-2.0", "time_elapsed": 279715, "key_press": -1, "trial_index": 12}, "uniqueid": "MTK3643:3AQF3RZ559PQRJMHE5Y683H0TEBF6S", "dateTime": 1520877410682}, {"current_trial": 13, "trialdata": {"rt": -1, "trial_type": "single-stim", "stimulus": "<p id=\"stim\">7</p>", "internal_node_id": "0.0-10.0-3.0", "time_elapsed": 280718, "key_press": -1, "trial_index": 13}, "uniqueid": "MTK3643:3AQF3RZ559PQRJMHE5Y683H0TEBF6S", "dateTime": 1520877411685}, {"current_trial": 14, "trialdata": {"rt": -1, "trial_type": "single-stim", "stimulus": "<p id=\"stim\">6</p>", "internal_node_id": "0.0-10.0-4.0", "time_elapsed": 281720, "key_press": -1, "trial_index": 14}, "uniqueid": "MTK3643:3AQF3RZ559PQRJMHE5Y683H0TEBF6S", "dateTime": 1520877412687}, {"current_trial": 15, "trialdata": {"rt": -1, "trial_type": "single-stim", "stimulus": "<p id=\"stim\">5</p>", "internal_node_id": "0.0-10.0-5.0", "time_elapsed": 282723, "key_press": -1, "trial_index": 15}, "uniqueid": "MTK3643:3AQF3RZ559PQRJMHE5Y683H0TEBF6S", "dateTime": 1520877413690}, {"current_trial": 16, "trialdata": {"rt": -1, "trial_type": "single-stim", "stimulus": "<p id=\"stim\">4</p>", "internal_node_id": "0.0-10.0-6.0", "time_elapsed": 283725, "key_press": -1, "trial_index": 16}, "uniqueid": "MTK3643:3AQF3RZ559PQRJMHE5Y683H0TEBF6S", "dateTime": 1520877414692}, {"current_trial": 17, "trialdata": {"rt": -1, "trial_type": "single-stim", "stimulus": "<p id=\"stim\">3</p>", "internal_node_id": "0.0-10.0-7.0", "time_elapsed": 284729, "key_press": -1, "trial_index": 17}, "uniqueid": "MTK3643:3AQF3RZ559PQRJMHE5Y683H0TEBF6S", "dateTime": 1520877415696}, {"current_trial": 18, "trialdata": {"rt": -1, "trial_type": "single-stim", "stimulus": "<p id=\"stim\">2</p>", "internal_node_id": "0.0-10.0-8.0", "time_elapsed": 285731, "key_press": -1, "trial_index": 18}, "uniqueid": "MTK3643:3AQF3RZ559PQRJMHE5Y683H0TEBF6S", "dateTime": 1520877416698}, {"current_trial": 19, "trialdata": {"rt": -1, "trial_type": "single-stim", "stimulus": "<p id=\"stim\">1</p>", "internal_node_id": "0.0-10.0-9.0", "time_elapsed": 286733, "key_press": -1, "trial_index": 19}, "uniqueid": "MTK3643:3AQF3RZ559PQRJMHE5Y683H0TEBF6S", "dateTime": 1520877417700}, {"current_trial": 20, "trialdata": {"rt": -1, "trial_type": "single-stim", "stimulus": "<p id=\"stim\">+</p>", "internal_node_id": "0.0-11.0-0.0", "time_elapsed": 288234, "key_press": -1, "type": "FIXATION", "trial_index": 20}, "uniqueid": "MTK3643:3AQF3RZ559PQRJMHE5Y683H0TEBF6S", "dateTime": 1520877419201}, {"current_trial": 21, "trialdata": {"rt": -1, "trial_type": "single-stim", "word": "money", "stimulus": "<p id=\"stim\">MONEY</p>", "conditions": [18, 1200, "v", 18000], "internal_node_id": "0.0-12.0", "trial": 0, "time_elapsed": 289436, "serialpos": 0, "key_press": -1, "wordID": 907, "type": "PRES_VIS", "trial_index": 21}, "uniqueid": "MTK3643:3AQF3RZ559PQRJMHE5Y683H0TEBF6S", "dateTime": 1520877420404}, {"current_trial": 22, "trialdata": {"rt": -1, "trial_type": "single-stim", "word": "france", "stimulus": "<p id=\"stim\">FRANCE</p>", "conditions": [18, 1200, "v", 18000], "internal_node_id": "0.0-13.0", "trial": 0, "time_elapsed": 291755, "serialpos": 1, "key_press": -1, "wordID": 600, "type": "PRES_VIS", "trial_index": 22}, "uniqueid": "MTK3643:3AQF3RZ559PQRJMHE5Y683H0TEBF6S", "dateTime": 1520877422722}, {"current_trial": 23, "trialdata": {"rt": -1, "trial_type": "single-stim", "word": "cocoon", "stimulus": "<p id=\"stim\">COCOON</p>", "conditions": [18, 1200, "v", 18000], "internal_node_id": "0.0-14.0", "trial": 0, "time_elapsed": 293783, "serialpos": 2, "key_press": -1, "wordID": 338, "type": "PRES_VIS", "trial_index": 23}, "uniqueid": "MTK3643:3AQF3RZ559PQRJMHE5Y683H0TEBF6S", "dateTime": 1520877424750}, {"current_trial": 24, "trialdata": {"rt": -1, "trial_type": "single-stim", "word": "space", "stimulus": "<p id=\"stim\">SPACE</p>", "conditions": [18, 1200, "v", 18000], "internal_node_id": "0.0-15.0", "trial": 0, "time_elapsed": 296046, "serialpos": 3, "key_press": -1, "wordID": 1344, "type": "PRES_VIS", "trial_index": 24}, "uniqueid": "MTK3643:3AQF3RZ559PQRJMHE5Y683H0TEBF6S", "dateTime": 1520877427014}, {"current_trial": 25, "trialdata": {"rt": -1, "trial_type": "single-stim", "word": "cricket", "stimulus": "<p id=\"stim\">CRICKET</p>", "conditions": [18, 1200, "v", 18000], "internal_node_id": "0.0-16.0", "trial": 0, "time_elapsed": 298444, "serialpos": 4, "key_press": -1, "wordID": 407, "type": "PRES_VIS", "trial_index": 25}, "uniqueid": "MTK3643:3AQF3RZ559PQRJMHE5Y683H0TEBF6S", "dateTime": 1520877429411}, {"current_trial": 26, "trialdata": {"rt": -1, "trial_type": "single-stim", "word": "camel", "stimulus": "<p id=\"stim\">CAMEL</p>", "conditions": [18, 1200, "v", 18000], "internal_node_id": "0.0-17.0", "trial": 0, "time_elapsed": 300657, "serialpos": 5, "key_press": -1, "wordID": 222, "type": "PRES_VIS", "trial_index": 26}, "uniqueid": "MTK3643:3AQF3RZ559PQRJMHE5Y683H0TEBF6S", "dateTime": 1520877431624}, {"current_trial": 27, "trialdata": {"rt": -1, "trial_type": "single-stim", "word": "table", "stimulus": "<p id=\"stim\">TABLE</p>", "conditions": [18, 1200, "v", 18000], "internal_node_id": "0.0-18.0", "trial": 0, "time_elapsed": 302741, "serialpos": 6, "key_press": -1, "wordID": 1425, "type": "PRES_VIS", "trial_index": 27}, "uniqueid": "MTK3643:3AQF3RZ559PQRJMHE5Y683H0TEBF6S", "dateTime": 1520877433708}, {"current_trial": 28, "trialdata": {"rt": -1, "trial_type": "single-stim", "word": "cabbage", "stimulus": "<p id=\"stim\">CABBAGE</p>", "conditions": [18, 1200, "v", 18000], "internal_node_id": "0.0-19.0", "trial": 0, "time_elapsed": 304911, "serialpos": 7, "key_press": -1, "wordID": 209, "type": "PRES_VIS", "trial_index": 28}, "uniqueid": "MTK3643:3AQF3RZ559PQRJMHE5Y683H0TEBF6S", "dateTime": 1520877435878}, {"current_trial": 29, "trialdata": {"rt": -1, "trial_type": "single-stim", "word": "wife", "stimulus": "<p id=\"stim\">WIFE</p>", "conditions": [18, 1200, "v", 18000], "internal_node_id": "0.0-20.0", "trial": 0, "time_elapsed": 307194, "serialpos": 8, "key_press": -1, "wordID": 1608, "type": "PRES_VIS", "trial_index": 29}, "uniqueid": "MTK3643:3AQF3RZ559PQRJMHE5Y683H0TEBF6S", "dateTime": 1520877438161}, {"current_trial": 30, "trialdata": {"rt": -1, "trial_type": "single-stim", "word": "twig", "stimulus": "<p id=\"stim\">TWIG</p>", "conditions": [18, 1200, "v", 18000], "internal_node_id": "0.0-21.0", "trial": 0, "time_elapsed": 309334, "serialpos": 9, "key_press": -1, "wordID": 1526, "type": "PRES_VIS", "trial_index": 30}, "uniqueid": "MTK3643:3AQF3RZ559PQRJMHE5Y683H0TEBF6S", "dateTime": 1520877440301}, {"current_trial": 31, "trialdata": {"rt": -1, "trial_type": "single-stim", "word": "dust", "stimulus": "<p id=\"stim\">DUST</p>", "conditions": [18, 1200, "v", 18000], "internal_node_id": "0.0-22.0", "trial": 0, "time_elapsed": 311660, "serialpos": 10, "key_press": -1, "wordID": 507, "type": "PRES_VIS", "trial_index": 31}, "uniqueid": "MTK3643:3AQF3RZ559PQRJMHE5Y683H0TEBF6S", "dateTime": 1520877442627}, {"current_trial": 32, "trialdata": {"rt": -1, "trial_type": "single-stim", "word": "liver", "stimulus": "<p id=\"stim\">LIVER</p>", "conditions": [18, 1200, "v", 18000], "internal_node_id": "0.0-23.0", "trial": 0, "time_elapsed": 313695, "serialpos": 11, "key_press": -1, "wordID": 832, "type": "PRES_VIS", "trial_index": 32}, "uniqueid": "MTK3643:3AQF3RZ559PQRJMHE5Y683H0TEBF6S", "dateTime": 1520877444663}, {"current_trial": 33, "trialdata": {"rt": -1, "trial_type": "single-stim", "word": "london", "stimulus": "<p id=\"stim\">LONDON</p>", "conditions": [18, 1200, "v", 18000], "internal_node_id": "0.0-24.0", "trial": 0, "time_elapsed": 316044, "serialpos": 12, "key_press": -1, "wordID": 842, "type": "PRES_VIS", "trial_index": 33}, "uniqueid": "MTK3643:3AQF3RZ559PQRJMHE5Y683H0TEBF6S", "dateTime": 1520877447011}, {"current_trial": 34, "trialdata": {"rt": -1, "trial_type": "single-stim", "word": "award", "stimulus": "<p id=\"stim\">AWARD</p>", "conditions": [18, 1200, "v", 18000], "internal_node_id": "0.0-25.0", "trial": 0, "time_elapsed": 318398, "serialpos": 13, "key_press": -1, "wordID": 62, "type": "PRES_VIS", "trial_index": 34}, "uniqueid": "MTK3643:3AQF3RZ559PQRJMHE5Y683H0TEBF6S", "dateTime": 1520877449365}, {"current_trial": 35, "trialdata": {"rt": -1, "trial_type": "single-stim", "word": "poison", "stimulus": "<p id=\"stim\">POISON</p>", "conditions": [18, 1200, "v", 18000], "internal_node_id": "0.0-26.0", "trial": 0, "time_elapsed": 320694, "serialpos": 14, "key_press": -1, "wordID": 1095, "type": "PRES_VIS", "trial_index": 35}, "uniqueid": "MTK3643:3AQF3RZ559PQRJMHE5Y683H0TEBF6S", "dateTime": 1520877451662}, {"current_trial": 36, "trialdata": {"rt": -1, "trial_type": "single-stim", "word": "seal", "stimulus": "<p id=\"stim\">SEAL</p>", "conditions": [18, 1200, "v", 18000], "internal_node_id": "0.0-27.0", "trial": 0, "time_elapsed": 322731, "serialpos": 15, "key_press": -1, "wordID": 1261, "type": "PRES_VIS", "trial_index": 36}, "uniqueid": "MTK3643:3AQF3RZ559PQRJMHE5Y683H0TEBF6S", "dateTime": 1520877453698}, {"current_trial": 37, "trialdata": {"rt": -1, "trial_type": "single-stim", "word": "outdoors", "stimulus": "<p id=\"stim\">OUTDOORS</p>", "conditions": [18, 1200, "v", 18000], "internal_node_id": "0.0-28.0", "trial": 0, "time_elapsed": 324838, "serialpos": 16, "key_press": -1, "wordID": 986, "type": "PRES_VIS", "trial_index": 37}, "uniqueid": "MTK3643:3AQF3RZ559PQRJMHE5Y683H0TEBF6S", "dateTime": 1520877455805}, {"current_trial": 38, "trialdata": {"rt": -1, "trial_type": "single-stim", "word": "candy", "stimulus": "<p id=\"stim\">CANDY</p>", "conditions": [18, 1200, "v", 18000], "internal_node_id": "0.0-29.0", "trial": 0, "time_elapsed": 327164, "serialpos": 17, "key_press": -1, "wordID": 229, "type": "PRES_VIS", "trial_index": 38}, "uniqueid": "MTK3643:3AQF3RZ559PQRJMHE5Y683H0TEBF6S", "dateTime": 1520877458131}, {"current_trial": 39, "trialdata": {"rt": -1, "trial_type": "single-stim", "stimulus": "", "internal_node_id": "0.0-30.0-0.0", "time_elapsed": 329668, "key_press": -1, "type": "PRE_RECALL_DELAY", "trial_index": 39}, "uniqueid": "MTK3643:3AQF3RZ559PQRJMHE5Y683H0TEBF6S", "dateTime": 1520877460636}, {"current_trial": 40, "trialdata": {"rt": -1000, "trial_type": "single-audio", "stimulus": "/static/audio/400Hz.wav", "internal_node_id": "0.0-31.0", "time_elapsed": 330176, "key_press": -1, "type": "PRE_RECALL_ALERT", "trial_index": 40}, "uniqueid": "MTK3643:3AQF3RZ559PQRJMHE5Y683H0TEBF6S", "dateTime": 1520877461143}, {"current_trial": 41, "trialdata": {"rt": [5283, 9283, 12308, 17228, 28500, 39883, 50083], "recwords": ["seal", "outdoors", "london", "candy", "cocoon", "liver", "dust"], "key_times": [3005, 3253, 3484, 4669, 5283, 6269, 6524, 6828, 7261, 7893, 8084, 8564, 8813, 9283, 9654, 9829, 10276, 10604, 11054, 11403, 12308, 12884, 13149, 13804, 14573, 15253, 17228, 18798, 19124, 19676, 20980, 21165, 21484, 23548, 23733, 23909, 24084, 24260, 25565, 25981, 26540, 26693, 26915, 28500, 31940, 32253, 32828, 33197, 33494, 33728, 35053, 35553, 35586, 35619, 35653, 35685, 35718, 35751, 35785, 35817, 35850, 35883, 35916, 35948, 35981, 38324, 38523, 38932, 39116, 39436, 39883, 48285, 48668, 49052, 49292, 50083, 57228, 57444, 57756, 58180, 58668, 59564], "trial_type": "free-recall", "conditions": [18, 1200, "v", 18000], "internal_node_id": "0.0-32.0-0.0", "key_presses": [83, 69, 65, 76, 13, 79, 85, 84, 68, 79, 79, 82, 83, 13, 76, 79, 78, 68, 79, 78, 13, 67, 65, 78, 68, 89, 13, 67, 65, 67, 79, 79, 78, 8, 8, 8, 8, 8, 79, 67, 79, 79, 78, 13, 86, 65, 78, 73, 76, 76, 8, 8, 8, 8, 8, 8, 8, 8, 8, 8, 8, 8, 8, 8, 8, 76, 73, 86, 69, 82, 13, 68, 85, 83, 84, 13, 80, 79, 73, 83, 79, 78], "trial": 0, "time_elapsed": 390174, "type": "FREE_RECALL", "trial_index": 41}, "uniqueid": "MTK3643:3AQF3RZ559PQRJMHE5Y683H0TEBF6S", "dateTime": 1520877521146}, {"current_trial": 42, "trialdata": {"rt": 420, "trial_type": "text", "internal_node_id": "0.0-33.0", "time_elapsed": 392601, "key_press": 77, "type": "INSTRUCTIONS", "trial_index": 42}, "uniqueid": "MTK3643:3AQF3RZ559PQRJMHE5Y683H0TEBF6S", "dateTime": 1520877523568}, {"current_trial": 43, "trialdata": {"rt": [251, 6331, 10043, 14411], "trial_type": "math-distractor", "key_times": [251, 5436, 5588, 6331, 8588, 9492, 10043, 13956, 14411, 17805], "responses": ["", "21", "18", "8"], "num2": [7, 7, 6, 4, 1], "num3": [5, 9, 3, 3, 1], "conditions": [18, 1200, "v", 18000], "internal_node_id": "0.0-34.0", "key_presses": [13, 98, 97, 13, 49, 56, 13, 104, 13, 101], "trial": 1, "time_elapsed": 412615, "type": "DISTRACTOR", "trial_index": 43, "num1": [1, 5, 9, 1, 3]}, "uniqueid": "MTK3643:3AQF3RZ559PQRJMHE5Y683H0TEBF6S", "dateTime": 1520877543583}, {"current_trial": 44, "trialdata": {"rt": -1, "trial_type": "single-stim", "stimulus": "<p id=\"stim\">10</p>", "internal_node_id": "0.0-35.0-0.0", "time_elapsed": 415618, "key_press": -1, "trial_index": 44}, "uniqueid": "MTK3643:3AQF3RZ559PQRJMHE5Y683H0TEBF6S", "dateTime": 1520877546585}, {"current_trial": 45, "trialdata": {"rt": -1, "trial_type": "single-stim", "stimulus": "<p id=\"stim\">9</p>", "internal_node_id": "0.0-35.0-1.0", "time_elapsed": 416620, "key_press": -1, "trial_index": 45}, "uniqueid": "MTK3643:3AQF3RZ559PQRJMHE5Y683H0TEBF6S", "dateTime": 1520877547587}, {"current_trial": 46, "trialdata": {"rt": -1, "trial_type": "single-stim", "stimulus": "<p id=\"stim\">8</p>", "internal_node_id": "0.0-35.0-2.0", "time_elapsed": 417621, "key_press": -1, "trial_index": 46}, "uniqueid": "MTK3643:3AQF3RZ559PQRJMHE5Y683H0TEBF6S", "dateTime": 1520877548588}, {"current_trial": 47, "trialdata": {"rt": -1, "trial_type": "single-stim", "stimulus": "<p id=\"stim\">7</p>", "internal_node_id": "0.0-35.0-3.0", "time_elapsed": 418623, "key_press": -1, "trial_index": 47}, "uniqueid": "MTK3643:3AQF3RZ559PQRJMHE5Y683H0TEBF6S", "dateTime": 1520877549591}, {"current_trial": 48, "trialdata": {"rt": -1, "trial_type": "single-stim", "stimulus": "<p id=\"stim\">6</p>", "internal_node_id": "0.0-35.0-4.0", "time_elapsed": 419626, "key_press": -1, "trial_index": 48}, "uniqueid": "MTK3643:3AQF3RZ559PQRJMHE5Y683H0TEBF6S", "dateTime": 1520877550593}, {"current_trial": 49, "trialdata": {"rt": -1, "trial_type": "single-stim", "stimulus": "<p id=\"stim\">5</p>", "internal_node_id": "0.0-35.0-5.0", "time_elapsed": 420627, "key_press": -1, "trial_index": 49}, "uniqueid": "MTK3643:3AQF3RZ559PQRJMHE5Y683H0TEBF6S", "dateTime": 1520877551595}, {"current_trial": 50, "trialdata": {"rt": -1, "trial_type": "single-stim", "stimulus": "<p id=\"stim\">4</p>", "internal_node_id": "0.0-35.0-6.0", "time_elapsed": 421629, "key_press": -1, "trial_index": 50}, "uniqueid": "MTK3643:3AQF3RZ559PQRJMHE5Y683H0TEBF6S", "dateTime": 1520877552596}, {"current_trial": 51, "trialdata": {"rt": -1, "trial_type": "single-stim", "stimulus": "<p id=\"stim\">3</p>", "internal_node_id": "0.0-35.0-7.0", "time_elapsed": 422631, "key_press": -1, "trial_index": 51}, "uniqueid": "MTK3643:3AQF3RZ559PQRJMHE5Y683H0TEBF6S", "dateTime": 1520877553598}, {"current_trial": 52, "trialdata": {"rt": -1, "trial_type": "single-stim", "stimulus": "<p id=\"stim\">2</p>", "internal_node_id": "0.0-35.0-8.0", "time_elapsed": 423633, "key_press": -1, "trial_index": 52}, "uniqueid": "MTK3643:3AQF3RZ559PQRJMHE5Y683H0TEBF6S", "dateTime": 1520877554600}, {"current_trial": 53, "trialdata": {"rt": -1, "trial_type": "single-stim", "stimulus": "<p id=\"stim\">1</p>", "internal_node_id": "0.0-35.0-9.0", "time_elapsed": 424635, "key_press": -1, "trial_index": 53}, "uniqueid": "MTK3643:3AQF3RZ559PQRJMHE5Y683H0TEBF6S", "dateTime": 1520877555603}, {"current_trial": 54, "trialdata": {"rt": -1, "trial_type": "single-stim", "stimulus": "<p id=\"stim\">+</p>", "internal_node_id": "0.0-36.0-0.0", "time_elapsed": 426138, "key_press": -1, "type": "FIXATION", "trial_index": 54}, "uniqueid": "MTK3643:3AQF3RZ559PQRJMHE5Y683H0TEBF6S", "dateTime": 1520877557105}, {"current_trial": 55, "trialdata": {"rt": -1, "trial_type": "single-stim", "word": "partner", "stimulus": "<p id=\"stim\">PARTNER</p>", "conditions": [18, 1200, "v", 18000], "internal_node_id": "0.0-37.0", "trial": 1, "time_elapsed": 427341, "serialpos": 0, "key_press": -1, "wordID": 1016, "type": "PRES_VIS", "trial_index": 55}, "uniqueid": "MTK3643:3AQF3RZ559PQRJMHE5Y683H0TEBF6S", "dateTime": 1520877558308}, {"current_trial": 56, "trialdata": {"rt": -1, "trial_type": "single-stim", "word": "buggy", "stimulus": "<p id=\"stim\">BUGGY</p>", "conditions": [18, 1200, "v", 18000], "internal_node_id": "0.0-38.0", "trial": 1, "time_elapsed": 429518, "serialpos": 1, "key_press": -1, "wordID": 187, "type": "PRES_VIS", "trial_index": 56}, "uniqueid": "MTK3643:3AQF3RZ559PQRJMHE5Y683H0TEBF6S", "dateTime": 1520877560485}, {"current_trial": 57, "trialdata": {"rt": -1, "trial_type": "single-stim", "word": "eagle", "stimulus": "<p id=\"stim\">EAGLE</p>", "conditions": [18, 1200, "v", 18000], "internal_node_id": "0.0-39.0", "trial": 1, "time_elapsed": 431849, "serialpos": 2, "key_press": -1, "wordID": 511, "type": "PRES_VIS", "trial_index": 57}, "uniqueid": "MTK3643:3AQF3RZ559PQRJMHE5Y683H0TEBF6S", "dateTime": 1520877562817}, {"current_trial": 58, "trialdata": {"rt": -1, "trial_type": "single-stim", "word": "wrist", "stimulus": "<p id=\"stim\">WRIST</p>", "conditions": [18, 1200, "v", 18000], "internal_node_id": "0.0-40.0", "trial": 1, "time_elapsed": 434158, "serialpos": 3, "key_press": -1, "wordID": 1625, "type": "PRES_VIS", "trial_index": 58}, "uniqueid": "MTK3643:3AQF3RZ559PQRJMHE5Y683H0TEBF6S", "dateTime": 1520877565125}, {"current_trial": 59, "trialdata": {"rt": -1, "trial_type": "single-stim", "word": "sketch", "stimulus": "<p id=\"stim\">SKETCH</p>", "conditions": [18, 1200, "v", 18000], "internal_node_id": "0.0-41.0", "trial": 1, "time_elapsed": 436329, "serialpos": 4, "key_press": -1, "wordID": 1314, "type": "PRES_VIS", "trial_index": 59}, "uniqueid": "MTK3643:3AQF3RZ559PQRJMHE5Y683H0TEBF6S", "dateTime": 1520877567296}, {"current_trial": 60, "trialdata": {"rt": -1, "trial_type": "single-stim", "word": "spool", "stimulus": "<p id=\"stim\">SPOOL</p>", "conditions": [18, 1200, "v", 18000], "internal_node_id": "0.0-42.0", "trial": 1, "time_elapsed": 438555, "serialpos": 5, "key_press": -1, "wordID": 1355, "type": "PRES_VIS", "trial_index": 60}, "uniqueid": "MTK3643:3AQF3RZ559PQRJMHE5Y683H0TEBF6S", "dateTime": 1520877569522}, {"current_trial": 61, "trialdata": {"rt": -1, "trial_type": "single-stim", "word": "hamper", "stimulus": "<p id=\"stim\">HAMPER</p>", "conditions": [18, 1200, "v", 18000], "internal_node_id": "0.0-43.0", "trial": 1, "time_elapsed": 440725, "serialpos": 6, "key_press": -1, "wordID": 681, "type": "PRES_VIS", "trial_index": 61}, "uniqueid": "MTK3643:3AQF3RZ559PQRJMHE5Y683H0TEBF6S", "dateTime": 1520877571693}, {"current_trial": 62, "trialdata": {"rt": -1, "trial_type": "single-stim", "word": "orchid", "stimulus": "<p id=\"stim\">ORCHID</p>", "conditions": [18, 1200, "v", 18000], "internal_node_id": "0.0-44.0", "trial": 1, "time_elapsed": 442742, "serialpos": 7, "key_press": -1, "wordID": 981, "type": "PRES_VIS", "trial_index": 62}, "uniqueid": "MTK3643:3AQF3RZ559PQRJMHE5Y683H0TEBF6S", "dateTime": 1520877573710}, {"current_trial": 63, "trialdata": {"rt": -1, "trial_type": "single-stim", "word": "football", "stimulus": "<p id=\"stim\">FOOTBALL</p>", "conditions": [18, 1200, "v", 18000], "internal_node_id": "0.0-45.0", "trial": 1, "time_elapsed": 444752, "serialpos": 8, "key_press": -1, "wordID": 590, "type": "PRES_VIS", "trial_index": 63}, "uniqueid": "MTK3643:3AQF3RZ559PQRJMHE5Y683H0TEBF6S", "dateTime": 1520877575719}, {"current_trial": 64, "trialdata": {"rt": -1, "trial_type": "single-stim", "word": "sponge", "stimulus": "<p id=\"stim\">SPONGE</p>", "conditions": [18, 1200, "v", 18000], "internal_node_id": "0.0-46.0", "trial": 1, "time_elapsed": 446800, "serialpos": 9, "key_press": -1, "wordID": 1354, "type": "PRES_VIS", "trial_index": 64}, "uniqueid": "MTK3643:3AQF3RZ559PQRJMHE5Y683H0TEBF6S", "dateTime": 1520877577767}, {"current_trial": 65, "trialdata": {"rt": -1, "trial_type": "single-stim", "word": "whiskers", "stimulus": "<p id=\"stim\">WHISKERS</p>", "conditions": [18, 1200, "v", 18000], "internal_node_id": "0.0-47.0", "trial": 1, "time_elapsed": 448923, "serialpos": 10, "key_press": -1, "wordID": 1604, "type": "PRES_VIS", "trial_index": 65}, "uniqueid": "MTK3643:3AQF3RZ559PQRJMHE5Y683H0TEBF6S", "dateTime": 1520877579890}, {"current_trial": 66, "trialdata": {"rt": -1, "trial_type": "single-stim", "word": "apron", "stimulus": "<p id=\"stim\">APRON</p>", "conditions": [18, 1200, "v", 18000], "internal_node_id": "0.0-48.0", "trial": 1, "time_elapsed": 450973, "serialpos": 11, "key_press": -1, "wordID": 34, "type": "PRES_VIS", "trial_index": 66}, "uniqueid": "MTK3643:3AQF3RZ559PQRJMHE5Y683H0TEBF6S", "dateTime": 1520877581940}, {"current_trial": 67, "trialdata": {"rt": -1, "trial_type": "single-stim", "word": "viking", "stimulus": "<p id=\"stim\">VIKING</p>", "conditions": [18, 1200, "v", 18000], "internal_node_id": "0.0-49.0", "trial": 1, "time_elapsed": 453335, "serialpos": 12, "key_press": -1, "wordID": 1564, "type": "PRES_VIS", "trial_index": 67}, "uniqueid": "MTK3643:3AQF3RZ559PQRJMHE5Y683H0TEBF6S", "dateTime": 1520877584303}, {"current_trial": 68, "trialdata": {"rt": -1, "trial_type": "single-stim", "word": "swimmer", "stimulus": "<p id=\"stim\">SWIMMER</p>", "conditions": [18, 1200, "v", 18000], "internal_node_id": "0.0-50.0", "trial": 1, "time_elapsed": 455601, "serialpos": 13, "key_press": -1, "wordID": 1419, "type": "PRES_VIS", "trial_index": 68}, "uniqueid": "MTK3643:3AQF3RZ559PQRJMHE5Y683H0TEBF6S", "dateTime": 1520877586573}, {"current_trial": 69, "trialdata": {"rt": -1, "trial_type": "single-stim", "word": "gift", "stimulus": "<p id=\"stim\">GIFT</p>", "conditions": [18, 1200, "v", 18000], "internal_node_id": "0.0-51.0", "trial": 1, "time_elapsed": 457655, "serialpos": 14, "key_press": -1, "wordID": 634, "type": "PRES_VIS", "trial_index": 69}, "uniqueid": "MTK3643:3AQF3RZ559PQRJMHE5Y683H0TEBF6S", "dateTime": 1520877588622}, {"current_trial": 70, "trialdata": {"rt": -1, "trial_type": "single-stim", "word": "crevice", "stimulus": "<p id=\"stim\">CREVICE</p>", "conditions": [18, 1200, "v", 18000], "internal_node_id": "0.0-52.0", "trial": 1, "time_elapsed": 459815, "serialpos": 15, "key_press": -1, "wordID": 404, "type": "PRES_VIS", "trial_index": 70}, "uniqueid": "MTK3643:3AQF3RZ559PQRJMHE5Y683H0TEBF6S", "dateTime": 1520877590782}, {"current_trial": 71, "trialdata": {"rt": -1, "trial_type": "single-stim", "word": "gravel", "stimulus": "<p id=\"stim\">GRAVEL</p>", "conditions": [18, 1200, "v", 18000], "internal_node_id": "0.0-53.0", "trial": 1, "time_elapsed": 462153, "serialpos": 16, "key_press": -1, "wordID": 658, "type": "PRES_VIS", "trial_index": 71}, "uniqueid": "MTK3643:3AQF3RZ559PQRJMHE5Y683H0TEBF6S", "dateTime": 1520877593120}, {"current_trial": 72, "trialdata": {"rt": -1, "trial_type": "single-stim", "word": "parent", "stimulus": "<p id=\"stim\">PARENT</p>", "conditions": [18, 1200, "v", 18000], "internal_node_id": "0.0-54.0", "trial": 1, "time_elapsed": 464396, "serialpos": 17, "key_press": -1, "wordID": 1012, "type": "PRES_VIS", "trial_index": 72}, "uniqueid": "MTK3643:3AQF3RZ559PQRJMHE5Y683H0TEBF6S", "dateTime": 1520877595363}, {"current_trial": 73, "trialdata": {"rt": -1, "trial_type": "single-stim", "stimulus": "", "internal_node_id": "0.0-55.0-0.0", "time_elapsed": 466571, "key_press": -1, "type": "PRE_RECALL_DELAY", "trial_index": 73}, "uniqueid": "MTK3643:3AQF3RZ559PQRJMHE5Y683H0TEBF6S", "dateTime": 1520877597538}, {"current_trial": 74, "trialdata": {"rt": -1000, "trial_type": "single-audio", "stimulus": "/static/audio/400Hz.wav", "internal_node_id": "0.0-56.0", "time_elapsed": 467074, "key_press": -1, "type": "PRE_RECALL_ALERT", "trial_index": 74}, "uniqueid": "MTK3643:3AQF3RZ559PQRJMHE5Y683H0TEBF6S", "dateTime": 1520877598042}, {"current_trial": 75, "trialdata": {"rt": [5645, 9780, 13844, 16276, 22236, 25580, 30364, 38132, 42948, 49100], "recwords": ["parent", "gravel", "whiskers", "adult", "outdoors", "football", "whiskers", "buggy", "orchid", "partner"], "key_times": [3142, 3660, 4149, 4333, 4853, 5229, 5645, 5917, 6125, 6453, 7197, 7781, 8629, 9780, 10629, 11237, 11421, 11789, 12548, 12972, 13117, 13317, 13844, 14301, 14557, 15092, 15397, 15677, 16276, 19373, 19580, 19933, 20261, 20797, 20957, 21357, 21597, 22236, 22748, 23189, 23341, 23628, 23910, 24229, 25005, 25149, 25580, 27212, 27757, 27996, 28382, 28957, 29469, 29596, 29805, 30364, 35509, 35853, 36269, 36533, 37093, 38132, 40140, 40493, 41415, 41645, 41821, 42468, 42948, 46646, 47180, 47420, 47572, 48109, 48293, 48510, 49100, 58158, 58429, 58685, 59525], "trial_type": "free-recall", "conditions": [18, 1200, "v", 18000], "internal_node_id": "0.0-57.0-0.0", "key_presses": [80, 65, 82, 69, 78, 84, 32, 71, 82, 65, 86, 69, 76, 13, 87, 72, 73, 83, 75, 69, 82, 83, 13, 65, 68, 85, 76, 84, 13, 79, 85, 84, 68, 79, 79, 82, 83, 13, 70, 79, 79, 84, 66, 65, 76, 76, 13, 87, 72, 73, 83, 75, 69, 82, 83, 13, 66, 85, 71, 71, 89, 13, 79, 82, 67, 72, 73, 68, 13, 80, 65, 82, 84, 78, 69, 82, 13, 67, 82, 69, 86], "trial": 1, "time_elapsed": 527078, "type": "FREE_RECALL", "trial_index": 75}, "uniqueid": "MTK3643:3AQF3RZ559PQRJMHE5Y683H0TEBF6S", "dateTime": 1520877658049}, {"current_trial": 76, "trialdata": {"rt": 123331, "trial_type": "text", "internal_node_id": "0.0-58.0", "time_elapsed": 652414, "key_press": 32, "type": "INSTRUCTIONS", "trial_index": 76}, "uniqueid": "MTK3643:3AQF3RZ559PQRJMHE5Y683H0TEBF6S", "dateTime": 1520877783382}, {"current_trial": 77, "trialdata": {"rt": [3786, 6562, 8931, 11266], "trial_type": "math-distractor", "key_times": [2971, 3443, 3786, 5924, 6211, 6562, 8522, 8683, 8931, 10699, 10907, 11266], "responses": ["13", "13", "11", "18"], "num2": [9, 2, 5, 6, 8], "num3": [2, 8, 2, 6, 5], "conditions": [12, 800, "v", 12000], "internal_node_id": "0.0-59.0", "key_presses": [97, 99, 13, 97, 99, 13, 97, 97, 13, 97, 104, 13], "trial": 2, "time_elapsed": 665420, "type": "DISTRACTOR", "trial_index": 77, "num1": [2, 3, 4, 6, 8]}, "uniqueid": "MTK3643:3AQF3RZ559PQRJMHE5Y683H0TEBF6S", "dateTime": 1520877796387}, {"current_trial": 78, "trialdata": {"rt": -1, "trial_type": "single-stim", "stimulus": "<p id=\"stim\">10</p>", "internal_node_id": "0.0-60.0-0.0", "time_elapsed": 668423, "key_press": -1, "trial_index": 78}, "uniqueid": "MTK3643:3AQF3RZ559PQRJMHE5Y683H0TEBF6S", "dateTime": 1520877799390}, {"current_trial": 79, "trialdata": {"rt": -1, "trial_type": "single-stim", "stimulus": "<p id=\"stim\">9</p>", "internal_node_id": "0.0-60.0-1.0", "time_elapsed": 669424, "key_press": -1, "trial_index": 79}, "uniqueid": "MTK3643:3AQF3RZ559PQRJMHE5Y683H0TEBF6S", "dateTime": 1520877800392}, {"current_trial": 80, "trialdata": {"rt": -1, "trial_type": "single-stim", "stimulus": "<p id=\"stim\">8</p>", "internal_node_id": "0.0-60.0-2.0", "time_elapsed": 670426, "key_press": -1, "trial_index": 80}, "uniqueid": "MTK3643:3AQF3RZ559PQRJMHE5Y683H0TEBF6S", "dateTime": 1520877801393}, {"current_trial": 81, "trialdata": {"rt": -1, "trial_type": "single-stim", "stimulus": "<p id=\"stim\">7</p>", "internal_node_id": "0.0-60.0-3.0", "time_elapsed": 671429, "key_press": -1, "trial_index": 81}, "uniqueid": "MTK3643:3AQF3RZ559PQRJMHE5Y683H0TEBF6S", "dateTime": 1520877802396}, {"current_trial": 82, "trialdata": {"rt": -1, "trial_type": "single-stim", "stimulus": "<p id=\"stim\">6</p>", "internal_node_id": "0.0-60.0-4.0", "time_elapsed": 672430, "key_press": -1, "trial_index": 82}, "uniqueid": "MTK3643:3AQF3RZ559PQRJMHE5Y683H0TEBF6S", "dateTime": 1520877803397}, {"current_trial": 83, "trialdata": {"rt": -1, "trial_type": "single-stim", "stimulus": "<p id=\"stim\">5</p>", "internal_node_id": "0.0-60.0-5.0", "time_elapsed": 673433, "key_press": -1, "trial_index": 83}, "uniqueid": "MTK3643:3AQF3RZ559PQRJMHE5Y683H0TEBF6S", "dateTime": 1520877804400}, {"current_trial": 84, "trialdata": {"rt": -1, "trial_type": "single-stim", "stimulus": "<p id=\"stim\">4</p>", "internal_node_id": "0.0-60.0-6.0", "time_elapsed": 674435, "key_press": -1, "trial_index": 84}, "uniqueid": "MTK3643:3AQF3RZ559PQRJMHE5Y683H0TEBF6S", "dateTime": 1520877805402}, {"current_trial": 85, "trialdata": {"rt": -1, "trial_type": "single-stim", "stimulus": "<p id=\"stim\">3</p>", "internal_node_id": "0.0-60.0-7.0", "time_elapsed": 675439, "key_press": -1, "trial_index": 85}, "uniqueid": "MTK3643:3AQF3RZ559PQRJMHE5Y683H0TEBF6S", "dateTime": 1520877806406}, {"current_trial": 86, "trialdata": {"rt": -1, "trial_type": "single-stim", "stimulus": "<p id=\"stim\">2</p>", "internal_node_id": "0.0-60.0-8.0", "time_elapsed": 676441, "key_press": -1, "trial_index": 86}, "uniqueid": "MTK3643:3AQF3RZ559PQRJMHE5Y683H0TEBF6S", "dateTime": 1520877807408}, {"current_trial": 87, "trialdata": {"rt": -1, "trial_type": "single-stim", "stimulus": "<p id=\"stim\">1</p>", "internal_node_id": "0.0-60.0-9.0", "time_elapsed": 677442, "key_press": -1, "trial_index": 87}, "uniqueid": "MTK3643:3AQF3RZ559PQRJMHE5Y683H0TEBF6S", "dateTime": 1520877808410}, {"current_trial": 88, "trialdata": {"rt": -1, "trial_type": "single-stim", "stimulus": "<p id=\"stim\">+</p>", "internal_node_id": "0.0-61.0-0.0", "time_elapsed": 678944, "key_press": -1, "type": "FIXATION", "trial_index": 88}, "uniqueid": "MTK3643:3AQF3RZ559PQRJMHE5Y683H0TEBF6S", "dateTime": 1520877809912}, {"current_trial": 89, "trialdata": {"rt": -1, "trial_type": "single-stim", "word": "seafood", "stimulus": "<p id=\"stim\">SEAFOOD</p>", "conditions": [12, 800, "v", 12000], "internal_node_id": "0.0-62.0", "trial": 2, "time_elapsed": 679746, "serialpos": 0, "key_press": -1, "wordID": 1259, "type": "PRES_VIS", "trial_index": 89}, "uniqueid": "MTK3643:3AQF3RZ559PQRJMHE5Y683H0TEBF6S", "dateTime": 1520877810713}, {"current_trial": 90, "trialdata": {"rt": -1, "trial_type": "single-stim", "word": "pepper", "stimulus": "<p id=\"stim\">PEPPER</p>", "conditions": [12, 800, "v", 12000], "internal_node_id": "0.0-63.0", "trial": 2, "time_elapsed": 681600, "serialpos": 1, "key_press": -1, "wordID": 1046, "type": "PRES_VIS", "trial_index": 90}, "uniqueid": "MTK3643:3AQF3RZ559PQRJMHE5Y683H0TEBF6S", "dateTime": 1520877812567}, {"current_trial": 91, "trialdata": {"rt": -1, "trial_type": "single-stim", "word": "twister", "stimulus": "<p id=\"stim\">TWISTER</p>", "conditions": [12, 800, "v", 12000], "internal_node_id": "0.0-64.0", "trial": 2, "time_elapsed": 683391, "serialpos": 2, "key_press": -1, "wordID": 1529, "type": "PRES_VIS", "trial_index": 91}, "uniqueid": "MTK3643:3AQF3RZ559PQRJMHE5Y683H0TEBF6S", "dateTime": 1520877814358}, {"current_trial": 92, "trialdata": {"rt": -1, "trial_type": "single-stim", "word": "scallop", "stimulus": "<p id=\"stim\">SCALLOP</p>", "conditions": [12, 800, "v", 12000], "internal_node_id": "0.0-65.0", "trial": 2, "time_elapsed": 685318, "serialpos": 3, "key_press": -1, "wordID": 1241, "type": "PRES_VIS", "trial_index": 92}, "uniqueid": "MTK3643:3AQF3RZ559PQRJMHE5Y683H0TEBF6S", "dateTime": 1520877816285}, {"current_trial": 93, "trialdata": {"rt": -1, "trial_type": "single-stim", "word": "suspect", "stimulus": "<p id=\"stim\">SUSPECT</p>", "conditions": [12, 800, "v", 12000], "internal_node_id": "0.0-66.0", "trial": 2, "time_elapsed": 687076, "serialpos": 4, "key_press": -1, "wordID": 1414, "type": "PRES_VIS", "trial_index": 93}, "uniqueid": "MTK3643:3AQF3RZ559PQRJMHE5Y683H0TEBF6S", "dateTime": 1520877818043}, {"current_trial": 94, "trialdata": {"rt": -1, "trial_type": "single-stim", "word": "kidney", "stimulus": "<p id=\"stim\">KIDNEY</p>", "conditions": [12, 800, "v", 12000], "internal_node_id": "0.0-67.0", "trial": 2, "time_elapsed": 688713, "serialpos": 5, "key_press": -1, "wordID": 775, "type": "PRES_VIS", "trial_index": 94}, "uniqueid": "MTK3643:3AQF3RZ559PQRJMHE5Y683H0TEBF6S", "dateTime": 1520877819681}, {"current_trial": 95, "trialdata": {"rt": -1, "trial_type": "single-stim", "word": "panther", "stimulus": "<p id=\"stim\">PANTHER</p>", "conditions": [12, 800, "v", 12000], "internal_node_id": "0.0-68.0", "trial": 2, "time_elapsed": 690526, "serialpos": 6, "key_press": -1, "wordID": 1008, "type": "PRES_VIS", "trial_index": 95}, "uniqueid": "MTK3643:3AQF3RZ559PQRJMHE5Y683H0TEBF6S", "dateTime": 1520877821493}, {"current_trial": 96, "trialdata": {"rt": -1, "trial_type": "single-stim", "word": "fox", "stimulus": "<p id=\"stim\">FOX</p>", "conditions": [12, 800, "v", 12000], "internal_node_id": "0.0-69.0", "trial": 2, "time_elapsed": 692323, "serialpos": 7, "key_press": -1, "wordID": 597, "type": "PRES_VIS", "trial_index": 96}, "uniqueid": "MTK3643:3AQF3RZ559PQRJMHE5Y683H0TEBF6S", "dateTime": 1520877823290}, {"current_trial": 97, "trialdata": {"rt": -1, "trial_type": "single-stim", "word": "child", "stimulus": "<p id=\"stim\">CHILD</p>", "conditions": [12, 800, "v", 12000], "internal_node_id": "0.0-70.0", "trial": 2, "time_elapsed": 693975, "serialpos": 8, "key_press": -1, "wordID": 298, "type": "PRES_VIS", "trial_index": 97}, "uniqueid": "MTK3643:3AQF3RZ559PQRJMHE5Y683H0TEBF6S", "dateTime": 1520877824942}, {"current_trial": 98, "trialdata": {"rt": -1, "trial_type": "single-stim", "word": "bureau", "stimulus": "<p id=\"stim\">BUREAU</p>", "conditions": [12, 800, "v", 12000], "internal_node_id": "0.0-71.0", "trial": 2, "time_elapsed": 695587, "serialpos": 9, "key_press": -1, "wordID": 198, "type": "PRES_VIS", "trial_index": 98}, "uniqueid": "MTK3643:3AQF3RZ559PQRJMHE5Y683H0TEBF6S", "dateTime": 1520877826554}, {"current_trial": 99, "trialdata": {"rt": -1, "trial_type": "single-stim", "word": "stove", "stimulus": "<p id=\"stim\">STOVE</p>", "conditions": [12, 800, "v", 12000], "internal_node_id": "0.0-72.0", "trial": 2, "time_elapsed": 697245, "serialpos": 10, "key_press": -1, "wordID": 1387, "type": "PRES_VIS", "trial_index": 99}, "uniqueid": "MTK3643:3AQF3RZ559PQRJMHE5Y683H0TEBF6S", "dateTime": 1520877828212}, {"current_trial": 100, "trialdata": {"rt": -1, "trial_type": "single-stim", "word": "plate", "stimulus": "<p id=\"stim\">PLATE</p>", "conditions": [12, 800, "v", 12000], "internal_node_id": "0.0-73.0", "trial": 2, "time_elapsed": 698933, "serialpos": 11, "key_press": -1, "wordID": 1085, "type": "PRES_VIS", "trial_index": 100}, "uniqueid": "MTK3643:3AQF3RZ559PQRJMHE5Y683H0TEBF6S", "dateTime": 1520877829900}, {"current_trial": 101, "trialdata": {"rt": -1, "trial_type": "single-stim", "stimulus": "", "internal_node_id": "0.0-74.0-0.0", "time_elapsed": 701446, "key_press": -1, "type": "PRE_RECALL_DELAY", "trial_index": 101}, "uniqueid": "MTK3643:3AQF3RZ559PQRJMHE5Y683H0TEBF6S", "dateTime": 1520877832413}, {"current_trial": 102, "trialdata": {"rt": -1000, "trial_type": "single-audio", "stimulus": "/static/audio/400Hz.wav", "internal_node_id": "0.0-75.0", "time_elapsed": 701948, "key_press": -1, "type": "PRE_RECALL_ALERT", "trial_index": 102}, "uniqueid": "MTK3643:3AQF3RZ559PQRJMHE5Y683H0TEBF6S", "dateTime": 1520877832915}, {"current_trial": 103, "trialdata": {"rt": [4122, 8074, 10818, 14673, 17058, 20625, 26018, 37705, 42578, 50074, 56257], "recwords": ["plate", "bureau", "child", "panther", "fox", "seafood", "pepper", "scallop", "stove", "child", "plate"], "key_times": [2390, 2643, 3162, 3467, 3698, 4122, 4506, 5435, 5875, 6066, 6529, 6826, 8074, 9306, 9529, 9762, 10018, 10442, 10818, 11362, 11979, 12370, 12779, 12994, 13642, 13962, 14673, 15259, 15586, 16483, 17058, 17737, 17955, 18315, 18498, 19089, 19250, 19906, 20625, 22867, 23459, 24203, 24386, 24875, 25130, 26018, 34587, 34891, 35378, 35707, 35859, 36067, 36283, 37705, 40155, 41266, 41465, 41835, 42346, 42578, 43851, 44019, 45339, 45658, 48843, 49099, 49267, 49475, 49827, 50074, 54075, 54243, 54738, 55218, 55395, 56257], "trial_type": "free-recall", "conditions": [12, 800, "v", 12000], "internal_node_id": "0.0-76.0-0.0", "key_presses": [80, 76, 65, 84, 69, 32, 66, 85, 82, 69, 65, 85, 13, 67, 72, 73, 76, 68, 13, 80, 65, 78, 84, 72, 69, 82, 13, 70, 79, 88, 13, 83, 69, 65, 70, 79, 79, 68, 13, 80, 69, 80, 80, 69, 82, 13, 83, 67, 65, 76, 76, 79, 80, 13, 83, 84, 79, 86, 69, 13, 80, 76, 8, 8, 67, 72, 73, 76, 68, 13, 80, 76, 65, 84, 69, 13], "trial": 2, "time_elapsed": 761950, "type": "FREE_RECALL", "trial_index": 103}, "uniqueid": "MTK3643:3AQF3RZ559PQRJMHE5Y683H0TEBF6S", "dateTime": 1520877892921}, {"current_trial": 104, "trialdata": {"rt": 4182, "trial_type": "text", "internal_node_id": "0.0-77.0", "time_elapsed": 768137, "key_press": 74, "type": "INSTRUCTIONS", "trial_index": 104}, "uniqueid": "MTK3643:3AQF3RZ559PQRJMHE5Y683H0TEBF6S", "dateTime": 1520877899104}, {"current_trial": 105, "trialdata": {"rt": [3962, 7114, 9537, 11641, 13673, 16225, 18761, 21153, 23274], "trial_type": "math-distractor", "key_times": [3139, 3475, 3962, 6162, 6691, 7114, 8843, 9083, 9537, 11282, 11641, 13275, 13490, 13673, 15514, 15658, 16225, 18122, 18395, 18761, 20843, 21153, 22867, 23018, 23274], "responses": ["17", "17", "18", "7", "13", "22", "17", "8", "14"], "num2": [6, 4, 7, 4, 6, 9, 3, 3, 5, 2], "num3": [9, 5, 9, 2, 5, 9, 8, 2, 4, 9], "conditions": [24, 1600, "v", 24000], "internal_node_id": "0.0-78.0", "key_presses": [97, 103, 13, 97, 103, 13, 97, 104, 13, 103, 13, 97, 99, 13, 98, 98, 13, 97, 103, 13, 104, 13, 97, 100, 13], "trial": 3, "time_elapsed": 794143, "type": "DISTRACTOR", "trial_index": 105, "num1": [2, 8, 2, 1, 2, 4, 6, 3, 5, 5]}, "uniqueid": "MTK3643:3AQF3RZ559PQRJMHE5Y683H0TEBF6S", "dateTime": 1520877925110}, {"current_trial": 106, "trialdata": {"rt": -1, "trial_type": "single-stim", "stimulus": "<p id=\"stim\">10</p>", "internal_node_id": "0.0-79.0-0.0", "time_elapsed": 797146, "key_press": -1, "trial_index": 106}, "uniqueid": "MTK3643:3AQF3RZ559PQRJMHE5Y683H0TEBF6S", "dateTime": 1520877928113}, {"current_trial": 107, "trialdata": {"rt": -1, "trial_type": "single-stim", "stimulus": "<p id=\"stim\">9</p>", "internal_node_id": "0.0-79.0-1.0", "time_elapsed": 798147, "key_press": -1, "trial_index": 107}, "uniqueid": "MTK3643:3AQF3RZ559PQRJMHE5Y683H0TEBF6S", "dateTime": 1520877929114}, {"current_trial": 108, "trialdata": {"rt": -1, "trial_type": "single-stim", "stimulus": "<p id=\"stim\">8</p>", "internal_node_id": "0.0-79.0-2.0", "time_elapsed": 799149, "key_press": -1, "trial_index": 108}, "uniqueid": "MTK3643:3AQF3RZ559PQRJMHE5Y683H0TEBF6S", "dateTime": 1520877930117}, {"current_trial": 109, "trialdata": {"rt": -1, "trial_type": "single-stim", "stimulus": "<p id=\"stim\">7</p>", "internal_node_id": "0.0-79.0-3.0", "time_elapsed": 800152, "key_press": -1, "trial_index": 109}, "uniqueid": "MTK3643:3AQF3RZ559PQRJMHE5Y683H0TEBF6S", "dateTime": 1520877931119}, {"current_trial": 110, "trialdata": {"rt": -1, "trial_type": "single-stim", "stimulus": "<p id=\"stim\">6</p>", "internal_node_id": "0.0-79.0-4.0", "time_elapsed": 801154, "key_press": -1, "trial_index": 110}, "uniqueid": "MTK3643:3AQF3RZ559PQRJMHE5Y683H0TEBF6S", "dateTime": 1520877932121}, {"current_trial": 111, "trialdata": {"rt": -1, "trial_type": "single-stim", "stimulus": "<p id=\"stim\">5</p>", "internal_node_id": "0.0-79.0-5.0", "time_elapsed": 802156, "key_press": -1, "trial_index": 111}, "uniqueid": "MTK3643:3AQF3RZ559PQRJMHE5Y683H0TEBF6S", "dateTime": 1520877933123}, {"current_trial": 112, "trialdata": {"rt": -1, "trial_type": "single-stim", "stimulus": "<p id=\"stim\">4</p>", "internal_node_id": "0.0-79.0-6.0", "time_elapsed": 803159, "key_press": -1, "trial_index": 112}, "uniqueid": "MTK3643:3AQF3RZ559PQRJMHE5Y683H0TEBF6S", "dateTime": 1520877934126}, {"current_trial": 113, "trialdata": {"rt": -1, "trial_type": "single-stim", "stimulus": "<p id=\"stim\">3</p>", "internal_node_id": "0.0-79.0-7.0", "time_elapsed": 804161, "key_press": -1, "trial_index": 113}, "uniqueid": "MTK3643:3AQF3RZ559PQRJMHE5Y683H0TEBF6S", "dateTime": 1520877935128}, {"current_trial": 114, "trialdata": {"rt": -1, "trial_type": "single-stim", "stimulus": "<p id=\"stim\">2</p>", "internal_node_id": "0.0-79.0-8.0", "time_elapsed": 805163, "key_press": -1, "trial_index": 114}, "uniqueid": "MTK3643:3AQF3RZ559PQRJMHE5Y683H0TEBF6S", "dateTime": 1520877936130}, {"current_trial": 115, "trialdata": {"rt": -1, "trial_type": "single-stim", "stimulus": "<p id=\"stim\">1</p>", "internal_node_id": "0.0-79.0-9.0", "time_elapsed": 806166, "key_press": -1, "trial_index": 115}, "uniqueid": "MTK3643:3AQF3RZ559PQRJMHE5Y683H0TEBF6S", "dateTime": 1520877937133}, {"current_trial": 116, "trialdata": {"rt": -1, "trial_type": "single-stim", "stimulus": "<p id=\"stim\">+</p>", "internal_node_id": "0.0-80.0-0.0", "time_elapsed": 807667, "key_press": -1, "type": "FIXATION", "trial_index": 116}, "uniqueid": "MTK3643:3AQF3RZ559PQRJMHE5Y683H0TEBF6S", "dateTime": 1520877938634}, {"current_trial": 117, "trialdata": {"rt": -1, "trial_type": "single-stim", "word": "turkey", "stimulus": "<p id=\"stim\">TURKEY</p>", "conditions": [24, 1600, "v", 24000], "internal_node_id": "0.0-81.0", "trial": 3, "time_elapsed": 809268, "serialpos": 0, "key_press": -1, "wordID": 1519, "type": "PRES_VIS", "trial_index": 117}, "uniqueid": "MTK3643:3AQF3RZ559PQRJMHE5Y683H0TEBF6S", "dateTime": 1520877940235}, {"current_trial": 118, "trialdata": {"rt": -1, "trial_type": "single-stim", "word": "lily", "stimulus": "<p id=\"stim\">LILY</p>", "conditions": [24, 1600, "v", 24000], "internal_node_id": "0.0-82.0", "trial": 3, "time_elapsed": 811918, "serialpos": 1, "key_press": -1, "wordID": 820, "type": "PRES_VIS", "trial_index": 118}, "uniqueid": "MTK3643:3AQF3RZ559PQRJMHE5Y683H0TEBF6S", "dateTime": 1520877942885}, {"current_trial": 119, "trialdata": {"rt": -1, "trial_type": "single-stim", "word": "penguin", "stimulus": "<p id=\"stim\">PENGUIN</p>", "conditions": [24, 1600, "v", 24000], "internal_node_id": "0.0-83.0", "trial": 3, "time_elapsed": 814504, "serialpos": 2, "key_press": -1, "wordID": 1043, "type": "PRES_VIS", "trial_index": 119}, "uniqueid": "MTK3643:3AQF3RZ559PQRJMHE5Y683H0TEBF6S", "dateTime": 1520877945471}, {"current_trial": 120, "trialdata": {"rt": -1, "trial_type": "single-stim", "word": "smog", "stimulus": "<p id=\"stim\">SMOG</p>", "conditions": [24, 1600, "v", 24000], "internal_node_id": "0.0-84.0", "trial": 3, "time_elapsed": 816971, "serialpos": 3, "key_press": -1, "wordID": 1329, "type": "PRES_VIS", "trial_index": 120}, "uniqueid": "MTK3643:3AQF3RZ559PQRJMHE5Y683H0TEBF6S", "dateTime": 1520877947938}, {"current_trial": 121, "trialdata": {"rt": -1, "trial_type": "single-stim", "word": "ozone", "stimulus": "<p id=\"stim\">OZONE</p>", "conditions": [24, 1600, "v", 24000], "internal_node_id": "0.0-85.0", "trial": 3, "time_elapsed": 819488, "serialpos": 4, "key_press": -1, "wordID": 995, "type": "PRES_VIS", "trial_index": 121}, "uniqueid": "MTK3643:3AQF3RZ559PQRJMHE5Y683H0TEBF6S", "dateTime": 1520877950455}, {"current_trial": 122, "trialdata": {"rt": -1, "trial_type": "single-stim", "word": "donor", "stimulus": "<p id=\"stim\">DONOR</p>", "conditions": [24, 1600, "v", 24000], "internal_node_id": "0.0-86.0", "trial": 3, "time_elapsed": 822113, "serialpos": 5, "key_press": -1, "wordID": 484, "type": "PRES_VIS", "trial_index": 122}, "uniqueid": "MTK3643:3AQF3RZ559PQRJMHE5Y683H0TEBF6S", "dateTime": 1520877953081}, {"current_trial": 123, "trialdata": {"rt": -1, "trial_type": "single-stim", "word": "shelter", "stimulus": "<p id=\"stim\">SHELTER</p>", "conditions": [24, 1600, "v", 24000], "internal_node_id": "0.0-87.0", "trial": 3, "time_elapsed": 824542, "serialpos": 6, "key_press": -1, "wordID": 1281, "type": "PRES_VIS", "trial_index": 123}, "uniqueid": "MTK3643:3AQF3RZ559PQRJMHE5Y683H0TEBF6S", "dateTime": 1520877955509}, {"current_trial": 124, "trialdata": {"rt": -1, "trial_type": "single-stim", "word": "custard", "stimulus": "<p id=\"stim\">CUSTARD</p>", "conditions": [24, 1600, "v", 24000], "internal_node_id": "0.0-88.0", "trial": 3, "time_elapsed": 826967, "serialpos": 7, "key_press": -1, "wordID": 428, "type": "PRES_VIS", "trial_index": 124}, "uniqueid": "MTK3643:3AQF3RZ559PQRJMHE5Y683H0TEBF6S", "dateTime": 1520877957935}, {"current_trial": 125, "trialdata": {"rt": -1, "trial_type": "single-stim", "word": "patient", "stimulus": "<p id=\"stim\">PATIENT</p>", "conditions": [24, 1600, "v", 24000], "internal_node_id": "0.0-89.0", "trial": 3, "time_elapsed": 829421, "serialpos": 8, "key_press": -1, "wordID": 1023, "type": "PRES_VIS", "trial_index": 125}, "uniqueid": "MTK3643:3AQF3RZ559PQRJMHE5Y683H0TEBF6S", "dateTime": 1520877960388}, {"current_trial": 126, "trialdata": {"rt": -1, "trial_type": "single-stim", "word": "crayon", "stimulus": "<p id=\"stim\">CRAYON</p>", "conditions": [24, 1600, "v", 24000], "internal_node_id": "0.0-90.0", "trial": 3, "time_elapsed": 831860, "serialpos": 9, "key_press": -1, "wordID": 400, "type": "PRES_VIS", "trial_index": 126}, "uniqueid": "MTK3643:3AQF3RZ559PQRJMHE5Y683H0TEBF6S", "dateTime": 1520877962827}, {"current_trial": 127, "trialdata": {"rt": -1, "trial_type": "single-stim", "word": "jelly", "stimulus": "<p id=\"stim\">JELLY</p>", "conditions": [24, 1600, "v", 24000], "internal_node_id": "0.0-91.0", "trial": 3, "time_elapsed": 834299, "serialpos": 10, "key_press": -1, "wordID": 754, "type": "PRES_VIS", "trial_index": 127}, "uniqueid": "MTK3643:3AQF3RZ559PQRJMHE5Y683H0TEBF6S", "dateTime": 1520877965267}, {"current_trial": 128, "trialdata": {"rt": -1, "trial_type": "single-stim", "word": "shrub", "stimulus": "<p id=\"stim\">SHRUB</p>", "conditions": [24, 1600, "v", 24000], "internal_node_id": "0.0-92.0", "trial": 3, "time_elapsed": 837088, "serialpos": 11, "key_press": -1, "wordID": 1298, "type": "PRES_VIS", "trial_index": 128}, "uniqueid": "MTK3643:3AQF3RZ559PQRJMHE5Y683H0TEBF6S", "dateTime": 1520877968055}, {"current_trial": 129, "trialdata": {"rt": -1, "trial_type": "single-stim", "word": "elbow", "stimulus": "<p id=\"stim\">ELBOW</p>", "conditions": [24, 1600, "v", 24000], "internal_node_id": "0.0-93.0", "trial": 3, "time_elapsed": 839768, "serialpos": 12, "key_press": -1, "wordID": 519, "type": "PRES_VIS", "trial_index": 129}, "uniqueid": "MTK3643:3AQF3RZ559PQRJMHE5Y683H0TEBF6S", "dateTime": 1520877970736}, {"current_trial": 130, "trialdata": {"rt": -1, "trial_type": "single-stim", "word": "captive", "stimulus": "<p id=\"stim\">CAPTIVE</p>", "conditions": [24, 1600, "v", 24000], "internal_node_id": "0.0-94.0", "trial": 3, "time_elapsed": 842328, "serialpos": 13, "key_press": -1, "wordID": 239, "type": "PRES_VIS", "trial_index": 130}, "uniqueid": "MTK3643:3AQF3RZ559PQRJMHE5Y683H0TEBF6S", "dateTime": 1520877973295}, {"current_trial": 131, "trialdata": {"rt": -1, "trial_type": "single-stim", "word": "dress", "stimulus": "<p id=\"stim\">DRESS</p>", "conditions": [24, 1600, "v", 24000], "internal_node_id": "0.0-95.0", "trial": 3, "time_elapsed": 845033, "serialpos": 14, "key_press": -1, "wordID": 494, "type": "PRES_VIS", "trial_index": 131}, "uniqueid": "MTK3643:3AQF3RZ559PQRJMHE5Y683H0TEBF6S", "dateTime": 1520877976000}, {"current_trial": 132, "trialdata": {"rt": -1, "trial_type": "single-stim", "word": "flower", "stimulus": "<p id=\"stim\">FLOWER</p>", "conditions": [24, 1600, "v", 24000], "internal_node_id": "0.0-96.0", "trial": 3, "time_elapsed": 847760, "serialpos": 15, "key_press": -1, "wordID": 583, "type": "PRES_VIS", "trial_index": 132}, "uniqueid": "MTK3643:3AQF3RZ559PQRJMHE5Y683H0TEBF6S", "dateTime": 1520877978727}, {"current_trial": 133, "trialdata": {"rt": -1, "trial_type": "single-stim", "word": "salad", "stimulus": "<p id=\"stim\">SALAD</p>", "conditions": [24, 1600, "v", 24000], "internal_node_id": "0.0-97.0", "trial": 3, "time_elapsed": 850212, "serialpos": 16, "key_press": -1, "wordID": 1223, "type": "PRES_VIS", "trial_index": 133}, "uniqueid": "MTK3643:3AQF3RZ559PQRJMHE5Y683H0TEBF6S", "dateTime": 1520877981179}, {"current_trial": 134, "trialdata": {"rt": -1, "trial_type": "single-stim", "word": "lizard", "stimulus": "<p id=\"stim\">LIZARD</p>", "conditions": [24, 1600, "v", 24000], "internal_node_id": "0.0-98.0", "trial": 3, "time_elapsed": 852963, "serialpos": 17, "key_press": -1, "wordID": 833, "type": "PRES_VIS", "trial_index": 134}, "uniqueid": "MTK3643:3AQF3RZ559PQRJMHE5Y683H0TEBF6S", "dateTime": 1520877983930}, {"current_trial": 135, "trialdata": {"rt": -1, "trial_type": "single-stim", "word": "cellar", "stimulus": "<p id=\"stim\">CELLAR</p>", "conditions": [24, 1600, "v", 24000], "internal_node_id": "0.0-99.0", "trial": 3, "time_elapsed": 855509, "serialpos": 18, "key_press": -1, "wordID": 266, "type": "PRES_VIS", "trial_index": 135}, "uniqueid": "MTK3643:3AQF3RZ559PQRJMHE5Y683H0TEBF6S", "dateTime": 1520877986477}, {"current_trial": 136, "trialdata": {"rt": -1, "trial_type": "single-stim", "word": "basement", "stimulus": "<p id=\"stim\">BASEMENT</p>", "conditions": [24, 1600, "v", 24000], "internal_node_id": "0.0-100.0", "trial": 3, "time_elapsed": 858301, "serialpos": 19, "key_press": -1, "wordID": 93, "type": "PRES_VIS", "trial_index": 136}, "uniqueid": "MTK3643:3AQF3RZ559PQRJMHE5Y683H0TEBF6S", "dateTime": 1520877989268}, {"current_trial": 137, "trialdata": {"rt": -1, "trial_type": "single-stim", "word": "slide", "stimulus": "<p id=\"stim\">SLIDE</p>", "conditions": [24, 1600, "v", 24000], "internal_node_id": "0.0-101.0", "trial": 3, "time_elapsed": 860937, "serialpos": 20, "key_press": -1, "wordID": 1325, "type": "PRES_VIS", "trial_index": 137}, "uniqueid": "MTK3643:3AQF3RZ559PQRJMHE5Y683H0TEBF6S", "dateTime": 1520877991905}, {"current_trial": 138, "trialdata": {"rt": -1, "trial_type": "single-stim", "word": "guitar", "stimulus": "<p id=\"stim\">GUITAR</p>", "conditions": [24, 1600, "v", 24000], "internal_node_id": "0.0-102.0", "trial": 3, "time_elapsed": 863481, "serialpos": 21, "key_press": -1, "wordID": 669, "type": "PRES_VIS", "trial_index": 138}, "uniqueid": "MTK3643:3AQF3RZ559PQRJMHE5Y683H0TEBF6S", "dateTime": 1520877994448}, {"current_trial": 139, "trialdata": {"rt": -1, "trial_type": "single-stim", "word": "wrench", "stimulus": "<p id=\"stim\">WRENCH</p>", "conditions": [24, 1600, "v", 24000], "internal_node_id": "0.0-103.0", "trial": 3, "time_elapsed": 866031, "serialpos": 22, "key_press": -1, "wordID": 1624, "type": "PRES_VIS", "trial_index": 139}, "uniqueid": "MTK3643:3AQF3RZ559PQRJMHE5Y683H0TEBF6S", "dateTime": 1520877996998}, {"current_trial": 140, "trialdata": {"rt": -1, "trial_type": "single-stim", "word": "shoulder", "stimulus": "<p id=\"stim\">SHOULDER</p>", "conditions": [24, 1600, "v", 24000], "internal_node_id": "0.0-104.0", "trial": 3, "time_elapsed": 868779, "serialpos": 23, "key_press": -1, "wordID": 1293, "type": "PRES_VIS", "trial_index": 140}, "uniqueid": "MTK3643:3AQF3RZ559PQRJMHE5Y683H0TEBF6S", "dateTime": 1520877999746}, {"current_trial": 141, "trialdata": {"rt": -1, "trial_type": "single-stim", "stimulus": "", "internal_node_id": "0.0-105.0-0.0", "time_elapsed": 871070, "key_press": -1, "type": "PRE_RECALL_DELAY", "trial_index": 141}, "uniqueid": "MTK3643:3AQF3RZ559PQRJMHE5Y683H0TEBF6S", "dateTime": 1520878002037}, {"current_trial": 142, "trialdata": {"rt": -1000, "trial_type": "single-audio", "stimulus": "/static/audio/400Hz.wav", "internal_node_id": "0.0-106.0", "time_elapsed": 871575, "key_press": -1, "type": "PRE_RECALL_ALERT", "trial_index": 142}, "uniqueid": "MTK3643:3AQF3RZ559PQRJMHE5Y683H0TEBF6S", "dateTime": 1520878002542}, {"current_trial": 143, "trialdata": {"rt": [5397, 8541, 17709, 20165, 22669, 32406, 38589, 41062, 50085, 53678, 58717], "recwords": ["shoulder", "elbow", "basement", "cellar", "lizard", "custard", "smog", "ozone", "jelly", "custard", "stove"], "key_times": [2111, 2758, 3110, 3278, 3550, 3990, 4166, 4317, 5397, 6470, 6838, 7118, 7557, 8214, 8541, 14567, 14855, 15070, 15230, 15902, 16574, 16838, 17334, 17709, 18254, 18558, 18950, 19134, 19462, 19717, 20165, 20645, 20869, 21350, 21621, 21862, 22078, 22669, 29751, 30302, 30533, 30758, 31094, 31318, 31565, 32406, 36806, 37414, 37838, 38150, 38589, 39118, 39734, 39998, 40286, 40758, 41062, 48086, 48494, 49046, 49206, 49526, 50085, 51014, 51438, 51822, 52246, 52622, 52926, 53126, 53678, 56974, 57198, 57582, 57934, 58246, 58717], "trial_type": "free-recall", "conditions": [24, 1600, "v", 24000], "internal_node_id": "0.0-107.0-0.0", "key_presses": [83, 72, 79, 85, 76, 68, 69, 82, 13, 69, 76, 66, 79, 87, 13, 66, 65, 83, 69, 77, 69, 78, 84, 13, 67, 69, 76, 76, 65, 82, 13, 76, 73, 90, 65, 82, 68, 13, 67, 85, 83, 84, 65, 82, 68, 13, 83, 77, 79, 71, 13, 79, 90, 79, 78, 69, 13, 74, 69, 76, 76, 89, 13, 67, 85, 83, 84, 65, 82, 68, 13, 83, 84, 79, 86, 69, 13], "trial": 3, "time_elapsed": 931579, "type": "FREE_RECALL", "trial_index": 143}, "uniqueid": "MTK3643:3AQF3RZ559PQRJMHE5Y683H0TEBF6S", "dateTime": 1520878062551}, {"current_trial": 144, "trialdata": {"rt": 2064, "trial_type": "text", "internal_node_id": "0.0-108.0", "time_elapsed": 935650, "key_press": 74, "type": "INSTRUCTIONS", "trial_index": 144}, "uniqueid": "MTK3643:3AQF3RZ559PQRJMHE5Y683H0TEBF6S", "dateTime": 1520878066617}, {"current_trial": 145, "trialdata": {"rt": [3019, 5051, 6699, 8475, 10643, 12682, 14458, 16291, 18394, 21133, 23355], "trial_type": "math-distractor", "key_times": [2603, 2755, 3019, 4436, 4691, 5051, 6355, 6539, 6699, 8092, 8259, 8475, 10075, 10299, 10643, 12307, 12467, 12682, 14099, 14243, 14458, 15956, 16099, 16291, 17811, 18027, 18394, 20532, 20819, 21132, 21133, 22875, 23075, 23355], "responses": ["15", "19", "10", "13", "18", "21", "11", "11", "19", "17.", "20"], "num2": [2, 9, 4, 5, 8, 8, 4, 2, 8, 9, 7, 9], "num3": [7, 6, 2, 7, 5, 9, 6, 3, 9, 1, 4, 1], "conditions": [12, 1600, "v", 24000], "internal_node_id": "0.0-109.0", "key_presses": [97, 101, 13, 97, 105, 13, 97, 96, 13, 97, 99, 13, 97, 104, 13, 98, 97, 13, 97, 97, 13, 97, 97, 13, 97, 105, 13, 97, 103, 110, 13, 98, 96, 13], "trial": 4, "time_elapsed": 961656, "type": "DISTRACTOR", "trial_index": 145, "num1": [4, 4, 4, 1, 5, 4, 1, 6, 2, 7, 9, 8]}, "uniqueid": "MTK3643:3AQF3RZ559PQRJMHE5Y683H0TEBF6S", "dateTime": 1520878092623}, {"current_trial": 146, "trialdata": {"rt": -1, "trial_type": "single-stim", "stimulus": "<p id=\"stim\">10</p>", "internal_node_id": "0.0-110.0-0.0", "time_elapsed": 964658, "key_press": -1, "trial_index": 146}, "uniqueid": "MTK3643:3AQF3RZ559PQRJMHE5Y683H0TEBF6S", "dateTime": 1520878095625}, {"current_trial": 147, "trialdata": {"rt": -1, "trial_type": "single-stim", "stimulus": "<p id=\"stim\">9</p>", "internal_node_id": "0.0-110.0-1.0", "time_elapsed": 965660, "key_press": -1, "trial_index": 147}, "uniqueid": "MTK3643:3AQF3RZ559PQRJMHE5Y683H0TEBF6S", "dateTime": 1520878096627}, {"current_trial": 148, "trialdata": {"rt": -1, "trial_type": "single-stim", "stimulus": "<p id=\"stim\">8</p>", "internal_node_id": "0.0-110.0-2.0", "time_elapsed": 966662, "key_press": -1, "trial_index": 148}, "uniqueid": "MTK3643:3AQF3RZ559PQRJMHE5Y683H0TEBF6S", "dateTime": 1520878097630}, {"current_trial": 149, "trialdata": {"rt": -1, "trial_type": "single-stim", "stimulus": "<p id=\"stim\">7</p>", "internal_node_id": "0.0-110.0-3.0", "time_elapsed": 967664, "key_press": -1, "trial_index": 149}, "uniqueid": "MTK3643:3AQF3RZ559PQRJMHE5Y683H0TEBF6S", "dateTime": 1520878098631}, {"current_trial": 150, "trialdata": {"rt": -1, "trial_type": "single-stim", "stimulus": "<p id=\"stim\">6</p>", "internal_node_id": "0.0-110.0-4.0", "time_elapsed": 968666, "key_press": -1, "trial_index": 150}, "uniqueid": "MTK3643:3AQF3RZ559PQRJMHE5Y683H0TEBF6S", "dateTime": 1520878099633}, {"current_trial": 151, "trialdata": {"rt": -1, "trial_type": "single-stim", "stimulus": "<p id=\"stim\">5</p>", "internal_node_id": "0.0-110.0-5.0", "time_elapsed": 969667, "key_press": -1, "trial_index": 151}, "uniqueid": "MTK3643:3AQF3RZ559PQRJMHE5Y683H0TEBF6S", "dateTime": 1520878100635}, {"current_trial": 152, "trialdata": {"rt": -1, "trial_type": "single-stim", "stimulus": "<p id=\"stim\">4</p>", "internal_node_id": "0.0-110.0-6.0", "time_elapsed": 970669, "key_press": -1, "trial_index": 152}, "uniqueid": "MTK3643:3AQF3RZ559PQRJMHE5Y683H0TEBF6S", "dateTime": 1520878101636}, {"current_trial": 153, "trialdata": {"rt": -1, "trial_type": "single-stim", "stimulus": "<p id=\"stim\">3</p>", "internal_node_id": "0.0-110.0-7.0", "time_elapsed": 971671, "key_press": -1, "trial_index": 153}, "uniqueid": "MTK3643:3AQF3RZ559PQRJMHE5Y683H0TEBF6S", "dateTime": 1520878102638}, {"current_trial": 154, "trialdata": {"rt": -1, "trial_type": "single-stim", "stimulus": "<p id=\"stim\">2</p>", "internal_node_id": "0.0-110.0-8.0", "time_elapsed": 972671, "key_press": -1, "trial_index": 154}, "uniqueid": "MTK3643:3AQF3RZ559PQRJMHE5Y683H0TEBF6S", "dateTime": 1520878103639}, {"current_trial": 155, "trialdata": {"rt": -1, "trial_type": "single-stim", "stimulus": "<p id=\"stim\">1</p>", "internal_node_id": "0.0-110.0-9.0", "time_elapsed": 973673, "key_press": -1, "trial_index": 155}, "uniqueid": "MTK3643:3AQF3RZ559PQRJMHE5Y683H0TEBF6S", "dateTime": 1520878104640}, {"current_trial": 156, "trialdata": {"rt": -1, "trial_type": "single-stim", "stimulus": "<p id=\"stim\">+</p>", "internal_node_id": "0.0-111.0-0.0", "time_elapsed": 975175, "key_press": -1, "type": "FIXATION", "trial_index": 156}, "uniqueid": "MTK3643:3AQF3RZ559PQRJMHE5Y683H0TEBF6S", "dateTime": 1520878106142}, {"current_trial": 157, "trialdata": {"rt": -1, "trial_type": "single-stim", "word": "banjo", "stimulus": "<p id=\"stim\">BANJO</p>", "conditions": [12, 1600, "v", 24000], "internal_node_id": "0.0-112.0", "trial": 4, "time_elapsed": 976778, "serialpos": 0, "key_press": -1, "wordID": 81, "type": "PRES_VIS", "trial_index": 157}, "uniqueid": "MTK3643:3AQF3RZ559PQRJMHE5Y683H0TEBF6S", "dateTime": 1520878107745}, {"current_trial": 158, "trialdata": {"rt": -1, "trial_type": "single-stim", "word": "trombone", "stimulus": "<p id=\"stim\">TROMBONE</p>", "conditions": [12, 1600, "v", 24000], "internal_node_id": "0.0-113.0", "trial": 4, "time_elapsed": 979343, "serialpos": 1, "key_press": -1, "wordID": 1507, "type": "PRES_VIS", "trial_index": 158}, "uniqueid": "MTK3643:3AQF3RZ559PQRJMHE5Y683H0TEBF6S", "dateTime": 1520878110310}, {"current_trial": 159, "trialdata": {"rt": -1, "trial_type": "single-stim", "word": "barley", "stimulus": "<p id=\"stim\">BARLEY</p>", "conditions": [12, 1600, "v", 24000], "internal_node_id": "0.0-114.0", "trial": 4, "time_elapsed": 981925, "serialpos": 2, "key_press": -1, "wordID": 87, "type": "PRES_VIS", "trial_index": 159}, "uniqueid": "MTK3643:3AQF3RZ559PQRJMHE5Y683H0TEBF6S", "dateTime": 1520878112892}, {"current_trial": 160, "trialdata": {"rt": -1, "trial_type": "single-stim", "word": "hedge", "stimulus": "<p id=\"stim\">HEDGE</p>", "conditions": [12, 1600, "v", 24000], "internal_node_id": "0.0-115.0", "trial": 4, "time_elapsed": 984509, "serialpos": 3, "key_press": -1, "wordID": 698, "type": "PRES_VIS", "trial_index": 160}, "uniqueid": "MTK3643:3AQF3RZ559PQRJMHE5Y683H0TEBF6S", "dateTime": 1520878115477}, {"current_trial": 161, "trialdata": {"rt": -1, "trial_type": "single-stim", "word": "survey", "stimulus": "<p id=\"stim\">SURVEY</p>", "conditions": [12, 1600, "v", 24000], "internal_node_id": "0.0-116.0", "trial": 4, "time_elapsed": 987245, "serialpos": 4, "key_press": -1, "wordID": 1413, "type": "PRES_VIS", "trial_index": 161}, "uniqueid": "MTK3643:3AQF3RZ559PQRJMHE5Y683H0TEBF6S", "dateTime": 1520878118212}, {"current_trial": 162, "trialdata": {"rt": -1, "trial_type": "single-stim", "word": "yacht", "stimulus": "<p id=\"stim\">YACHT</p>", "conditions": [12, 1600, "v", 24000], "internal_node_id": "0.0-117.0", "trial": 4, "time_elapsed": 989652, "serialpos": 5, "key_press": -1, "wordID": 1628, "type": "PRES_VIS", "trial_index": 162}, "uniqueid": "MTK3643:3AQF3RZ559PQRJMHE5Y683H0TEBF6S", "dateTime": 1520878120619}, {"current_trial": 163, "trialdata": {"rt": -1, "trial_type": "single-stim", "word": "curtain", "stimulus": "<p id=\"stim\">CURTAIN</p>", "conditions": [12, 1600, "v", 24000], "internal_node_id": "0.0-118.0", "trial": 4, "time_elapsed": 992359, "serialpos": 6, "key_press": -1, "wordID": 426, "type": "PRES_VIS", "trial_index": 163}, "uniqueid": "MTK3643:3AQF3RZ559PQRJMHE5Y683H0TEBF6S", "dateTime": 1520878123329}, {"current_trial": 164, "trialdata": {"rt": -1, "trial_type": "single-stim", "word": "report", "stimulus": "<p id=\"stim\">REPORT</p>", "conditions": [12, 1600, "v", 24000], "internal_node_id": "0.0-119.0", "trial": 4, "time_elapsed": 995022, "serialpos": 7, "key_press": -1, "wordID": 1183, "type": "PRES_VIS", "trial_index": 164}, "uniqueid": "MTK3643:3AQF3RZ559PQRJMHE5Y683H0TEBF6S", "dateTime": 1520878125989}, {"current_trial": 165, "trialdata": {"rt": -1, "trial_type": "single-stim", "word": "peanut", "stimulus": "<p id=\"stim\">PEANUT</p>", "conditions": [12, 1600, "v", 24000], "internal_node_id": "0.0-120.0", "trial": 4, "time_elapsed": 997638, "serialpos": 8, "key_press": -1, "wordID": 1031, "type": "PRES_VIS", "trial_index": 165}, "uniqueid": "MTK3643:3AQF3RZ559PQRJMHE5Y683H0TEBF6S", "dateTime": 1520878128605}, {"current_trial": 166, "trialdata": {"rt": -1, "trial_type": "single-stim", "word": "headband", "stimulus": "<p id=\"stim\">HEADBAND</p>", "conditions": [12, 1600, "v", 24000], "internal_node_id": "0.0-121.0", "trial": 4, "time_elapsed": 1000144, "serialpos": 9, "key_press": -1, "wordID": 695, "type": "PRES_VIS", "trial_index": 166}, "uniqueid": "MTK3643:3AQF3RZ559PQRJMHE5Y683H0TEBF6S", "dateTime": 1520878131111}, {"current_trial": 167, "trialdata": {"rt": -1, "trial_type": "single-stim", "word": "mask", "stimulus": "<p id=\"stim\">MASK</p>", "conditions": [12, 1600, "v", 24000], "internal_node_id": "0.0-122.0", "trial": 4, "time_elapsed": 1002627, "serialpos": 10, "key_press": -1, "wordID": 875, "type": "PRES_VIS", "trial_index": 167}, "uniqueid": "MTK3643:3AQF3RZ559PQRJMHE5Y683H0TEBF6S", "dateTime": 1520878133594}, {"current_trial": 168, "trialdata": {"rt": -1, "trial_type": "single-stim", "word": "zipper", "stimulus": "<p id=\"stim\">ZIPPER</p>", "conditions": [12, 1600, "v", 24000], "internal_node_id": "0.0-123.0", "trial": 4, "time_elapsed": 1005217, "serialpos": 11, "key_press": -1, "wordID": 1635, "type": "PRES_VIS", "trial_index": 168}, "uniqueid": "MTK3643:3AQF3RZ559PQRJMHE5Y683H0TEBF6S", "dateTime": 1520878136184}, {"current_trial": 169, "trialdata": {"rt": -1, "trial_type": "single-stim", "stimulus": "", "internal_node_id": "0.0-124.0-0.0", "time_elapsed": 1007340, "key_press": -1, "type": "PRE_RECALL_DELAY", "trial_index": 169}, "uniqueid": "MTK3643:3AQF3RZ559PQRJMHE5Y683H0TEBF6S", "dateTime": 1520878138307}, {"current_trial": 170, "trialdata": {"rt": -1000, "trial_type": "single-audio", "stimulus": "/static/audio/400Hz.wav", "internal_node_id": "0.0-125.0", "time_elapsed": 1007842, "key_press": -1, "type": "PRE_RECALL_ALERT", "trial_index": 170}, "uniqueid": "MTK3643:3AQF3RZ559PQRJMHE5Y683H0TEBF6S", "dateTime": 1520878138809}, {"current_trial": 171, "trialdata": {"rt": [6910, 11007, 13895, 18647, 29399, 55504], "recwords": ["zipper", "headband", "bvanjo", "trombone", "yacht", "mask"], "key_times": [3184, 3704, 4079, 4256, 5279, 5471, 6910, 7470, 7848, 8119, 8464, 8888, 9288, 10071, 10576, 11007, 11551, 11569, 11871, 12520, 12743, 13456, 13895, 14671, 14951, 15576, 16104, 16424, 16911, 17496, 17920, 18647, 26968, 27447, 28079, 28584, 28807, 29399, 53305, 53768, 54200, 55137, 55504], "trial_type": "free-recall", "conditions": [12, 1600, "v", 24000], "internal_node_id": "0.0-126.0-0.0", "key_presses": [90, 73, 80, 80, 69, 82, 13, 72, 69, 65, 68, 66, 65, 78, 68, 13, 66, 86, 65, 78, 74, 79, 13, 84, 82, 79, 77, 66, 79, 78, 69, 13, 89, 65, 67, 72, 84, 13, 77, 65, 83, 75, 13], "trial": 4, "time_elapsed": 1067845, "type": "FREE_RECALL", "trial_index": 171}, "uniqueid": "MTK3643:3AQF3RZ559PQRJMHE5Y683H0TEBF6S", "dateTime": 1520878198817}, {"current_trial": 172, "trialdata": {"rt": 3152, "trial_type": "text", "internal_node_id": "0.0-127.0", "time_elapsed": 1073004, "key_press": 71, "type": "INSTRUCTIONS", "trial_index": 172}, "uniqueid": "MTK3643:3AQF3RZ559PQRJMHE5Y683H0TEBF6S", "dateTime": 1520878203971}, {"current_trial": 173, "trialdata": {"rt": [2692, 4763, 7028, 8884, 11235], "trial_type": "math-distractor", "key_times": [2021, 2301, 2692, 4165, 4428, 4763, 6308, 6668, 7028, 8413, 8582, 8884, 10780, 10973, 11235], "responses": ["16", "15", "19", "12", "20"], "num2": [7, 2, 6, 3, 7, 1], "num3": [6, 7, 8, 1, 7, 2], "conditions": [12, 1600, "v", 12000], "internal_node_id": "0.0-128.0", "key_presses": [97, 102, 13, 97, 101, 13, 97, 105, 13, 97, 98, 13, 98, 96, 13], "trial": 5, "time_elapsed": 1087008, "type": "DISTRACTOR", "trial_index": 173, "num1": [3, 4, 5, 8, 6, 1]}, "uniqueid": "MTK3643:3AQF3RZ559PQRJMHE5Y683H0TEBF6S", "dateTime": 1520878217975}, {"current_trial": 174, "trialdata": {"rt": -1, "trial_type": "single-stim", "stimulus": "<p id=\"stim\">10</p>", "internal_node_id": "0.0-129.0-0.0", "time_elapsed": 1090011, "key_press": -1, "trial_index": 174}, "uniqueid": "MTK3643:3AQF3RZ559PQRJMHE5Y683H0TEBF6S", "dateTime": 1520878220978}, {"current_trial": 175, "trialdata": {"rt": 22, "trial_type": "single-stim", "stimulus": "<p id=\"stim\">9</p>", "internal_node_id": "0.0-129.0-1.0", "time_elapsed": 1091014, "key_press": 97, "trial_index": 175}, "uniqueid": "MTK3643:3AQF3RZ559PQRJMHE5Y683H0TEBF6S", "dateTime": 1520878221981}, {"current_trial": 176, "trialdata": {"rt": -1, "trial_type": "single-stim", "stimulus": "<p id=\"stim\">8</p>", "internal_node_id": "0.0-129.0-2.0", "time_elapsed": 1092016, "key_press": -1, "trial_index": 176}, "uniqueid": "MTK3643:3AQF3RZ559PQRJMHE5Y683H0TEBF6S", "dateTime": 1520878222983}, {"current_trial": 177, "trialdata": {"rt": -1, "trial_type": "single-stim", "stimulus": "<p id=\"stim\">7</p>", "internal_node_id": "0.0-129.0-3.0", "time_elapsed": 1093018, "key_press": -1, "trial_index": 177}, "uniqueid": "MTK3643:3AQF3RZ559PQRJMHE5Y683H0TEBF6S", "dateTime": 1520878223985}, {"current_trial": 178, "trialdata": {"rt": -1, "trial_type": "single-stim", "stimulus": "<p id=\"stim\">6</p>", "internal_node_id": "0.0-129.0-4.0", "time_elapsed": 1094020, "key_press": -1, "trial_index": 178}, "uniqueid": "MTK3643:3AQF3RZ559PQRJMHE5Y683H0TEBF6S", "dateTime": 1520878224987}, {"current_trial": 179, "trialdata": {"rt": -1, "trial_type": "single-stim", "stimulus": "<p id=\"stim\">5</p>", "internal_node_id": "0.0-129.0-5.0", "time_elapsed": 1095022, "key_press": -1, "trial_index": 179}, "uniqueid": "MTK3643:3AQF3RZ559PQRJMHE5Y683H0TEBF6S", "dateTime": 1520878225990}, {"current_trial": 180, "trialdata": {"rt": -1, "trial_type": "single-stim", "stimulus": "<p id=\"stim\">4</p>", "internal_node_id": "0.0-129.0-6.0", "time_elapsed": 1096024, "key_press": -1, "trial_index": 180}, "uniqueid": "MTK3643:3AQF3RZ559PQRJMHE5Y683H0TEBF6S", "dateTime": 1520878226992}, {"current_trial": 181, "trialdata": {"rt": -1, "trial_type": "single-stim", "stimulus": "<p id=\"stim\">3</p>", "internal_node_id": "0.0-129.0-7.0", "time_elapsed": 1097026, "key_press": -1, "trial_index": 181}, "uniqueid": "MTK3643:3AQF3RZ559PQRJMHE5Y683H0TEBF6S", "dateTime": 1520878227993}, {"current_trial": 182, "trialdata": {"rt": -1, "trial_type": "single-stim", "stimulus": "<p id=\"stim\">2</p>", "internal_node_id": "0.0-129.0-8.0", "time_elapsed": 1098028, "key_press": -1, "trial_index": 182}, "uniqueid": "MTK3643:3AQF3RZ559PQRJMHE5Y683H0TEBF6S", "dateTime": 1520878228995}, {"current_trial": 183, "trialdata": {"rt": -1, "trial_type": "single-stim", "stimulus": "<p id=\"stim\">1</p>", "internal_node_id": "0.0-129.0-9.0", "time_elapsed": 1099029, "key_press": -1, "trial_index": 183}, "uniqueid": "MTK3643:3AQF3RZ559PQRJMHE5Y683H0TEBF6S", "dateTime": 1520878229996}, {"current_trial": 184, "trialdata": {"rt": -1, "trial_type": "single-stim", "stimulus": "<p id=\"stim\">+</p>", "internal_node_id": "0.0-130.0-0.0", "time_elapsed": 1100531, "key_press": -1, "type": "FIXATION", "trial_index": 184}, "uniqueid": "MTK3643:3AQF3RZ559PQRJMHE5Y683H0TEBF6S", "dateTime": 1520878231499}, {"current_trial": 185, "trialdata": {"rt": -1, "trial_type": "single-stim", "word": "puppy", "stimulus": "<p id=\"stim\">PUPPY</p>", "conditions": [12, 1600, "v", 12000], "internal_node_id": "0.0-131.0", "trial": 5, "time_elapsed": 1102134, "serialpos": 0, "key_press": -1, "wordID": 1143, "type": "PRES_VIS", "trial_index": 185}, "uniqueid": "MTK3643:3AQF3RZ559PQRJMHE5Y683H0TEBF6S", "dateTime": 1520878233101}, {"current_trial": 186, "trialdata": {"rt": -1, "trial_type": "single-stim", "word": "pimple", "stimulus": "<p id=\"stim\">PIMPLE</p>", "conditions": [12, 1600, "v", 12000], "internal_node_id": "0.0-132.0", "trial": 5, "time_elapsed": 1104807, "serialpos": 1, "key_press": -1, "wordID": 1070, "type": "PRES_VIS", "trial_index": 186}, "uniqueid": "MTK3643:3AQF3RZ559PQRJMHE5Y683H0TEBF6S", "dateTime": 1520878235774}, {"current_trial": 187, "trialdata": {"rt": -1, "trial_type": "single-stim", "word": "iceberg", "stimulus": "<p id=\"stim\">ICEBERG</p>", "conditions": [12, 1600, "v", 12000], "internal_node_id": "0.0-133.0", "trial": 5, "time_elapsed": 1107463, "serialpos": 2, "key_press": -1, "wordID": 730, "type": "PRES_VIS", "trial_index": 187}, "uniqueid": "MTK3643:3AQF3RZ559PQRJMHE5Y683H0TEBF6S", "dateTime": 1520878238430}, {"current_trial": 188, "trialdata": {"rt": -1, "trial_type": "single-stim", "word": "creature", "stimulus": "<p id=\"stim\">CREATURE</p>", "conditions": [12, 1600, "v", 12000], "internal_node_id": "0.0-134.0", "trial": 5, "time_elapsed": 1110226, "serialpos": 3, "key_press": -1, "wordID": 402, "type": "PRES_VIS", "trial_index": 188}, "uniqueid": "MTK3643:3AQF3RZ559PQRJMHE5Y683H0TEBF6S", "dateTime": 1520878241193}, {"current_trial": 189, "trialdata": {"rt": -1, "trial_type": "single-stim", "word": "clothes", "stimulus": "<p id=\"stim\">CLOTHES</p>", "conditions": [12, 1600, "v", 12000], "internal_node_id": "0.0-135.0", "trial": 5, "time_elapsed": 1112828, "serialpos": 4, "key_press": -1, "wordID": 326, "type": "PRES_VIS", "trial_index": 189}, "uniqueid": "MTK3643:3AQF3RZ559PQRJMHE5Y683H0TEBF6S", "dateTime": 1520878243796}, {"current_trial": 190, "trialdata": {"rt": -1, "trial_type": "single-stim", "word": "stomach", "stimulus": "<p id=\"stim\">STOMACH</p>", "conditions": [12, 1600, "v", 12000], "internal_node_id": "0.0-136.0", "trial": 5, "time_elapsed": 1115480, "serialpos": 5, "key_press": -1, "wordID": 1383, "type": "PRES_VIS", "trial_index": 190}, "uniqueid": "MTK3643:3AQF3RZ559PQRJMHE5Y683H0TEBF6S", "dateTime": 1520878246447}, {"current_trial": 191, "trialdata": {"rt": -1, "trial_type": "single-stim", "word": "chest", "stimulus": "<p id=\"stim\">CHEST</p>", "conditions": [12, 1600, "v", 12000], "internal_node_id": "0.0-137.0", "trial": 5, "time_elapsed": 1118086, "serialpos": 6, "key_press": -1, "wordID": 294, "type": "PRES_VIS", "trial_index": 191}, "uniqueid": "MTK3643:3AQF3RZ559PQRJMHE5Y683H0TEBF6S", "dateTime": 1520878249053}, {"current_trial": 192, "trialdata": {"rt": -1, "trial_type": "single-stim", "word": "hook", "stimulus": "<p id=\"stim\">HOOK</p>", "conditions": [12, 1600, "v", 12000], "internal_node_id": "0.0-138.0", "trial": 5, "time_elapsed": 1120655, "serialpos": 7, "key_press": -1, "wordID": 714, "type": "PRES_VIS", "trial_index": 192}, "uniqueid": "MTK3643:3AQF3RZ559PQRJMHE5Y683H0TEBF6S", "dateTime": 1520878251622}, {"current_trial": 193, "trialdata": {"rt": -1, "trial_type": "single-stim", "word": "turtle", "stimulus": "<p id=\"stim\">TURTLE</p>", "conditions": [12, 1600, "v", 12000], "internal_node_id": "0.0-139.0", "trial": 5, "time_elapsed": 1123194, "serialpos": 8, "key_press": -1, "wordID": 1521, "type": "PRES_VIS", "trial_index": 193}, "uniqueid": "MTK3643:3AQF3RZ559PQRJMHE5Y683H0TEBF6S", "dateTime": 1520878254161}, {"current_trial": 194, "trialdata": {"rt": -1, "trial_type": "single-stim", "word": "badge", "stimulus": "<p id=\"stim\">BADGE</p>", "conditions": [12, 1600, "v", 12000], "internal_node_id": "0.0-140.0", "trial": 5, "time_elapsed": 1125763, "serialpos": 9, "key_press": -1, "wordID": 67, "type": "PRES_VIS", "trial_index": 194}, "uniqueid": "MTK3643:3AQF3RZ559PQRJMHE5Y683H0TEBF6S", "dateTime": 1520878256731}, {"current_trial": 195, "trialdata": {"rt": -1, "trial_type": "single-stim", "word": "freckle", "stimulus": "<p id=\"stim\">FRECKLE</p>", "conditions": [12, 1600, "v", 12000], "internal_node_id": "0.0-141.0", "trial": 5, "time_elapsed": 1128317, "serialpos": 10, "key_press": -1, "wordID": 601, "type": "PRES_VIS", "trial_index": 195}, "uniqueid": "MTK3643:3AQF3RZ559PQRJMHE5Y683H0TEBF6S", "dateTime": 1520878259284}, {"current_trial": 196, "trialdata": {"rt": -1, "trial_type": "single-stim", "word": "mop", "stimulus": "<p id=\"stim\">MOP</p>", "conditions": [12, 1600, "v", 12000], "internal_node_id": "0.0-142.0", "trial": 5, "time_elapsed": 1130935, "serialpos": 11, "key_press": -1, "wordID": 915, "type": "PRES_VIS", "trial_index": 196}, "uniqueid": "MTK3643:3AQF3RZ559PQRJMHE5Y683H0TEBF6S", "dateTime": 1520878261903}, {"current_trial": 197, "trialdata": {"rt": -1, "trial_type": "single-stim", "stimulus": "", "internal_node_id": "0.0-143.0-0.0", "time_elapsed": 1133229, "key_press": -1, "type": "PRE_RECALL_DELAY", "trial_index": 197}, "uniqueid": "MTK3643:3AQF3RZ559PQRJMHE5Y683H0TEBF6S", "dateTime": 1520878264196}, {"current_trial": 198, "trialdata": {"rt": -1000, "trial_type": "single-audio", "stimulus": "/static/audio/400Hz.wav", "internal_node_id": "0.0-144.0", "time_elapsed": 1133731, "key_press": -1, "type": "PRE_RECALL_ALERT", "trial_index": 198}, "uniqueid": "MTK3643:3AQF3RZ559PQRJMHE5Y683H0TEBF6S", "dateTime": 1520878264698}, {"current_trial": 199, "trialdata": {"rt": [2973, 7263, 10670, 13454, 16478, 19694, 28317, 45174], "recwords": ["mop", "iceberg", "creature", "lizard", "puppy", "pimple", "cartoon", "mop"], "key_times": [1288, 1719, 2006, 2973, 4312, 4863, 5151, 5607, 5966, 6512, 6799, 7263, 7943, 8191, 8383, 8607, 9143, 9574, 9846, 10055, 10670, 11199, 11384, 11935, 12119, 12632, 12879, 13454, 14119, 14966, 15391, 15551, 15984, 16478, 17120, 17351, 17646, 18071, 18286, 19031, 19694, 25878, 26222, 26606, 26878, 27398, 27566, 27854, 28317, 44184, 44496, 44695, 45174], "trial_type": "free-recall", "conditions": [12, 1600, "v", 12000], "internal_node_id": "0.0-145.0-0.0", "key_presses": [77, 79, 80, 13, 73, 67, 69, 66, 69, 82, 71, 13, 67, 82, 69, 65, 84, 85, 82, 69, 13, 76, 73, 90, 65, 82, 68, 13, 80, 85, 80, 80, 89, 13, 80, 73, 77, 80, 76, 69, 13, 67, 65, 82, 84, 79, 79, 78, 13, 77, 79, 80, 13], "trial": 5, "time_elapsed": 1193727, "type": "FREE_RECALL", "trial_index": 199}, "uniqueid": "MTK3643:3AQF3RZ559PQRJMHE5Y683H0TEBF6S", "dateTime": 1520878324699}, {"current_trial": 200, "trialdata": {"rt": 3775, "trial_type": "text", "internal_node_id": "0.0-146.0", "time_elapsed": 1199508, "key_press": 72, "type": "INSTRUCTIONS", "trial_index": 200}, "uniqueid": "MTK3643:3AQF3RZ559PQRJMHE5Y683H0TEBF6S", "dateTime": 1520878330475}, {"current_trial": 201, "trialdata": {"rt": [2898, 5114, 7059, 9570, 11522], "trial_type": "math-distractor", "key_times": [2179, 2898, 4387, 4700, 5114, 6571, 6772, 7059, 8940, 9123, 9570, 11084, 11243, 11522], "responses": ["9", "14", "12", "24", "11"], "num2": [1, 4, 2, 6, 2, 9], "num3": [7, 4, 7, 9, 2, 3], "conditions": [24, 800, "v", 12000], "internal_node_id": "0.0-147.0", "key_presses": [105, 13, 97, 100, 13, 97, 98, 13, 98, 100, 13, 97, 97, 13], "trial": 6, "time_elapsed": 1213514, "type": "DISTRACTOR", "trial_index": 201, "num1": [1, 6, 3, 9, 7, 3]}, "uniqueid": "MTK3643:3AQF3RZ559PQRJMHE5Y683H0TEBF6S", "dateTime": 1520878344481}, {"current_trial": 202, "trialdata": {"rt": -1, "trial_type": "single-stim", "stimulus": "<p id=\"stim\">10</p>", "internal_node_id": "0.0-148.0-0.0", "time_elapsed": 1216516, "key_press": -1, "trial_index": 202}, "uniqueid": "MTK3643:3AQF3RZ559PQRJMHE5Y683H0TEBF6S", "dateTime": 1520878347483}, {"current_trial": 203, "trialdata": {"rt": -1, "trial_type": "single-stim", "stimulus": "<p id=\"stim\">9</p>", "internal_node_id": "0.0-148.0-1.0", "time_elapsed": 1217517, "key_press": -1, "trial_index": 203}, "uniqueid": "MTK3643:3AQF3RZ559PQRJMHE5Y683H0TEBF6S", "dateTime": 1520878348484}, {"current_trial": 204, "trialdata": {"rt": -1, "trial_type": "single-stim", "stimulus": "<p id=\"stim\">8</p>", "internal_node_id": "0.0-148.0-2.0", "time_elapsed": 1218518, "key_press": -1, "trial_index": 204}, "uniqueid": "MTK3643:3AQF3RZ559PQRJMHE5Y683H0TEBF6S", "dateTime": 1520878349485}, {"current_trial": 205, "trialdata": {"rt": -1, "trial_type": "single-stim", "stimulus": "<p id=\"stim\">7</p>", "internal_node_id": "0.0-148.0-3.0", "time_elapsed": 1219521, "key_press": -1, "trial_index": 205}, "uniqueid": "MTK3643:3AQF3RZ559PQRJMHE5Y683H0TEBF6S", "dateTime": 1520878350488}, {"current_trial": 206, "trialdata": {"rt": -1, "trial_type": "single-stim", "stimulus": "<p id=\"stim\">6</p>", "internal_node_id": "0.0-148.0-4.0", "time_elapsed": 1220522, "key_press": -1, "trial_index": 206}, "uniqueid": "MTK3643:3AQF3RZ559PQRJMHE5Y683H0TEBF6S", "dateTime": 1520878351489}, {"current_trial": 207, "trialdata": {"rt": -1, "trial_type": "single-stim", "stimulus": "<p id=\"stim\">5</p>", "internal_node_id": "0.0-148.0-5.0", "time_elapsed": 1221524, "key_press": -1, "trial_index": 207}, "uniqueid": "MTK3643:3AQF3RZ559PQRJMHE5Y683H0TEBF6S", "dateTime": 1520878352491}, {"current_trial": 208, "trialdata": {"rt": -1, "trial_type": "single-stim", "stimulus": "<p id=\"stim\">4</p>", "internal_node_id": "0.0-148.0-6.0", "time_elapsed": 1222526, "key_press": -1, "trial_index": 208}, "uniqueid": "MTK3643:3AQF3RZ559PQRJMHE5Y683H0TEBF6S", "dateTime": 1520878353493}, {"current_trial": 209, "trialdata": {"rt": -1, "trial_type": "single-stim", "stimulus": "<p id=\"stim\">3</p>", "internal_node_id": "0.0-148.0-7.0", "time_elapsed": 1223527, "key_press": -1, "trial_index": 209}, "uniqueid": "MTK3643:3AQF3RZ559PQRJMHE5Y683H0TEBF6S", "dateTime": 1520878354494}, {"current_trial": 210, "trialdata": {"rt": -1, "trial_type": "single-stim", "stimulus": "<p id=\"stim\">2</p>", "internal_node_id": "0.0-148.0-8.0", "time_elapsed": 1224530, "key_press": -1, "trial_index": 210}, "uniqueid": "MTK3643:3AQF3RZ559PQRJMHE5Y683H0TEBF6S", "dateTime": 1520878355497}, {"current_trial": 211, "trialdata": {"rt": -1, "trial_type": "single-stim", "stimulus": "<p id=\"stim\">1</p>", "internal_node_id": "0.0-148.0-9.0", "time_elapsed": 1225531, "key_press": -1, "trial_index": 211}, "uniqueid": "MTK3643:3AQF3RZ559PQRJMHE5Y683H0TEBF6S", "dateTime": 1520878356499}, {"current_trial": 212, "trialdata": {"rt": -1, "trial_type": "single-stim", "stimulus": "<p id=\"stim\">+</p>", "internal_node_id": "0.0-149.0-0.0", "time_elapsed": 1227033, "key_press": -1, "type": "FIXATION", "trial_index": 212}, "uniqueid": "MTK3643:3AQF3RZ559PQRJMHE5Y683H0TEBF6S", "dateTime": 1520878358000}, {"current_trial": 213, "trialdata": {"rt": -1, "trial_type": "single-stim", "word": "laser", "stimulus": "<p id=\"stim\">LASER</p>", "conditions": [24, 800, "v", 12000], "internal_node_id": "0.0-150.0", "trial": 6, "time_elapsed": 1227835, "serialpos": 0, "key_press": -1, "wordID": 800, "type": "PRES_VIS", "trial_index": 213}, "uniqueid": "MTK3643:3AQF3RZ559PQRJMHE5Y683H0TEBF6S", "dateTime": 1520878358802}, {"current_trial": 214, "trialdata": {"rt": -1, "trial_type": "single-stim", "word": "picnic", "stimulus": "<p id=\"stim\">PICNIC</p>", "conditions": [24, 800, "v", 12000], "internal_node_id": "0.0-151.0", "trial": 6, "time_elapsed": 1229771, "serialpos": 1, "key_press": -1, "wordID": 1059, "type": "PRES_VIS", "trial_index": 214}, "uniqueid": "MTK3643:3AQF3RZ559PQRJMHE5Y683H0TEBF6S", "dateTime": 1520878360738}, {"current_trial": 215, "trialdata": {"rt": -1, "trial_type": "single-stim", "word": "spouse", "stimulus": "<p id=\"stim\">SPOUSE</p>", "conditions": [24, 800, "v", 12000], "internal_node_id": "0.0-152.0", "trial": 6, "time_elapsed": 1231421, "serialpos": 2, "key_press": -1, "wordID": 1357, "type": "PRES_VIS", "trial_index": 215}, "uniqueid": "MTK3643:3AQF3RZ559PQRJMHE5Y683H0TEBF6S", "dateTime": 1520878362388}, {"current_trial": 216, "trialdata": {"rt": -1, "trial_type": "single-stim", "word": "college", "stimulus": "<p id=\"stim\">COLLEGE</p>", "conditions": [24, 800, "v", 12000], "internal_node_id": "0.0-153.0", "trial": 6, "time_elapsed": 1233131, "serialpos": 3, "key_press": -1, "wordID": 345, "type": "PRES_VIS", "trial_index": 216}, "uniqueid": "MTK3643:3AQF3RZ559PQRJMHE5Y683H0TEBF6S", "dateTime": 1520878364098}, {"current_trial": 217, "trialdata": {"rt": -1, "trial_type": "single-stim", "word": "hand", "stimulus": "<p id=\"stim\">HAND</p>", "conditions": [24, 800, "v", 12000], "internal_node_id": "0.0-154.0", "trial": 6, "time_elapsed": 1234981, "serialpos": 4, "key_press": -1, "wordID": 682, "type": "PRES_VIS", "trial_index": 217}, "uniqueid": "MTK3643:3AQF3RZ559PQRJMHE5Y683H0TEBF6S", "dateTime": 1520878365948}, {"current_trial": 218, "trialdata": {"rt": -1, "trial_type": "single-stim", "word": "supper", "stimulus": "<p id=\"stim\">SUPPER</p>", "conditions": [24, 800, "v", 12000], "internal_node_id": "0.0-155.0", "trial": 6, "time_elapsed": 1236614, "serialpos": 5, "key_press": -1, "wordID": 1410, "type": "PRES_VIS", "trial_index": 218}, "uniqueid": "MTK3643:3AQF3RZ559PQRJMHE5Y683H0TEBF6S", "dateTime": 1520878367581}, {"current_trial": 219, "trialdata": {"rt": -1, "trial_type": "single-stim", "word": "atom", "stimulus": "<p id=\"stim\">ATOM</p>", "conditions": [24, 800, "v", 12000], "internal_node_id": "0.0-156.0", "trial": 6, "time_elapsed": 1238233, "serialpos": 6, "key_press": -1, "wordID": 54, "type": "PRES_VIS", "trial_index": 219}, "uniqueid": "MTK3643:3AQF3RZ559PQRJMHE5Y683H0TEBF6S", "dateTime": 1520878369200}, {"current_trial": 220, "trialdata": {"rt": -1, "trial_type": "single-stim", "word": "fireplace", "stimulus": "<p id=\"stim\">FIREPLACE</p>", "conditions": [24, 800, "v", 12000], "internal_node_id": "0.0-157.0", "trial": 6, "time_elapsed": 1240071, "serialpos": 7, "key_press": -1, "wordID": 569, "type": "PRES_VIS", "trial_index": 220}, "uniqueid": "MTK3643:3AQF3RZ559PQRJMHE5Y683H0TEBF6S", "dateTime": 1520878371038}, {"current_trial": 221, "trialdata": {"rt": -1, "trial_type": "single-stim", "word": "kitchen", "stimulus": "<p id=\"stim\">KITCHEN</p>", "conditions": [24, 800, "v", 12000], "internal_node_id": "0.0-158.0", "trial": 6, "time_elapsed": 1241876, "serialpos": 8, "key_press": -1, "wordID": 777, "type": "PRES_VIS", "trial_index": 221}, "uniqueid": "MTK3643:3AQF3RZ559PQRJMHE5Y683H0TEBF6S", "dateTime": 1520878372844}, {"current_trial": 222, "trialdata": {"rt": -1, "trial_type": "single-stim", "word": "juggler", "stimulus": "<p id=\"stim\">JUGGLER</p>", "conditions": [24, 800, "v", 12000], "internal_node_id": "0.0-159.0", "trial": 6, "time_elapsed": 1243877, "serialpos": 9, "key_press": -1, "wordID": 762, "type": "PRES_VIS", "trial_index": 222}, "uniqueid": "MTK3643:3AQF3RZ559PQRJMHE5Y683H0TEBF6S", "dateTime": 1520878374844}, {"current_trial": 223, "trialdata": {"rt": -1, "trial_type": "single-stim", "word": "grave", "stimulus": "<p id=\"stim\">GRAVE</p>", "conditions": [24, 800, "v", 12000], "internal_node_id": "0.0-160.0", "trial": 6, "time_elapsed": 1245858, "serialpos": 10, "key_press": -1, "wordID": 657, "type": "PRES_VIS", "trial_index": 223}, "uniqueid": "MTK3643:3AQF3RZ559PQRJMHE5Y683H0TEBF6S", "dateTime": 1520878376826}, {"current_trial": 224, "trialdata": {"rt": -1, "trial_type": "single-stim", "word": "marsh", "stimulus": "<p id=\"stim\">MARSH</p>", "conditions": [24, 800, "v", 12000], "internal_node_id": "0.0-161.0", "trial": 6, "time_elapsed": 1247763, "serialpos": 11, "key_press": -1, "wordID": 873, "type": "PRES_VIS", "trial_index": 224}, "uniqueid": "MTK3643:3AQF3RZ559PQRJMHE5Y683H0TEBF6S", "dateTime": 1520878378730}, {"current_trial": 225, "trialdata": {"rt": -1, "trial_type": "single-stim", "word": "statue", "stimulus": "<p id=\"stim\">STATUE</p>", "conditions": [24, 800, "v", 12000], "internal_node_id": "0.0-162.0", "trial": 6, "time_elapsed": 1249659, "serialpos": 12, "key_press": -1, "wordID": 1373, "type": "PRES_VIS", "trial_index": 225}, "uniqueid": "MTK3643:3AQF3RZ559PQRJMHE5Y683H0TEBF6S", "dateTime": 1520878380626}, {"current_trial": 226, "trialdata": {"rt": -1, "trial_type": "single-stim", "word": "barrel", "stimulus": "<p id=\"stim\">BARREL</p>", "conditions": [24, 800, "v", 12000], "internal_node_id": "0.0-163.0", "trial": 6, "time_elapsed": 1251263, "serialpos": 13, "key_press": -1, "wordID": 90, "type": "PRES_VIS", "trial_index": 226}, "uniqueid": "MTK3643:3AQF3RZ559PQRJMHE5Y683H0TEBF6S", "dateTime": 1520878382230}, {"current_trial": 227, "trialdata": {"rt": -1, "trial_type": "single-stim", "word": "woman", "stimulus": "<p id=\"stim\">WOMAN</p>", "conditions": [24, 800, "v", 12000], "internal_node_id": "0.0-164.0", "trial": 6, "time_elapsed": 1253105, "serialpos": 14, "key_press": -1, "wordID": 1619, "type": "PRES_VIS", "trial_index": 227}, "uniqueid": "MTK3643:3AQF3RZ559PQRJMHE5Y683H0TEBF6S", "dateTime": 1520878384072}, {"current_trial": 228, "trialdata": {"rt": -1, "trial_type": "single-stim", "word": "author", "stimulus": "<p id=\"stim\">AUTHOR</p>", "conditions": [24, 800, "v", 12000], "internal_node_id": "0.0-165.0", "trial": 6, "time_elapsed": 1254932, "serialpos": 15, "key_press": -1, "wordID": 60, "type": "PRES_VIS", "trial_index": 228}, "uniqueid": "MTK3643:3AQF3RZ559PQRJMHE5Y683H0TEBF6S", "dateTime": 1520878385900}, {"current_trial": 229, "trialdata": {"rt": -1, "trial_type": "single-stim", "word": "actor", "stimulus": "<p id=\"stim\">ACTOR</p>", "conditions": [24, 800, "v", 12000], "internal_node_id": "0.0-166.0", "trial": 6, "time_elapsed": 1256564, "serialpos": 16, "key_press": -1, "wordID": 4, "type": "PRES_VIS", "trial_index": 229}, "uniqueid": "MTK3643:3AQF3RZ559PQRJMHE5Y683H0TEBF6S", "dateTime": 1520878387531}, {"current_trial": 230, "trialdata": {"rt": -1, "trial_type": "single-stim", "word": "hatchet", "stimulus": "<p id=\"stim\">HATCHET</p>", "conditions": [24, 800, "v", 12000], "internal_node_id": "0.0-167.0", "trial": 6, "time_elapsed": 1258558, "serialpos": 17, "key_press": -1, "wordID": 690, "type": "PRES_VIS", "trial_index": 230}, "uniqueid": "MTK3643:3AQF3RZ559PQRJMHE5Y683H0TEBF6S", "dateTime": 1520878389525}, {"current_trial": 231, "trialdata": {"rt": -1, "trial_type": "single-stim", "word": "arm", "stimulus": "<p id=\"stim\">ARM</p>", "conditions": [24, 800, "v", 12000], "internal_node_id": "0.0-168.0", "trial": 6, "time_elapsed": 1260390, "serialpos": 18, "key_press": -1, "wordID": 37, "type": "PRES_VIS", "trial_index": 231}, "uniqueid": "MTK3643:3AQF3RZ559PQRJMHE5Y683H0TEBF6S", "dateTime": 1520878391357}, {"current_trial": 232, "trialdata": {"rt": -1, "trial_type": "single-stim", "word": "leg", "stimulus": "<p id=\"stim\">LEG</p>", "conditions": [24, 800, "v", 12000], "internal_node_id": "0.0-169.0", "trial": 6, "time_elapsed": 1262026, "serialpos": 19, "key_press": -1, "wordID": 808, "type": "PRES_VIS", "trial_index": 232}, "uniqueid": "MTK3643:3AQF3RZ559PQRJMHE5Y683H0TEBF6S", "dateTime": 1520878392993}, {"current_trial": 233, "trialdata": {"rt": -1, "trial_type": "single-stim", "word": "gymnast", "stimulus": "<p id=\"stim\">GYMNAST</p>", "conditions": [24, 800, "v", 12000], "internal_node_id": "0.0-170.0", "trial": 6, "time_elapsed": 1263878, "serialpos": 20, "key_press": -1, "wordID": 674, "type": "PRES_VIS", "trial_index": 233}, "uniqueid": "MTK3643:3AQF3RZ559PQRJMHE5Y683H0TEBF6S", "dateTime": 1520878394845}, {"current_trial": 234, "trialdata": {"rt": -1, "trial_type": "single-stim", "word": "guard", "stimulus": "<p id=\"stim\">GUARD</p>", "conditions": [24, 800, "v", 12000], "internal_node_id": "0.0-171.0", "trial": 6, "time_elapsed": 1265788, "serialpos": 21, "key_press": -1, "wordID": 666, "type": "PRES_VIS", "trial_index": 234}, "uniqueid": "MTK3643:3AQF3RZ559PQRJMHE5Y683H0TEBF6S", "dateTime": 1520878396755}, {"current_trial": 235, "trialdata": {"rt": -1, "trial_type": "single-stim", "word": "fruit", "stimulus": "<p id=\"stim\">FRUIT</p>", "conditions": [24, 800, "v", 12000], "internal_node_id": "0.0-172.0", "trial": 6, "time_elapsed": 1267615, "serialpos": 22, "key_press": -1, "wordID": 609, "type": "PRES_VIS", "trial_index": 235}, "uniqueid": "MTK3643:3AQF3RZ559PQRJMHE5Y683H0TEBF6S", "dateTime": 1520878398582}, {"current_trial": 236, "trialdata": {"rt": -1, "trial_type": "single-stim", "word": "actress", "stimulus": "<p id=\"stim\">ACTRESS</p>", "conditions": [24, 800, "v", 12000], "internal_node_id": "0.0-173.0", "trial": 6, "time_elapsed": 1269499, "serialpos": 23, "key_press": -1, "wordID": 5, "type": "PRES_VIS", "trial_index": 236}, "uniqueid": "MTK3643:3AQF3RZ559PQRJMHE5Y683H0TEBF6S", "dateTime": 1520878400466}, {"current_trial": 237, "trialdata": {"rt": -1, "trial_type": "single-stim", "stimulus": "", "internal_node_id": "0.0-174.0-0.0", "time_elapsed": 1271724, "key_press": -1, "type": "PRE_RECALL_DELAY", "trial_index": 237}, "uniqueid": "MTK3643:3AQF3RZ559PQRJMHE5Y683H0TEBF6S", "dateTime": 1520878402692}, {"current_trial": 238, "trialdata": {"rt": -1000, "trial_type": "single-audio", "stimulus": "/static/audio/400Hz.wav", "internal_node_id": "0.0-175.0", "time_elapsed": 1272241, "key_press": -1, "type": "PRE_RECALL_ALERT", "trial_index": 238}, "uniqueid": "MTK3643:3AQF3RZ559PQRJMHE5Y683H0TEBF6S", "dateTime": 1520878403209}, {"current_trial": 239, "trialdata": {"rt": [3294, 5742, 8743, 10695, 13045, 15366, 18574, 22591, 26015, 28166, 31206, 37630, 51878], "recwords": ["guard", "actress", "gymnast", "woman", "arm", "leg", "juggler", "husband", "picnic", "laser", "hatchet", "marsh", "actress"], "key_times": [1576, 1863, 2198, 2485, 2926, 3294, 3934, 4205, 4503, 4678, 4895, 5143, 5343, 5742, 6143, 6494, 7064, 7254, 7495, 7766, 8246, 8743, 9271, 9543, 9839, 10175, 10471, 10695, 10943, 11229, 12296, 13045, 14198, 14486, 14712, 15366, 15935, 16142, 16543, 16695, 17039, 17471, 17759, 18574, 20046, 20206, 20567, 21023, 21415, 21846, 22118, 22591, 23711, 23943, 24480, 24815, 25144, 25623, 26015, 26592, 26791, 27064, 27238, 27438, 28166, 28743, 28895, 29295, 29615, 29911, 30166, 30455, 31206, 35319, 35679, 36111, 36591, 37135, 37630, 50361, 50592, 50839, 50983, 51168, 51295, 51503, 51878], "trial_type": "free-recall", "conditions": [24, 800, "v", 12000], "internal_node_id": "0.0-176.0-0.0", "key_presses": [71, 85, 65, 82, 68, 13, 65, 67, 84, 82, 69, 83, 83, 32, 71, 89, 77, 78, 65, 83, 84, 13, 87, 79, 77, 65, 78, 32, 65, 82, 77, 13, 76, 69, 71, 13, 74, 85, 71, 71, 76, 69, 82, 13, 72, 85, 83, 66, 65, 78, 68, 13, 80, 73, 67, 78, 73, 67, 13, 76, 65, 83, 69, 82, 13, 72, 65, 84, 67, 72, 69, 84, 13, 77, 65, 82, 83, 72, 13, 65, 67, 84, 82, 69, 83, 83, 13], "trial": 6, "time_elapsed": 1332246, "type": "FREE_RECALL", "trial_index": 239}, "uniqueid": "MTK3643:3AQF3RZ559PQRJMHE5Y683H0TEBF6S", "dateTime": 1520878463219}, {"current_trial": 240, "trialdata": {"rt": 1758, "trial_type": "text", "internal_node_id": "0.0-177.0", "time_elapsed": 1336013, "key_press": 75, "type": "INSTRUCTIONS", "trial_index": 240}, "uniqueid": "MTK3643:3AQF3RZ559PQRJMHE5Y683H0TEBF6S", "dateTime": 1520878466981}, {"current_trial": 241, "trialdata": {"rt": [3042, 5155, 7866, 10275], "trial_type": "math-distractor", "key_times": [2395, 2666, 3042, 4732, 5155, 7282, 7467, 7866, 9653, 9964, 10275, 11980], "responses": ["16", "7", "14", "16"], "num2": [7, 2, 4, 8, 4], "num3": [5, 1, 6, 4, 6], "conditions": [24, 1600, "v", 12000], "internal_node_id": "0.0-178.0", "key_presses": [97, 102, 13, 103, 13, 97, 100, 13, 97, 102, 13, 97], "trial": 7, "time_elapsed": 1350018, "type": "DISTRACTOR", "trial_index": 241, "num1": [4, 4, 4, 4, 4]}, "uniqueid": "MTK3643:3AQF3RZ559PQRJMHE5Y683H0TEBF6S", "dateTime": 1520878480985}, {"current_trial": 242, "trialdata": {"rt": -1, "trial_type": "single-stim", "stimulus": "<p id=\"stim\">10</p>", "internal_node_id": "0.0-179.0-0.0", "time_elapsed": 1353021, "key_press": -1, "trial_index": 242}, "uniqueid": "MTK3643:3AQF3RZ559PQRJMHE5Y683H0TEBF6S", "dateTime": 1520878483989}, {"current_trial": 243, "trialdata": {"rt": -1, "trial_type": "single-stim", "stimulus": "<p id=\"stim\">9</p>", "internal_node_id": "0.0-179.0-1.0", "time_elapsed": 1354024, "key_press": -1, "trial_index": 243}, "uniqueid": "MTK3643:3AQF3RZ559PQRJMHE5Y683H0TEBF6S", "dateTime": 1520878484991}, {"current_trial": 244, "trialdata": {"rt": -1, "trial_type": "single-stim", "stimulus": "<p id=\"stim\">8</p>", "internal_node_id": "0.0-179.0-2.0", "time_elapsed": 1355026, "key_press": -1, "trial_index": 244}, "uniqueid": "MTK3643:3AQF3RZ559PQRJMHE5Y683H0TEBF6S", "dateTime": 1520878485993}, {"current_trial": 245, "trialdata": {"rt": -1, "trial_type": "single-stim", "stimulus": "<p id=\"stim\">7</p>", "internal_node_id": "0.0-179.0-3.0", "time_elapsed": 1356028, "key_press": -1, "trial_index": 245}, "uniqueid": "MTK3643:3AQF3RZ559PQRJMHE5Y683H0TEBF6S", "dateTime": 1520878486995}, {"current_trial": 246, "trialdata": {"rt": -1, "trial_type": "single-stim", "stimulus": "<p id=\"stim\">6</p>", "internal_node_id": "0.0-179.0-4.0", "time_elapsed": 1357030, "key_press": -1, "trial_index": 246}, "uniqueid": "MTK3643:3AQF3RZ559PQRJMHE5Y683H0TEBF6S", "dateTime": 1520878487997}, {"current_trial": 247, "trialdata": {"rt": -1, "trial_type": "single-stim", "stimulus": "<p id=\"stim\">5</p>", "internal_node_id": "0.0-179.0-5.0", "time_elapsed": 1358032, "key_press": -1, "trial_index": 247}, "uniqueid": "MTK3643:3AQF3RZ559PQRJMHE5Y683H0TEBF6S", "dateTime": 1520878489000}, {"current_trial": 248, "trialdata": {"rt": -1, "trial_type": "single-stim", "stimulus": "<p id=\"stim\">4</p>", "internal_node_id": "0.0-179.0-6.0", "time_elapsed": 1359035, "key_press": -1, "trial_index": 248}, "uniqueid": "MTK3643:3AQF3RZ559PQRJMHE5Y683H0TEBF6S", "dateTime": 1520878490002}, {"current_trial": 249, "trialdata": {"rt": -1, "trial_type": "single-stim", "stimulus": "<p id=\"stim\">3</p>", "internal_node_id": "0.0-179.0-7.0", "time_elapsed": 1360037, "key_press": -1, "trial_index": 249}, "uniqueid": "MTK3643:3AQF3RZ559PQRJMHE5Y683H0TEBF6S", "dateTime": 1520878491004}, {"current_trial": 250, "trialdata": {"rt": -1, "trial_type": "single-stim", "stimulus": "<p id=\"stim\">2</p>", "internal_node_id": "0.0-179.0-8.0", "time_elapsed": 1361039, "key_press": -1, "trial_index": 250}, "uniqueid": "MTK3643:3AQF3RZ559PQRJMHE5Y683H0TEBF6S", "dateTime": 1520878492006}, {"current_trial": 251, "trialdata": {"rt": -1, "trial_type": "single-stim", "stimulus": "<p id=\"stim\">1</p>", "internal_node_id": "0.0-179.0-9.0", "time_elapsed": 1362042, "key_press": -1, "trial_index": 251}, "uniqueid": "MTK3643:3AQF3RZ559PQRJMHE5Y683H0TEBF6S", "dateTime": 1520878493009}, {"current_trial": 252, "trialdata": {"rt": -1, "trial_type": "single-stim", "stimulus": "<p id=\"stim\">+</p>", "internal_node_id": "0.0-180.0-0.0", "time_elapsed": 1363544, "key_press": -1, "type": "FIXATION", "trial_index": 252}, "uniqueid": "MTK3643:3AQF3RZ559PQRJMHE5Y683H0TEBF6S", "dateTime": 1520878494511}, {"current_trial": 253, "trialdata": {"rt": -1, "trial_type": "single-stim", "word": "banker", "stimulus": "<p id=\"stim\">BANKER</p