{"assignmentId": "3U5JL4WY5LGTCI9OVBBDHCXT1W84X2", "workerId": "MTK3696", "questiondata": {"avail_screen_height": 1040, "color_depth": 24, "screen_width": 1920, "pixel_depth": 24, "avail_screen_width": 1920, "screen_height": 1080}, "bonus": 0, "hitId": "3YLPJ8OXX8KRPYBU596BSS19GFZX4S", "counterbalance": 1596, "useragent": "Mozilla/5.0 (Windows NT 6.1; Win64; x64) AppleWebKit/537.36 (KHTML, like Gecko) Chrome/63.0.3239.108 Safari/537.36", "eventdata": [{"eventtype": "initialized", "interval": 0, "value": null, "timestamp": 1520962585540}, {"eventtype": "window_resize", "interval": 0, "value": [1920, 1040], "timestamp": 1520962585540}, {"eventtype": "focus", "interval": 9328, "value": "off", "timestamp": 1520962594868}, {"eventtype": "focus", "interval": 3988, "value": "on", "timestamp": 1520962598856}, {"eventtype": "focus", "interval": 49124, "value": "off", "timestamp": 1520962647980}, {"eventtype": "focus", "interval": 5105, "value": "on", "timestamp": 1520962653085}, {"eventtype": "focus", "interval": 25670, "value": "off", "timestamp": 1520962678755}, {"eventtype": "focus", "interval": 3389, "value": "on", "timestamp": 1520962682144}, {"eventtype": "focus", "interval": 198485, "value": "off", "timestamp": 1520962880629}, {"eventtype": "focus", "interval": 3308, "value": "on", "timestamp": 1520962883937}, {"eventtype": "focus", "interval": 59507, "value": "off", "timestamp": 1520962943444}, {"eventtype": "focus", "interval": 18207, "value": "on", "timestamp": 1520962961651}], "data": [{"current_trial": 0, "trialdata": {"rt": 2034, "trial_type": "text", "internal_node_id": "0.0-0.0", "time_elapsed": 2038, "key_press": 32, "type": "INSTRUCTIONS", "trial_index": 0}, "uniqueid": "MTK3696:3U5JL4WY5LGTCI9OVBBDHCXT1W84X2", "dateTime": 1520962604545}, {"current_trial": 1, "trialdata": {"rt": 12915, "trial_type": "text", "internal_node_id": "0.0-1.0", "time_elapsed": 14958, "key_press": 32, "type": "INSTRUCTIONS", "trial_index": 1}, "uniqueid": "MTK3696:3U5JL4WY5LGTCI9OVBBDHCXT1W84X2", "dateTime": 1520962617463}, {"current_trial": 2, "trialdata": {"rt": [44771], "trial_type": "audio-test", "responses": ["ocean"], "internal_node_id": "0.0-2.0", "time_elapsed": 59752, "type": "AUDIO_TEST", "trial_index": 2}, "uniqueid": "MTK3696:3U5JL4WY5LGTCI9OVBBDHCXT1W84X2", "dateTime": 1520962662257}, {"current_trial": 3, "trialdata": {"rt": [5583], "trial_type": "audio-test", "responses": ["crystal"], "internal_node_id": "0.0-3.0", "time_elapsed": 65344, "type": "AUDIO_TEST", "trial_index": 3}, "uniqueid": "MTK3696:3U5JL4WY5LGTCI9OVBBDHCXT1W84X2", "dateTime": 1520962667849}, {"current_trial": 4, "trialdata": {"rt": [17456], "trial_type": "audio-test", "responses": ["spice"], "internal_node_id": "0.0-4.0", "time_elapsed": 82807, "type": "AUDIO_TEST", "trial_index": 4}, "uniqueid": "MTK3696:3U5JL4WY5LGTCI9OVBBDHCXT1W84X2", "dateTime": 1520962685313}, {"current_trial": 5, "trialdata": {"rt": 14138, "trial_type": "survey-text", "responses": "{\"Q0\":\"11:00\",\"Q1\":\"7:00\",\"Q2\":\"5\"}", "internal_node_id": "0.0-5.0", "time_elapsed": 97699, "type": "SLEEP_SURVEY", "trial_index": 5}, "uniqueid": "MTK3696:3U5JL4WY5LGTCI9OVBBDHCXT1W84X2", "dateTime": 1520962700205}, {"current_trial": 6, "trialdata": {"rt": 22360, "trial_type": "text", "internal_node_id": "0.0-6.0", "time_elapsed": 121066, "key_press": 32, "type": "INSTRUCTIONS", "trial_index": 6}, "uniqueid": "MTK3696:3U5JL4WY5LGTCI9OVBBDHCXT1W84X2", "dateTime": 1520962723571}, {"current_trial": 7, "trialdata": {"rt": 12161, "trial_type": "text", "internal_node_id": "0.0-7.0", "time_elapsed": 133730, "key_press": 32, "type": "INSTRUCTIONS", "trial_index": 7}, "uniqueid": "MTK3696:3U5JL4WY5LGTCI9OVBBDHCXT1W84X2", "dateTime": 1520962736235}, {"current_trial": 8, "trialdata": {"rt": 4641, "trial_type": "text", "internal_node_id": "0.0-8.0", "time_elapsed": 138873, "key_press": 32, "type": "INSTRUCTIONS", "trial_index": 8}, "uniqueid": "MTK3696:3U5JL4WY5LGTCI9OVBBDHCXT1W84X2", "dateTime": 1520962741378}, {"current_trial": 9, "trialdata": {"rt": [4944, 7192, 9272, 11416], "trial_type": "math-distractor", "key_times": [4001, 4104, 4944, 6632, 6704, 7192, 8712, 8816, 9272, 10792, 10856, 11416], "responses": ["20", "12", "18", "21"], "num2": [7, 7, 8, 9, 2], "num3": [5, 4, 5, 3, 5], "conditions": [18, 1200, "a", 18000], "internal_node_id": "0.0-9.0", "key_presses": [98, 96, 13, 97, 98, 13, 97, 104, 13, 98, 97, 13], "trial": 0, "time_elapsed": 157882, "type": "DISTRACTOR", "trial_index": 9, "num1": [8, 1, 5, 9, 2]}, "uniqueid": "MTK3696:3U5JL4WY5LGTCI9OVBBDHCXT1W84X2", "dateTime": 1520962760387}, {"current_trial": 10, "trialdata": {"rt": -1, "trial_type": "single-stim", "stimulus": "<p id=\"stim\">10</p>", "internal_node_id": "0.0-10.0-0.0", "time_elapsed": 160889, "key_press": -1, "trial_index": 10}, "uniqueid": "MTK3696:3U5JL4WY5LGTCI9OVBBDHCXT1W84X2", "dateTime": 1520962763394}, {"current_trial": 11, "trialdata": {"rt": -1, "trial_type": "single-stim", "stimulus": "<p id=\"stim\">9</p>", "internal_node_id": "0.0-10.0-1.0", "time_elapsed": 161891, "key_press": -1, "trial_index": 11}, "uniqueid": "MTK3696:3U5JL4WY5LGTCI9OVBBDHCXT1W84X2", "dateTime": 1520962764396}, {"current_trial": 12, "trialdata": {"rt": -1, "trial_type": "single-stim", "stimulus": "<p id=\"stim\">8</p>", "internal_node_id": "0.0-10.0-2.0", "time_elapsed": 162892, "key_press": -1, "trial_index": 12}, "uniqueid": "MTK3696:3U5JL4WY5LGTCI9OVBBDHCXT1W84X2", "dateTime": 1520962765397}, {"current_trial": 13, "trialdata": {"rt": -1, "trial_type": "single-stim", "stimulus": "<p id=\"stim\">7</p>", "internal_node_id": "0.0-10.0-3.0", "time_elapsed": 163894, "key_press": -1, "trial_index": 13}, "uniqueid": "MTK3696:3U5JL4WY5LGTCI9OVBBDHCXT1W84X2", "dateTime": 1520962766399}, {"current_trial": 14, "trialdata": {"rt": -1, "trial_type": "single-stim", "stimulus": "<p id=\"stim\">6</p>", "internal_node_id": "0.0-10.0-4.0", "time_elapsed": 164895, "key_press": -1, "trial_index": 14}, "uniqueid": "MTK3696:3U5JL4WY5LGTCI9OVBBDHCXT1W84X2", "dateTime": 1520962767400}, {"current_trial": 15, "trialdata": {"rt": -1, "trial_type": "single-stim", "stimulus": "<p id=\"stim\">5</p>", "internal_node_id": "0.0-10.0-5.0", "time_elapsed": 165896, "key_press": -1, "trial_index": 15}, "uniqueid": "MTK3696:3U5JL4WY5LGTCI9OVBBDHCXT1W84X2", "dateTime": 1520962768401}, {"current_trial": 16, "trialdata": {"rt": -1, "trial_type": "single-stim", "stimulus": "<p id=\"stim\">4</p>", "internal_node_id": "0.0-10.0-6.0", "time_elapsed": 166897, "key_press": -1, "trial_index": 16}, "uniqueid": "MTK3696:3U5JL4WY5LGTCI9OVBBDHCXT1W84X2", "dateTime": 1520962769403}, {"current_trial": 17, "trialdata": {"rt": -1, "trial_type": "single-stim", "stimulus": "<p id=\"stim\">3</p>", "internal_node_id": "0.0-10.0-7.0", "time_elapsed": 167898, "key_press": -1, "trial_index": 17}, "uniqueid": "MTK3696:3U5JL4WY5LGTCI9OVBBDHCXT1W84X2", "dateTime": 1520962770403}, {"current_trial": 18, "trialdata": {"rt": -1, "trial_type": "single-stim", "stimulus": "<p id=\"stim\">2</p>", "internal_node_id": "0.0-10.0-8.0", "time_elapsed": 168900, "key_press": -1, "trial_index": 18}, "uniqueid": "MTK3696:3U5JL4WY5LGTCI9OVBBDHCXT1W84X2", "dateTime": 1520962771405}, {"current_trial": 19, "trialdata": {"rt": -1, "trial_type": "single-stim", "stimulus": "<p id=\"stim\">1</p>", "internal_node_id": "0.0-10.0-9.0", "time_elapsed": 169901, "key_press": -1, "trial_index": 19}, "uniqueid": "MTK3696:3U5JL4WY5LGTCI9OVBBDHCXT1W84X2", "dateTime": 1520962772407}, {"current_trial": 20, "trialdata": {"rt": -1, "trial_type": "single-stim", "stimulus": "<p id=\"stim\">+</p>", "internal_node_id": "0.0-11.0-0.0", "time_elapsed": 171403, "key_press": -1, "type": "FIXATION", "trial_index": 20}, "uniqueid": "MTK3696:3U5JL4WY5LGTCI9OVBBDHCXT1W84X2", "dateTime": 1520962773908}, {"current_trial": 21, "trialdata": {"rt": -1000, "trial_type": "single-audio", "word": "pilot", "stimulus": "/static/audio/wordpool/PILOT.wav", "conditions": [18, 1200, "a", 18000], "internal_node_id": "0.0-12.0", "trial": 0, "time_elapsed": 173480, "serialpos": 0, "key_press": -1, "wordID": 1069, "type": "PRES_AUD", "trial_index": 21}, "uniqueid": "MTK3696:3U5JL4WY5LGTCI9OVBBDHCXT1W84X2", "dateTime": 1520962775985}, {"current_trial": 22, "trialdata": {"rt": -1000, "trial_type": "single-audio", "word": "penguin", "stimulus": "/static/audio/wordpool/PENGUIN.wav", "conditions": [18, 1200, "a", 18000], "internal_node_id": "0.0-13.0", "trial": 0, "time_elapsed": 175502, "serialpos": 1, "key_press": -1, "wordID": 1043, "type": "PRES_AUD", "trial_index": 22}, "uniqueid": "MTK3696:3U5JL4WY5LGTCI9OVBBDHCXT1W84X2", "dateTime": 1520962778007}, {"current_trial": 23, "trialdata": {"rt": -1000, "trial_type": "single-audio", "word": "blueprint", "stimulus": "/static/audio/wordpool/BLUEPRINT.wav", "conditions": [18, 1200, "a", 18000], "internal_node_id": "0.0-14.0", "trial": 0, "time_elapsed": 177826, "serialpos": 2, "key_press": -1, "wordID": 141, "type": "PRES_AUD", "trial_index": 23}, "uniqueid": "MTK3696:3U5JL4WY5LGTCI9OVBBDHCXT1W84X2", "dateTime": 1520962780331}, {"current_trial": 24, "trialdata": {"rt": -1000, "trial_type": "single-audio", "word": "harp", "stimulus": "/static/audio/wordpool/HARP.wav", "conditions": [18, 1200, "a", 18000], "internal_node_id": "0.0-15.0", "trial": 0, "time_elapsed": 180163, "serialpos": 3, "key_press": -1, "wordID": 688, "type": "PRES_AUD", "trial_index": 24}, "uniqueid": "MTK3696:3U5JL4WY5LGTCI9OVBBDHCXT1W84X2", "dateTime": 1520962782668}, {"current_trial": 25, "trialdata": {"rt": -1000, "trial_type": "single-audio", "word": "neutron", "stimulus": "/static/audio/wordpool/NEUTRON.wav", "conditions": [18, 1200, "a", 18000], "internal_node_id": "0.0-16.0", "trial": 0, "time_elapsed": 182427, "serialpos": 4, "key_press": -1, "wordID": 946, "type": "PRES_AUD", "trial_index": 25}, "uniqueid": "MTK3696:3U5JL4WY5LGTCI9OVBBDHCXT1W84X2", "dateTime": 1520962784932}, {"current_trial": 26, "trialdata": {"rt": -1000, "trial_type": "single-audio", "word": "perch", "stimulus": "/static/audio/wordpool/PERCH.wav", "conditions": [18, 1200, "a", 18000], "internal_node_id": "0.0-17.0", "trial": 0, "time_elapsed": 184782, "serialpos": 5, "key_press": -1, "wordID": 1047, "type": "PRES_AUD", "trial_index": 26}, "uniqueid": "MTK3696:3U5JL4WY5LGTCI9OVBBDHCXT1W84X2", "dateTime": 1520962787287}, {"current_trial": 27, "trialdata": {"rt": -1000, "trial_type": "single-audio", "word": "sunset", "stimulus": "/static/audio/wordpool/SUNSET.wav", "conditions": [18, 1200, "a", 18000], "internal_node_id": "0.0-18.0", "trial": 0, "time_elapsed": 186860, "serialpos": 6, "key_press": -1, "wordID": 1407, "type": "PRES_AUD", "trial_index": 27}, "uniqueid": "MTK3696:3U5JL4WY5LGTCI9OVBBDHCXT1W84X2", "dateTime": 1520962789365}, {"current_trial": 28, "trialdata": {"rt": -1000, "trial_type": "single-audio", "word": "grave", "stimulus": "/static/audio/wordpool/GRAVE.wav", "conditions": [18, 1200, "a", 18000], "internal_node_id": "0.0-19.0", "trial": 0, "time_elapsed": 189133, "serialpos": 7, "key_press": -1, "wordID": 657, "type": "PRES_AUD", "trial_index": 28}, "uniqueid": "MTK3696:3U5JL4WY5LGTCI9OVBBDHCXT1W84X2", "dateTime": 1520962791638}, {"current_trial": 29, "trialdata": {"rt": -1000, "trial_type": "single-audio", "word": "champagne", "stimulus": "/static/audio/wordpool/CHAMPAGNE.wav", "conditions": [18, 1200, "a", 18000], "internal_node_id": "0.0-20.0", "trial": 0, "time_elapsed": 191478, "serialpos": 8, "key_press": -1, "wordID": 277, "type": "PRES_AUD", "trial_index": 29}, "uniqueid": "MTK3696:3U5JL4WY5LGTCI9OVBBDHCXT1W84X2", "dateTime": 1520962793984}, {"current_trial": 30, "trialdata": {"rt": -1000, "trial_type": "single-audio", "word": "crutch", "stimulus": "/static/audio/wordpool/CRUTCH.wav", "conditions": [18, 1200, "a", 18000], "internal_node_id": "0.0-21.0", "trial": 0, "time_elapsed": 193562, "serialpos": 9, "key_press": -1, "wordID": 416, "type": "PRES_AUD", "trial_index": 30}, "uniqueid": "MTK3696:3U5JL4WY5LGTCI9OVBBDHCXT1W84X2", "dateTime": 1520962796068}, {"current_trial": 31, "trialdata": {"rt": -1000, "trial_type": "single-audio", "word": "guitar", "stimulus": "/static/audio/wordpool/GUITAR.wav", "conditions": [18, 1200, "a", 18000], "internal_node_id": "0.0-22.0", "trial": 0, "time_elapsed": 195580, "serialpos": 10, "key_press": -1, "wordID": 669, "type": "PRES_AUD", "trial_index": 31}, "uniqueid": "MTK3696:3U5JL4WY5LGTCI9OVBBDHCXT1W84X2", "dateTime": 1520962798085}, {"current_trial": 32, "trialdata": {"rt": -1000, "trial_type": "single-audio", "word": "girl", "stimulus": "/static/audio/wordpool/GIRL.wav", "conditions": [18, 1200, "a", 18000], "internal_node_id": "0.0-23.0", "trial": 0, "time_elapsed": 197791, "serialpos": 11, "key_press": -1, "wordID": 636, "type": "PRES_AUD", "trial_index": 32}, "uniqueid": "MTK3696:3U5JL4WY5LGTCI9OVBBDHCXT1W84X2", "dateTime": 1520962800296}, {"current_trial": 33, "trialdata": {"rt": -1000, "trial_type": "single-audio", "word": "wrench", "stimulus": "/static/audio/wordpool/WRENCH.wav", "conditions": [18, 1200, "a", 18000], "internal_node_id": "0.0-24.0", "trial": 0, "time_elapsed": 199898, "serialpos": 12, "key_press": -1, "wordID": 1624, "type": "PRES_AUD", "trial_index": 33}, "uniqueid": "MTK3696:3U5JL4WY5LGTCI9OVBBDHCXT1W84X2", "dateTime": 1520962802404}, {"current_trial": 34, "trialdata": {"rt": -1000, "trial_type": "single-audio", "word": "woman", "stimulus": "/static/audio/wordpool/WOMAN.wav", "conditions": [18, 1200, "a", 18000], "internal_node_id": "0.0-25.0", "trial": 0, "time_elapsed": 202067, "serialpos": 13, "key_press": -1, "wordID": 1619, "type": "PRES_AUD", "trial_index": 34}, "uniqueid": "MTK3696:3U5JL4WY5LGTCI9OVBBDHCXT1W84X2", "dateTime": 1520962804572}, {"current_trial": 35, "trialdata": {"rt": -1000, "trial_type": "single-audio", "word": "patrol", "stimulus": "/static/audio/wordpool/PATROL.wav", "conditions": [18, 1200, "a", 18000], "internal_node_id": "0.0-26.0", "trial": 0, "time_elapsed": 204286, "serialpos": 14, "key_press": -1, "wordID": 1026, "type": "PRES_AUD", "trial_index": 35}, "uniqueid": "MTK3696:3U5JL4WY5LGTCI9OVBBDHCXT1W84X2", "dateTime": 1520962806791}, {"current_trial": 36, "trialdata": {"rt": -1000, "trial_type": "single-audio", "word": "beef", "stimulus": "/static/audio/wordpool/BEEF.wav", "conditions": [18, 1200, "a", 18000], "internal_node_id": "0.0-27.0", "trial": 0, "time_elapsed": 206288, "serialpos": 15, "key_press": -1, "wordID": 112, "type": "PRES_AUD", "trial_index": 36}, "uniqueid": "MTK3696:3U5JL4WY5LGTCI9OVBBDHCXT1W84X2", "dateTime": 1520962808793}, {"current_trial": 37, "trialdata": {"rt": -1000, "trial_type": "single-audio", "word": "trench", "stimulus": "/static/audio/wordpool/TRENCH.wav", "conditions": [18, 1200, "a", 18000], "internal_node_id": "0.0-28.0", "trial": 0, "time_elapsed": 208604, "serialpos": 16, "key_press": -1, "wordID": 1502, "type": "PRES_AUD", "trial_index": 37}, "uniqueid": "MTK3696:3U5JL4WY5LGTCI9OVBBDHCXT1W84X2", "dateTime": 1520962811109}, {"current_trial": 38, "trialdata": {"rt": -1000, "trial_type": "single-audio", "word": "dresser", "stimulus": "/static/audio/wordpool/DRESSER.wav", "conditions": [18, 1200, "a", 18000], "internal_node_id": "0.0-29.0", "trial": 0, "time_elapsed": 210961, "serialpos": 17, "key_press": -1, "wordID": 495, "type": "PRES_AUD", "trial_index": 38}, "uniqueid": "MTK3696:3U5JL4WY5LGTCI9OVBBDHCXT1W84X2", "dateTime": 1520962813466}, {"current_trial": 39, "trialdata": {"rt": -1, "trial_type": "single-stim", "stimulus": "", "internal_node_id": "0.0-30.0-0.0", "time_elapsed": 212241, "key_press": -1, "type": "PRE_RECALL_DELAY", "trial_index": 39}, "uniqueid": "MTK3696:3U5JL4WY5LGTCI9OVBBDHCXT1W84X2", "dateTime": 1520962814747}, {"current_trial": 40, "trialdata": {"rt": -1000, "trial_type": "single-audio", "stimulus": "/static/audio/400Hz.wav", "internal_node_id": "0.0-31.0", "time_elapsed": 212743, "key_press": -1, "type": "PRE_RECALL_ALERT", "trial_index": 40}, "uniqueid": "MTK3696:3U5JL4WY5LGTCI9OVBBDHCXT1W84X2", "dateTime": 1520962815248}, {"current_trial": 41, "trialdata": {"rt": [52684, 57092, 58284], "recwords": ["25", "50", "4"], "key_times": [52124, 52292, 52684, 56620, 56740, 57092, 57780, 58284], "trial_type": "free-recall", "conditions": [18, 1200, "a", 18000], "internal_node_id": "0.0-32.0-0.0", "key_presses": [98, 101, 13, 101, 96, 13, 100, 13], "trial": 0, "time_elapsed": 272753, "type": "FREE_RECALL", "trial_index": 41}, "uniqueid": "MTK3696:3U5JL4WY5LGTCI9OVBBDHCXT1W84X2", "dateTime": 1520962875261}, {"current_trial": 42, "trialdata": {"rt": 6973, "trial_type": "text", "internal_node_id": "0.0-33.0", "time_elapsed": 281730, "key_press": 32, "type": "INSTRUCTIONS", "trial_index": 42}, "uniqueid": "MTK3696:3U5JL4WY5LGTCI9OVBBDHCXT1W84X2", "dateTime": 1520962884235}, {"current_trial": 43, "trialdata": {"rt": [2571, 6883, 8619, 11075, 12715, 15267, 17611], "trial_type": "math-distractor", "key_times": [2115, 2243, 2571, 5955, 6883, 8052, 8171, 8619, 10619, 10715, 11075, 12363, 12715, 14899, 15267, 16955, 17075, 17611], "responses": ["11", "6", "11", "15", "8", "7", "23"], "num2": [6, 1, 9, 3, 1, 2, 9, 4], "num3": [1, 2, 1, 4, 6, 4, 7, 7], "conditions": [18, 1200, "a", 18000], "internal_node_id": "0.0-34.0", "key_presses": [97, 97, 13, 102, 13, 97, 97, 13, 97, 101, 13, 104, 13, 103, 13, 98, 99, 13], "trial": 1, "time_elapsed": 301735, "type": "DISTRACTOR", "trial_index": 43, "num1": [4, 3, 1, 8, 1, 1, 7, 9]}, "uniqueid": "MTK3696:3U5JL4WY5LGTCI9OVBBDHCXT1W84X2", "dateTime": 1520962904240}, {"current_trial": 44, "trialdata": {"rt": -1, "trial_type": "single-stim", "stimulus": "<p id=\"stim\">10</p>", "internal_node_id": "0.0-35.0-0.0", "time_elapsed": 304738, "key_press": -1, "trial_index": 44}, "uniqueid": "MTK3696:3U5JL4WY5LGTCI9OVBBDHCXT1W84X2", "dateTime": 1520962907243}, {"current_trial": 45, "trialdata": {"rt": -1, "trial_type": "single-stim", "stimulus": "<p id=\"stim\">9</p>", "internal_node_id": "0.0-35.0-1.0", "time_elapsed": 305740, "key_press": -1, "trial_index": 45}, "uniqueid": "MTK3696:3U5JL4WY5LGTCI9OVBBDHCXT1W84X2", "dateTime": 1520962908245}, {"current_trial": 46, "trialdata": {"rt": -1, "trial_type": "single-stim", "stimulus": "<p id=\"stim\">8</p>", "internal_node_id": "0.0-35.0-2.0", "time_elapsed": 306742, "key_press": -1, "trial_index": 46}, "uniqueid": "MTK3696:3U5JL4WY5LGTCI9OVBBDHCXT1W84X2", "dateTime": 1520962909247}, {"current_trial": 47, "trialdata": {"rt": -1, "trial_type": "single-stim", "stimulus": "<p id=\"stim\">7</p>", "internal_node_id": "0.0-35.0-3.0", "time_elapsed": 307744, "key_press": -1, "trial_index": 47}, "uniqueid": "MTK3696:3U5JL4WY5LGTCI9OVBBDHCXT1W84X2", "dateTime": 1520962910249}, {"current_trial": 48, "trialdata": {"rt": -1, "trial_type": "single-stim", "stimulus": "<p id=\"stim\">6</p>", "internal_node_id": "0.0-35.0-4.0", "time_elapsed": 308746, "key_press": -1, "trial_index": 48}, "uniqueid": "MTK3696:3U5JL4WY5LGTCI9OVBBDHCXT1W84X2", "dateTime": 1520962911251}, {"current_trial": 49, "trialdata": {"rt": -1, "trial_type": "single-stim", "stimulus": "<p id=\"stim\">5</p>", "internal_node_id": "0.0-35.0-5.0", "time_elapsed": 309748, "key_press": -1, "trial_index": 49}, "uniqueid": "MTK3696:3U5JL4WY5LGTCI9OVBBDHCXT1W84X2", "dateTime": 1520962912253}, {"current_trial": 50, "trialdata": {"rt": -1, "trial_type": "single-stim", "stimulus": "<p id=\"stim\">4</p>", "internal_node_id": "0.0-35.0-6.0", "time_elapsed": 310750, "key_press": -1, "trial_index": 50}, "uniqueid": "MTK3696:3U5JL4WY5LGTCI9OVBBDHCXT1W84X2", "dateTime": 1520962913255}, {"current_trial": 51, "trialdata": {"rt": -1, "trial_type": "single-stim", "stimulus": "<p id=\"stim\">3</p>", "internal_node_id": "0.0-35.0-7.0", "time_elapsed": 311752, "key_press": -1, "trial_index": 51}, "uniqueid": "MTK3696:3U5JL4WY5LGTCI9OVBBDHCXT1W84X2", "dateTime": 1520962914257}, {"current_trial": 52, "trialdata": {"rt": -1, "trial_type": "single-stim", "stimulus": "<p id=\"stim\">2</p>", "internal_node_id": "0.0-35.0-8.0", "time_elapsed": 312754, "key_press": -1, "trial_index": 52}, "uniqueid": "MTK3696:3U5JL4WY5LGTCI9OVBBDHCXT1W84X2", "dateTime": 1520962915259}, {"current_trial": 53, "trialdata": {"rt": -1, "trial_type": "single-stim", "stimulus": "<p id=\"stim\">1</p>", "internal_node_id": "0.0-35.0-9.0", "time_elapsed": 313756, "key_press": -1, "trial_index": 53}, "uniqueid": "MTK3696:3U5JL4WY5LGTCI9OVBBDHCXT1W84X2", "dateTime": 1520962916261}, {"current_trial": 54, "trialdata": {"rt": -1, "trial_type": "single-stim", "stimulus": "<p id=\"stim\">+</p>", "internal_node_id": "0.0-36.0-0.0", "time_elapsed": 315258, "key_press": -1, "type": "FIXATION", "trial_index": 54}, "uniqueid": "MTK3696:3U5JL4WY5LGTCI9OVBBDHCXT1W84X2", "dateTime": 1520962917763}, {"current_trial": 55, "trialdata": {"rt": -1000, "trial_type": "single-audio", "word": "tunnel", "stimulus": "/static/audio/wordpool/TUNNEL.wav", "conditions": [18, 1200, "a", 18000], "internal_node_id": "0.0-37.0", "trial": 1, "time_elapsed": 317594, "serialpos": 0, "key_press": -1, "wordID": 1518, "type": "PRES_AUD", "trial_index": 55}, "uniqueid": "MTK3696:3U5JL4WY5LGTCI9OVBBDHCXT1W84X2", "dateTime": 1520962920100}, {"current_trial": 56, "trialdata": {"rt": -1000, "trial_type": "single-audio", "word": "judge", "stimulus": "/static/audio/wordpool/JUDGE.wav", "conditions": [18, 1200, "a", 18000], "internal_node_id": "0.0-38.0", "trial": 1, "time_elapsed": 319865, "serialpos": 1, "key_press": -1, "wordID": 760, "type": "PRES_AUD", "trial_index": 56}, "uniqueid": "MTK3696:3U5JL4WY5LGTCI9OVBBDHCXT1W84X2", "dateTime": 1520962922370}, {"current_trial": 57, "trialdata": {"rt": -1000, "trial_type": "single-audio", "word": "hound", "stimulus": "/static/audio/wordpool/HOUND.wav", "conditions": [18, 1200, "a", 18000], "internal_node_id": "0.0-39.0", "trial": 1, "time_elapsed": 321973, "serialpos": 2, "key_press": -1, "wordID": 723, "type": "PRES_AUD", "trial_index": 57}, "uniqueid": "MTK3696:3U5JL4WY5LGTCI9OVBBDHCXT1W84X2", "dateTime": 1520962924478}, {"current_trial": 58, "trialdata": {"rt": -1000, "trial_type": "single-audio", "word": "shorts", "stimulus": "/static/audio/wordpool/SHORTS.wav", "conditions": [18, 1200, "a", 18000], "internal_node_id": "0.0-40.0", "trial": 1, "time_elapsed": 324302, "serialpos": 3, "key_press": -1, "wordID": 1292, "type": "PRES_AUD", "trial_index": 58}, "uniqueid": "MTK3696:3U5JL4WY5LGTCI9OVBBDHCXT1W84X2", "dateTime": 1520962926807}, {"current_trial": 59, "trialdata": {"rt": -1000, "trial_type": "single-audio", "word": "hawk", "stimulus": "/static/audio/wordpool/HAWK.wav", "conditions": [18, 1200, "a", 18000], "internal_node_id": "0.0-41.0", "trial": 1, "time_elapsed": 326358, "serialpos": 4, "key_press": -1, "wordID": 691, "type": "PRES_AUD", "trial_index": 59}, "uniqueid": "MTK3696:3U5JL4WY5LGTCI9OVBBDHCXT1W84X2", "dateTime": 1520962928863}, {"current_trial": 60, "trialdata": {"rt": -1000, "trial_type": "single-audio", "word": "ulcer", "stimulus": "/static/audio/wordpool/ULCER.wav", "conditions": [18, 1200, "a", 18000], "internal_node_id": "0.0-42.0", "trial": 1, "time_elapsed": 328386, "serialpos": 5, "key_press": -1, "wordID": 1532, "type": "PRES_AUD", "trial_index": 60}, "uniqueid": "MTK3696:3U5JL4WY5LGTCI9OVBBDHCXT1W84X2", "dateTime": 1520962930892}, {"current_trial": 61, "trialdata": {"rt": -1000, "trial_type": "single-audio", "word": "forehead", "stimulus": "/static/audio/wordpool/FOREHEAD.wav", "conditions": [18, 1200, "a", 18000], "internal_node_id": "0.0-43.0", "trial": 1, "time_elapsed": 330696, "serialpos": 6, "key_press": -1, "wordID": 591, "type": "PRES_AUD", "trial_index": 61}, "uniqueid": "MTK3696:3U5JL4WY5LGTCI9OVBBDHCXT1W84X2", "dateTime": 1520962933202}, {"current_trial": 62, "trialdata": {"rt": -1000, "trial_type": "single-audio", "word": "world", "stimulus": "/static/audio/wordpool/WORLD.wav", "conditions": [18, 1200, "a", 18000], "internal_node_id": "0.0-44.0", "trial": 1, "time_elapsed": 332959, "serialpos": 7, "key_press": -1, "wordID": 1621, "type": "PRES_AUD", "trial_index": 62}, "uniqueid": "MTK3696:3U5JL4WY5LGTCI9OVBBDHCXT1W84X2", "dateTime": 1520962935464}, {"current_trial": 63, "trialdata": {"rt": -1000, "trial_type": "single-audio", "word": "necklace", "stimulus": "/static/audio/wordpool/NECKLACE.wav", "conditions": [18, 1200, "a", 18000], "internal_node_id": "0.0-45.0", "trial": 1, "time_elapsed": 335129, "serialpos": 8, "key_press": -1, "wordID": 939, "type": "PRES_AUD", "trial_index": 63}, "uniqueid": "MTK3696:3U5JL4WY5LGTCI9OVBBDHCXT1W84X2", "dateTime": 1520962937634}, {"current_trial": 64, "trialdata": {"rt": -1000, "trial_type": "single-audio", "word": "tweezers", "stimulus": "/static/audio/wordpool/TWEEZERS.wav", "conditions": [18, 1200, "a", 18000], "internal_node_id": "0.0-46.0", "trial": 1, "time_elapsed": 337270, "serialpos": 9, "key_press": -1, "wordID": 1525, "type": "PRES_AUD", "trial_index": 64}, "uniqueid": "MTK3696:3U5JL4WY5LGTCI9OVBBDHCXT1W84X2", "dateTime": 1520962939775}, {"current_trial": 65, "trialdata": {"rt": -1000, "trial_type": "single-audio", "word": "iceberg", "stimulus": "/static/audio/wordpool/ICEBERG.wav", "conditions": [18, 1200, "a", 18000], "internal_node_id": "0.0-47.0", "trial": 1, "time_elapsed": 339393, "serialpos": 10, "key_press": -1, "wordID": 730, "type": "PRES_AUD", "trial_index": 65}, "uniqueid": "MTK3696:3U5JL4WY5LGTCI9OVBBDHCXT1W84X2", "dateTime": 1520962941898}, {"current_trial": 66, "trialdata": {"rt": -1000, "trial_type": "single-audio", "word": "primate", "stimulus": "/static/audio/wordpool/PRIMATE.wav", "conditions": [18, 1200, "a", 18000], "internal_node_id": "0.0-48.0", "trial": 1, "time_elapsed": 341483, "serialpos": 11, "key_press": -1, "wordID": 1122, "type": "PRES_AUD", "trial_index": 66}, "uniqueid": "MTK3696:3U5JL4WY5LGTCI9OVBBDHCXT1W84X2", "dateTime": 1520962943988}, {"current_trial": 67, "trialdata": {"rt": -1000, "trial_type": "single-audio", "word": "lunch", "stimulus": "/static/audio/wordpool/LUNCH.wav", "conditions": [18, 1200, "a", 18000], "internal_node_id": "0.0-49.0", "trial": 1, "time_elapsed": 343513, "serialpos": 12, "key_press": -1, "wordID": 848, "type": "PRES_AUD", "trial_index": 67}, "uniqueid": "MTK3696:3U5JL4WY5LGTCI9OVBBDHCXT1W84X2", "dateTime": 1520962946018}, {"current_trial": 68, "trialdata": {"rt": -1000, "trial_type": "single-audio", "word": "lumber", "stimulus": "/static/audio/wordpool/LUMBER.wav", "conditions": [18, 1200, "a", 18000], "internal_node_id": "0.0-50.0", "trial": 1, "time_elapsed": 345902, "serialpos": 13, "key_press": -1, "wordID": 847, "type": "PRES_AUD", "trial_index": 68}, "uniqueid": "MTK3696:3U5JL4WY5LGTCI9OVBBDHCXT1W84X2", "dateTime": 1520962948409}, {"current_trial": 69, "trialdata": {"rt": -1000, "trial_type": "single-audio", "word": "cobra", "stimulus": "/static/audio/wordpool/COBRA.wav", "conditions": [18, 1200, "a", 18000], "internal_node_id": "0.0-51.0", "trial": 1, "time_elapsed": 348160, "serialpos": 14, "key_press": -1, "wordID": 335, "type": "PRES_AUD", "trial_index": 69}, "uniqueid": "MTK3696:3U5JL4WY5LGTCI9OVBBDHCXT1W84X2", "dateTime": 1520962950666}, {"current_trial": 70, "trialdata": {"rt": -1000, "trial_type": "single-audio", "word": "curtain", "stimulus": "/static/audio/wordpool/CURTAIN.wav", "conditions": [18, 1200, "a", 18000], "internal_node_id": "0.0-52.0", "trial": 1, "time_elapsed": 350310, "serialpos": 15, "key_press": -1, "wordID": 426, "type": "PRES_AUD", "trial_index": 70}, "uniqueid": "MTK3696:3U5JL4WY5LGTCI9OVBBDHCXT1W84X2", "dateTime": 1520962952815}, {"current_trial": 71, "trialdata": {"rt": -1000, "trial_type": "single-audio", "word": "fruit", "stimulus": "/static/audio/wordpool/FRUIT.wav", "conditions": [18, 1200, "a", 18000], "internal_node_id": "0.0-53.0", "trial": 1, "time_elapsed": 352515, "serialpos": 16, "key_press": -1, "wordID": 609, "type": "PRES_AUD", "trial_index": 71}, "uniqueid": "MTK3696:3U5JL4WY5LGTCI9OVBBDHCXT1W84X2", "dateTime": 1520962955020}, {"current_trial": 72, "trialdata": {"rt": -1000, "trial_type": "single-audio", "word": "marker", "stimulus": "/static/audio/wordpool/MARKER.wav", "conditions": [18, 1200, "a", 18000], "internal_node_id": "0.0-54.0", "trial": 1, "time_elapsed": 354763, "serialpos": 17, "key_press": -1, "wordID": 869, "type": "PRES_AUD", "trial_index": 72}, "uniqueid": "MTK3696:3U5JL4WY5LGTCI9OVBBDHCXT1W84X2", "dateTime": 1520962957268}, {"current_trial": 73, "trialdata": {"rt": -1, "trial_type": "single-stim", "stimulus": "", "internal_node_id": "0.0-55.0-0.0", "time_elapsed": 356007, "key_press": -1, "type": "PRE_RECALL_DELAY", "trial_index": 73}, "uniqueid": "MTK3696:3U5JL4WY5LGTCI9OVBBDHCXT1W84X2", "dateTime": 1520962958512}, {"current_trial": 74, "trialdata": {"rt": -1000, "trial_type": "single-audio", "stimulus": "/static/audio/400Hz.wav", "internal_node_id": "0.0-56.0", "time_elapsed": 356509, "key_press": -1, "type": "PRE_RECALL_ALERT", "trial_index": 74}, "uniqueid": "MTK3696:3U5JL4WY5LGTCI9OVBBDHCXT1W84X2", "dateTime": 1520962959014}], "currenttrial": 75, "condition": 1, "mode": "live"}