{"assignmentId": "3A4TN5196LPZLWMOJMZ9XOLN4KSCHH", "workerId": "MTK3126", "questiondata": {"avail_screen_height": 1456, "color_depth": 24, "screen_width": 2732, "pixel_depth": 24, "avail_screen_width": 2732, "screen_height": 1536}, "bonus": 0, "hitId": "3VMV5CHJZ8M0KXVUV07FCED6TFMGTZ", "counterbalance": 2546, "useragent": "Mozilla/5.0 (Windows NT 10.0; rv:58.0) Gecko/20100101 Firefox/58.0", "eventdata": [{"eventtype": "initialized", "interval": 0, "value": null, "timestamp": 1520028422922}, {"eventtype": "window_resize", "interval": 1, "value": [2732, 1336], "timestamp": 1520028422923}, {"eventtype": "window_resize", "interval": 14163, "value": [2732, 1462], "timestamp": 1520028437086}, {"eventtype": "window_resize", "interval": 3610, "value": [2732, 1336], "timestamp": 1520028440696}, {"eventtype": "focus", "interval": 63921, "value": "off", "timestamp": 1520028504617}, {"eventtype": "focus", "interval": 2, "value": "on", "timestamp": 1520028504619}, {"eventtype": "focus", "interval": 12670, "value": "off", "timestamp": 1520028517289}, {"eventtype": "focus", "interval": 0, "value": "on", "timestamp": 1520028517289}, {"eventtype": "focus", "interval": 10959, "value": "off", "timestamp": 1520028528248}, {"eventtype": "focus", "interval": 2, "value": "on", "timestamp": 1520028528250}, {"eventtype": "focus", "interval": 9977, "value": "off", "timestamp": 1520028538227}, {"eventtype": "focus", "interval": 6461, "value": "on", "timestamp": 1520028544688}, {"eventtype": "focus", "interval": 33216, "value": "off", "timestamp": 1520028577904}, {"eventtype": "focus", "interval": 2, "value": "on", "timestamp": 1520028577906}, {"eventtype": "window_resize", "interval": 30580, "value": [2049, 1002], "timestamp": 1520028608486}, {"eventtype": "window_resize", "interval": 232, "value": [1708, 835], "timestamp": 1520028608718}, {"eventtype": "focus", "interval": 100709, "value": "off", "timestamp": 1520028709427}, {"eventtype": "focus", "interval": 40776, "value": "on", "timestamp": 1520028750203}, {"eventtype": "focus", "interval": 712105, "value": "off", "timestamp": 1520029462308}, {"eventtype": "focus", "interval": 4211, "value": "on", "timestamp": 1520029466519}, {"eventtype": "focus", "interval": 410, "value": "off", "timestamp": 1520029466929}, {"eventtype": "focus", "interval": 1817, "value": "on", "timestamp": 1520029468746}], "data": [{"current_trial": 0, "trialdata": {"rt": 2565, "trial_type": "text", "internal_node_id": "0.0-0.0", "time_elapsed": 2570, "key_press": 32, "type": "INSTRUCTIONS", "trial_index": 0}, "uniqueid": "MTK3126:3A4TN5196LPZLWMOJMZ9XOLN4KSCHH", "dateTime": 1520028444120}, {"current_trial": 1, "trialdata": {"rt": 19801, "trial_type": "text", "internal_node_id": "0.0-1.0", "time_elapsed": 22377, "key_press": 32, "type": "INSTRUCTIONS", "trial_index": 1}, "uniqueid": "MTK3126:3A4TN5196LPZLWMOJMZ9XOLN4KSCHH", "dateTime": 1520028463927}, {"current_trial": 2, "trialdata": {"rt": [11698], "trial_type": "audio-test", "responses": ["ocean"], "internal_node_id": "0.0-2.0", "time_elapsed": 34161, "type": "AUDIO_TEST", "trial_index": 2}, "uniqueid": "MTK3126:3A4TN5196LPZLWMOJMZ9XOLN4KSCHH", "dateTime": 1520028475710}, {"current_trial": 3, "trialdata": {"rt": [26637, 39470, 50222, 94629, 117453], "trial_type": "audio-test", "responses": ["cristo", "christo", "kristoff", "christoff", "crystal"], "internal_node_id": "0.0-3.0", "time_elapsed": 151633, "type": "AUDIO_TEST", "trial_index": 3}, "uniqueid": "MTK3126:3A4TN5196LPZLWMOJMZ9XOLN4KSCHH", "dateTime": 1520028593182}, {"current_trial": 4, "trialdata": {"rt": [9259], "trial_type": "audio-test", "responses": ["spice"], "internal_node_id": "0.0-4.0", "time_elapsed": 160912, "type": "AUDIO_TEST", "trial_index": 4}, "uniqueid": "MTK3126:3A4TN5196LPZLWMOJMZ9XOLN4KSCHH", "dateTime": 1520028602461}, {"current_trial": 5, "trialdata": {"rt": 25221, "trial_type": "survey-text", "responses": "{\"Q0\":\"11pm\",\"Q1\":\"7am\",\"Q2\":\"3\"}", "internal_node_id": "0.0-5.0", "time_elapsed": 186905, "type": "SLEEP_SURVEY", "trial_index": 5}, "uniqueid": "MTK3126:3A4TN5196LPZLWMOJMZ9XOLN4KSCHH", "dateTime": 1520028628454}, {"current_trial": 6, "trialdata": {"rt": 32401, "trial_type": "text", "internal_node_id": "0.0-6.0", "time_elapsed": 220312, "key_press": 32, "type": "INSTRUCTIONS", "trial_index": 6}, "uniqueid": "MTK3126:3A4TN5196LPZLWMOJMZ9XOLN4KSCHH", "dateTime": 1520028661861}, {"current_trial": 7, "trialdata": {"rt": 6212, "trial_type": "text", "internal_node_id": "0.0-7.0", "time_elapsed": 227038, "key_press": 32, "type": "INSTRUCTIONS", "trial_index": 7}, "uniqueid": "MTK3126:3A4TN5196LPZLWMOJMZ9XOLN4KSCHH", "dateTime": 1520028668588}, {"current_trial": 8, "trialdata": {"rt": 4425, "trial_type": "text", "internal_node_id": "0.0-8.0", "time_elapsed": 231982, "key_press": 32, "type": "INSTRUCTIONS", "trial_index": 8}, "uniqueid": "MTK3126:3A4TN5196LPZLWMOJMZ9XOLN4KSCHH", "dateTime": 1520028673532}, {"current_trial": 9, "trialdata": {"rt": [4777, 7689, 9889, 16089], "trial_type": "math-distractor", "key_times": [3075, 3339, 4777, 6683, 7011, 7689, 9091, 9324, 9889, 15443, 15675, 16089, 17515, 17858], "responses": ["21", "18", "15", "22"], "num2": [8, 9, 7, 5, 2], "num3": [9, 6, 7, 8, 6], "conditions": [18, 1200, "a", 18000], "internal_node_id": "0.0-9.0", "key_presses": [98, 97, 13, 97, 104, 13, 97, 101, 13, 98, 98, 13, 97, 102], "trial": 0, "time_elapsed": 251009, "type": "DISTRACTOR", "trial_index": 9, "num1": [4, 3, 1, 9, 8]}, "uniqueid": "MTK3126:3A4TN5196LPZLWMOJMZ9XOLN4KSCHH", "dateTime": 1520028692558}, {"current_trial": 10, "trialdata": {"rt": -1, "trial_type": "single-stim", "stimulus": "<p id=\"stim\">10</p>", "internal_node_id": "0.0-10.0-0.0", "time_elapsed": 254020, "key_press": -1, "trial_index": 10}, "uniqueid": "MTK3126:3A4TN5196LPZLWMOJMZ9XOLN4KSCHH", "dateTime": 1520028695569}, {"current_trial": 11, "trialdata": {"rt": -1, "trial_type": "single-stim", "stimulus": "<p id=\"stim\">9</p>", "internal_node_id": "0.0-10.0-1.0", "time_elapsed": 255026, "key_press": -1, "trial_index": 11}, "uniqueid": "MTK3126:3A4TN5196LPZLWMOJMZ9XOLN4KSCHH", "dateTime": 1520028696575}, {"current_trial": 12, "trialdata": {"rt": -1, "trial_type": "single-stim", "stimulus": "<p id=\"stim\">8</p>", "internal_node_id": "0.0-10.0-2.0", "time_elapsed": 256030, "key_press": -1, "trial_index": 12}, "uniqueid": "MTK3126:3A4TN5196LPZLWMOJMZ9XOLN4KSCHH", "dateTime": 1520028697579}, {"current_trial": 13, "trialdata": {"rt": -1, "trial_type": "single-stim", "stimulus": "<p id=\"stim\">7</p>", "internal_node_id": "0.0-10.0-3.0", "time_elapsed": 257035, "key_press": -1, "trial_index": 13}, "uniqueid": "MTK3126:3A4TN5196LPZLWMOJMZ9XOLN4KSCHH", "dateTime": 1520028698585}, {"current_trial": 14, "trialdata": {"rt": -1, "trial_type": "single-stim", "stimulus": "<p id=\"stim\">6</p>", "internal_node_id": "0.0-10.0-4.0", "time_elapsed": 258040, "key_press": -1, "trial_index": 14}, "uniqueid": "MTK3126:3A4TN5196LPZLWMOJMZ9XOLN4KSCHH", "dateTime": 1520028699589}, {"current_trial": 15, "trialdata": {"rt": -1, "trial_type": "single-stim", "stimulus": "<p id=\"stim\">5</p>", "internal_node_id": "0.0-10.0-5.0", "time_elapsed": 259046, "key_press": -1, "trial_index": 15}, "uniqueid": "MTK3126:3A4TN5196LPZLWMOJMZ9XOLN4KSCHH", "dateTime": 1520028700595}, {"current_trial": 16, "trialdata": {"rt": -1, "trial_type": "single-stim", "stimulus": "<p id=\"stim\">4</p>", "internal_node_id": "0.0-10.0-6.0", "time_elapsed": 260049, "key_press": -1, "trial_index": 16}, "uniqueid": "MTK3126:3A4TN5196LPZLWMOJMZ9XOLN4KSCHH", "dateTime": 1520028701598}, {"current_trial": 17, "trialdata": {"rt": -1, "trial_type": "single-stim", "stimulus": "<p id=\"stim\">3</p>", "internal_node_id": "0.0-10.0-7.0", "time_elapsed": 261051, "key_press": -1, "trial_index": 17}, "uniqueid": "MTK3126:3A4TN5196LPZLWMOJMZ9XOLN4KSCHH", "dateTime": 1520028702600}, {"current_trial": 18, "trialdata": {"rt": -1, "trial_type": "single-stim", "stimulus": "<p id=\"stim\">2</p>", "internal_node_id": "0.0-10.0-8.0", "time_elapsed": 262053, "key_press": -1, "trial_index": 18}, "uniqueid": "MTK3126:3A4TN5196LPZLWMOJMZ9XOLN4KSCHH", "dateTime": 1520028703602}, {"current_trial": 19, "trialdata": {"rt": -1, "trial_type": "single-stim", "stimulus": "<p id=\"stim\">1</p>", "internal_node_id": "0.0-10.0-9.0", "time_elapsed": 263056, "key_press": -1, "trial_index": 19}, "uniqueid": "MTK3126:3A4TN5196LPZLWMOJMZ9XOLN4KSCHH", "dateTime": 1520028704605}, {"current_trial": 20, "trialdata": {"rt": -1, "trial_type": "single-stim", "stimulus": "<p id=\"stim\">+</p>", "internal_node_id": "0.0-11.0-0.0", "time_elapsed": 264561, "key_press": -1, "type": "FIXATION", "trial_index": 20}, "uniqueid": "MTK3126:3A4TN5196LPZLWMOJMZ9XOLN4KSCHH", "dateTime": 1520028706112}, {"current_trial": 21, "trialdata": {"rt": -1000, "trial_type": "single-audio", "word": "rifle", "stimulus": "/static/audio/wordpool/RIFLE.wav", "conditions": [18, 1200, "a", 18000], "internal_node_id": "0.0-12.0", "trial": 0, "time_elapsed": 266971, "serialpos": 0, "key_press": -1, "wordID": 1191, "type": "PRES_AUD", "trial_index": 21}, "uniqueid": "MTK3126:3A4TN5196LPZLWMOJMZ9XOLN4KSCHH", "dateTime": 1520028708521}, {"current_trial": 22, "trialdata": {"rt": -1000, "trial_type": "single-audio", "word": "blender", "stimulus": "/static/audio/wordpool/BLENDER.wav", "conditions": [18, 1200, "a", 18000], "internal_node_id": "0.0-13.0", "trial": 0, "time_elapsed": 269356, "serialpos": 1, "key_press": -1, "wordID": 135, "type": "PRES_AUD", "trial_index": 22}, "uniqueid": "MTK3126:3A4TN5196LPZLWMOJMZ9XOLN4KSCHH", "dateTime": 1520028710905}, {"current_trial": 23, "trialdata": {"rt": -1000, "trial_type": "single-audio", "word": "barley", "stimulus": "/static/audio/wordpool/BARLEY.wav", "conditions": [18, 1200, "a", 18000], "internal_node_id": "0.0-14.0", "trial": 0, "time_elapsed": 271701, "serialpos": 2, "key_press": -1, "wordID": 87, "type": "PRES_AUD", "trial_index": 23}, "uniqueid": "MTK3126:3A4TN5196LPZLWMOJMZ9XOLN4KSCHH", "dateTime": 1520028713250}, {"current_trial": 24, "trialdata": {"rt": -1000, "trial_type": "single-audio", "word": "knapsack", "stimulus": "/static/audio/wordpool/KNAPSACK.wav", "conditions": [18, 1200, "a", 18000], "internal_node_id": "0.0-15.0", "trial": 0, "time_elapsed": 274096, "serialpos": 3, "key_press": -1, "wordID": 782, "type": "PRES_AUD", "trial_index": 24}, "uniqueid": "MTK3126:3A4TN5196LPZLWMOJMZ9XOLN4KSCHH", "dateTime": 1520028715645}, {"current_trial": 25, "trialdata": {"rt": -1000, "trial_type": "single-audio", "word": "ulcer", "stimulus": "/static/audio/wordpool/ULCER.wav", "conditions": [18, 1200, "a", 18000], "internal_node_id": "0.0-16.0", "trial": 0, "time_elapsed": 276245, "serialpos": 4, "key_press": -1, "wordID": 1532, "type": "PRES_AUD", "trial_index": 25}, "uniqueid": "MTK3126:3A4TN5196LPZLWMOJMZ9XOLN4KSCHH", "dateTime": 1520028717794}, {"current_trial": 26, "trialdata": {"rt": -1000, "trial_type": "single-audio", "word": "patient", "stimulus": "/static/audio/wordpool/PATIENT.wav", "conditions": [18, 1200, "a", 18000], "internal_node_id": "0.0-17.0", "trial": 0, "time_elapsed": 278267, "serialpos": 5, "key_press": -1, "wordID": 1023, "type": "PRES_AUD", "trial_index": 26}, "uniqueid": "MTK3126:3A4TN5196LPZLWMOJMZ9XOLN4KSCHH", "dateTime": 1520028719816}, {"current_trial": 27, "trialdata": {"rt": -1000, "trial_type": "single-audio", "word": "treat", "stimulus": "/static/audio/wordpool/TREAT.wav", "conditions": [18, 1200, "a", 18000], "internal_node_id": "0.0-18.0", "trial": 0, "time_elapsed": 280397, "serialpos": 6, "key_press": -1, "wordID": 1500, "type": "PRES_AUD", "trial_index": 27}, "uniqueid": "MTK3126:3A4TN5196LPZLWMOJMZ9XOLN4KSCHH", "dateTime": 1520028721946}, {"current_trial": 28, "trialdata": {"rt": -1000, "trial_type": "single-audio", "word": "table", "stimulus": "/static/audio/wordpool/TABLE.wav", "conditions": [18, 1200, "a", 18000], "internal_node_id": "0.0-19.0", "trial": 0, "time_elapsed": 282515, "serialpos": 7, "key_press": -1, "wordID": 1425, "type": "PRES_AUD", "trial_index": 28}, "uniqueid": "MTK3126:3A4TN5196LPZLWMOJMZ9XOLN4KSCHH", "dateTime": 1520028724064}, {"current_trial": 29, "trialdata": {"rt": -1000, "trial_type": "single-audio", "word": "worker", "stimulus": "/static/audio/wordpool/WORKER.wav", "conditions": [18, 1200, "a", 18000], "internal_node_id": "0.0-20.0", "trial": 0, "time_elapsed": 284918, "serialpos": 8, "key_press": -1, "wordID": 1620, "type": "PRES_AUD", "trial_index": 29}, "uniqueid": "MTK3126:3A4TN5196LPZLWMOJMZ9XOLN4KSCHH", "dateTime": 1520028726467}, {"current_trial": 30, "trialdata": {"rt": -1000, "trial_type": "single-audio", "word": "blade", "stimulus": "/static/audio/wordpool/BLADE.wav", "conditions": [18, 1200, "a", 18000], "internal_node_id": "0.0-21.0", "trial": 0, "time_elapsed": 287112, "serialpos": 9, "key_press": -1, "wordID": 133, "type": "PRES_AUD", "trial_index": 30}, "uniqueid": "MTK3126:3A4TN5196LPZLWMOJMZ9XOLN4KSCHH", "dateTime": 1520028728661}, {"current_trial": 31, "trialdata": {"rt": -1000, "trial_type": "single-audio", "word": "tractor", "stimulus": "/static/audio/wordpool/TRACTOR.wav", "conditions": [18, 1200, "a", 18000], "internal_node_id": "0.0-22.0", "trial": 0, "time_elapsed": 289222, "serialpos": 10, "key_press": -1, "wordID": 1492, "type": "PRES_AUD", "trial_index": 31}, "uniqueid": "MTK3126:3A4TN5196LPZLWMOJMZ9XOLN4KSCHH", "dateTime": 1520028730771}, {"current_trial": 32, "trialdata": {"rt": -1000, "trial_type": "single-audio", "word": "leg", "stimulus": "/static/audio/wordpool/LEG.wav", "conditions": [18, 1200, "a", 18000], "internal_node_id": "0.0-23.0", "trial": 0, "time_elapsed": 291446, "serialpos": 11, "key_press": -1, "wordID": 808, "type": "PRES_AUD", "trial_index": 32}, "uniqueid": "MTK3126:3A4TN5196LPZLWMOJMZ9XOLN4KSCHH", "dateTime": 1520028732995}, {"current_trial": 33, "trialdata": {"rt": -1000, "trial_type": "single-audio", "word": "sunrise", "stimulus": "/static/audio/wordpool/SUNRISE.wav", "conditions": [18, 1200, "a", 18000], "internal_node_id": "0.0-24.0", "trial": 0, "time_elapsed": 293839, "serialpos": 12, "key_press": -1, "wordID": 1406, "type": "PRES_AUD", "trial_index": 33}, "uniqueid": "MTK3126:3A4TN5196LPZLWMOJMZ9XOLN4KSCHH", "dateTime": 1520028735388}, {"current_trial": 34, "trialdata": {"rt": -1000, "trial_type": "single-audio", "word": "dancer", "stimulus": "/static/audio/wordpool/DANCER.wav", "conditions": [18, 1200, "a", 18000], "internal_node_id": "0.0-25.0", "trial": 0, "time_elapsed": 295982, "serialpos": 13, "key_press": -1, "wordID": 436, "type": "PRES_AUD", "trial_index": 34}, "uniqueid": "MTK3126:3A4TN5196LPZLWMOJMZ9XOLN4KSCHH", "dateTime": 1520028737532}, {"current_trial": 35, "trialdata": {"rt": -1000, "trial_type": "single-audio", "word": "curtain", "stimulus": "/static/audio/wordpool/CURTAIN.wav", "conditions": [18, 1200, "a", 18000], "internal_node_id": "0.0-26.0", "trial": 0, "time_elapsed": 298302, "serialpos": 14, "key_press": -1, "wordID": 426, "type": "PRES_AUD", "trial_index": 35}, "uniqueid": "MTK3126:3A4TN5196LPZLWMOJMZ9XOLN4KSCHH", "dateTime": 1520028739851}, {"current_trial": 36, "trialdata": {"rt": -1000, "trial_type": "single-audio", "word": "lamp", "stimulus": "/static/audio/wordpool/LAMP.wav", "conditions": [18, 1200, "a", 18000], "internal_node_id": "0.0-27.0", "trial": 0, "time_elapsed": 300693, "serialpos": 15, "key_press": -1, "wordID": 797, "type": "PRES_AUD", "trial_index": 36}, "uniqueid": "MTK3126:3A4TN5196LPZLWMOJMZ9XOLN4KSCHH", "dateTime": 1520028742242}, {"current_trial": 37, "trialdata": {"rt": -1000, "trial_type": "single-audio", "word": "puddle", "stimulus": "/static/audio/wordpool/PUDDLE.wav", "conditions": [18, 1200, "a", 18000], "internal_node_id": "0.0-28.0", "trial": 0, "time_elapsed": 302943, "serialpos": 16, "key_press": -1, "wordID": 1139, "type": "PRES_AUD", "trial_index": 37}, "uniqueid": "MTK3126:3A4TN5196LPZLWMOJMZ9XOLN4KSCHH", "dateTime": 1520028744492}, {"current_trial": 38, "trialdata": {"rt": -1000, "trial_type": "single-audio", "word": "sphinx", "stimulus": "/static/audio/wordpool/SPHINX.wav", "conditions": [18, 1200, "a", 18000], "internal_node_id": "0.0-29.0", "trial": 0, "time_elapsed": 304963, "serialpos": 17, "key_press": -1, "wordID": 1348, "type": "PRES_AUD", "trial_index": 38}, "uniqueid": "MTK3126:3A4TN5196LPZLWMOJMZ9XOLN4KSCHH", "dateTime": 1520028746513}, {"current_trial": 39, "trialdata": {"rt": -1, "trial_type": "single-stim", "stimulus": "", "internal_node_id": "0.0-30.0-0.0", "time_elapsed": 306353, "key_press": -1, "type": "PRE_RECALL_DELAY", "trial_index": 39}, "uniqueid": "MTK3126:3A4TN5196LPZLWMOJMZ9XOLN4KSCHH", "dateTime": 1520028747903}, {"current_trial": 40, "trialdata": {"rt": -1000, "trial_type": "single-audio", "stimulus": "/static/audio/400Hz.wav", "internal_node_id": "0.0-31.0", "time_elapsed": 306861, "key_press": -1, "type": "PRE_RECALL_ALERT", "trial_index": 40}, "uniqueid": "MTK3126:3A4TN5196LPZLWMOJMZ9XOLN4KSCHH", "dateTime": 1520028748410}, {"current_trial": 41, "trialdata": {"rt": [6425, 11401, 14113, 19777, 24193, 42617], "recwords": ["rifle", "tractor", "man", "sunrise", "elsa", "tractor"], "key_times": [3402, 4018, 4322, 4874, 5266, 6425, 8051, 8298, 8594, 9026, 9426, 9970, 10330, 11401, 12458, 12866, 13670, 14113, 16258, 16909, 17274, 17664, 18218, 18658, 18891, 19777, 22171, 22770, 23234, 23442, 24193, 39546, 39771, 40058, 40490, 40818, 41338, 41689, 42617], "trial_type": "free-recall", "conditions": [18, 1200, "a", 18000], "internal_node_id": "0.0-32.0-0.0", "key_presses": [82, 73, 70, 76, 69, 13, 84, 82, 65, 67, 84, 79, 82, 13, 77, 65, 78, 13, 83, 85, 78, 82, 73, 83, 69, 13, 69, 76, 83, 65, 13, 84, 82, 65, 67, 84, 79, 82, 13], "trial": 0, "time_elapsed": 366869, "type": "FREE_RECALL", "trial_index": 41}, "uniqueid": "MTK3126:3A4TN5196LPZLWMOJMZ9XOLN4KSCHH", "dateTime": 1520028808430}, {"current_trial": 42, "trialdata": {"rt": 1907, "trial_type": "text", "internal_node_id": "0.0-33.0", "time_elapsed": 370797, "key_press": 32, "type": "INSTRUCTIONS", "trial_index": 42}, "uniqueid": "MTK3126:3A4TN5196LPZLWMOJMZ9XOLN4KSCHH", "dateTime": 1520028812346}, {"current_trial": 43, "trialdata": {"rt": [3972, 6364, 8388, 12413, 14964, 16973], "trial_type": "math-distractor", "key_times": [2502, 2894, 3972, 5573, 5926, 6364, 7694, 7990, 8388, 11182, 11597, 12413, 14094, 14422, 14964, 16342, 16592, 16973], "responses": ["14", "17", "15", "19", "16", "14"], "num2": [9, 2, 6, 8, 2, 1, 3], "num3": [2, 7, 3, 6, 7, 7, 8], "conditions": [18, 1200, "a", 18000], "internal_node_id": "0.0-34.0", "key_presses": [97, 100, 13, 97, 103, 13, 97, 101, 13, 97, 105, 13, 97, 102, 13, 97, 100, 13], "trial": 1, "time_elapsed": 390814, "type": "DISTRACTOR", "trial_index": 43, "num1": [3, 8, 6, 5, 7, 6, 3]}, "uniqueid": "MTK3126:3A4TN5196LPZLWMOJMZ9XOLN4KSCHH", "dateTime": 1520028832364}, {"current_trial": 44, "trialdata": {"rt": -1, "trial_type": "single-stim", "stimulus": "<p id=\"stim\">10</p>", "internal_node_id": "0.0-35.0-0.0", "time_elapsed": 393820, "key_press": -1, "trial_index": 44}, "uniqueid": "MTK3126:3A4TN5196LPZLWMOJMZ9XOLN4KSCHH", "dateTime": 1520028835369}, {"current_trial": 45, "trialdata": {"rt": -1, "trial_type": "single-stim", "stimulus": "<p id=\"stim\">9</p>", "internal_node_id": "0.0-35.0-1.0", "time_elapsed": 394822, "key_press": -1, "trial_index": 45}, "uniqueid": "MTK3126:3A4TN5196LPZLWMOJMZ9XOLN4KSCHH", "dateTime": 1520028836371}, {"current_trial": 46, "trialdata": {"rt": -1, "trial_type": "single-stim", "stimulus": "<p id=\"stim\">8</p>", "internal_node_id": "0.0-35.0-2.0", "time_elapsed": 395824, "key_press": -1, "trial_index": 46}, "uniqueid": "MTK3126:3A4TN5196LPZLWMOJMZ9XOLN4KSCHH", "dateTime": 1520028837374}, {"current_trial": 47, "trialdata": {"rt": -1, "trial_type": "single-stim", "stimulus": "<p id=\"stim\">7</p>", "internal_node_id": "0.0-35.0-3.0", "time_elapsed": 396841, "key_press": -1, "trial_index": 47}, "uniqueid": "MTK3126:3A4TN5196LPZLWMOJMZ9XOLN4KSCHH", "dateTime": 1520028838390}, {"current_trial": 48, "trialdata": {"rt": -1, "trial_type": "single-stim", "stimulus": "<p id=\"stim\">6</p>", "internal_node_id": "0.0-35.0-4.0", "time_elapsed": 397843, "key_press": -1, "trial_index": 48}, "uniqueid": "MTK3126:3A4TN5196LPZLWMOJMZ9XOLN4KSCHH", "dateTime": 1520028839393}, {"current_trial": 49, "trialdata": {"rt": -1, "trial_type": "single-stim", "stimulus": "<p id=\"stim\">5</p>", "internal_node_id": "0.0-35.0-5.0", "time_elapsed": 398861, "key_press": -1, "trial_index": 49}, "uniqueid": "MTK3126:3A4TN5196LPZLWMOJMZ9XOLN4KSCHH", "dateTime": 1520028840410}, {"current_trial": 50, "trialdata": {"rt": -1, "trial_type": "single-stim", "stimulus": "<p id=\"stim\">4</p>", "internal_node_id": "0.0-35.0-6.0", "time_elapsed": 399865, "key_press": -1, "trial_index": 50}, "uniqueid": "MTK3126:3A4TN5196LPZLWMOJMZ9XOLN4KSCHH", "dateTime": 1520028841414}, {"current_trial": 51, "trialdata": {"rt": -1, "trial_type": "single-stim", "stimulus": "<p id=\"stim\">3</p>", "internal_node_id": "0.0-35.0-7.0", "time_elapsed": 400872, "key_press": -1, "trial_index": 51}, "uniqueid": "MTK3126:3A4TN5196LPZLWMOJMZ9XOLN4KSCHH", "dateTime": 1520028842421}, {"current_trial": 52, "trialdata": {"rt": -1, "trial_type": "single-stim", "stimulus": "<p id=\"stim\">2</p>", "internal_node_id": "0.0-35.0-8.0", "time_elapsed": 401877, "key_press": -1, "trial_index": 52}, "uniqueid": "MTK3126:3A4TN5196LPZLWMOJMZ9XOLN4KSCHH", "dateTime": 1520028843426}, {"current_trial": 53, "trialdata": {"rt": -1, "trial_type": "single-stim", "stimulus": "<p id=\"stim\">1</p>", "internal_node_id": "0.0-35.0-9.0", "time_elapsed": 402879, "key_press": -1, "trial_index": 53}, "uniqueid": "MTK3126:3A4TN5196LPZLWMOJMZ9XOLN4KSCHH", "dateTime": 1520028844428}, {"current_trial": 54, "trialdata": {"rt": -1, "trial_type": "single-stim", "stimulus": "<p id=\"stim\">+</p>", "internal_node_id": "0.0-36.0-0.0", "time_elapsed": 404390, "key_press": -1, "type": "FIXATION", "trial_index": 54}, "uniqueid": "MTK3126:3A4TN5196LPZLWMOJMZ9XOLN4KSCHH", "dateTime": 1520028845939}, {"current_trial": 55, "trialdata": {"rt": -1000, "trial_type": "single-audio", "word": "stream", "stimulus": "/static/audio/wordpool/STREAM.wav", "conditions": [18, 1200, "a", 18000], "internal_node_id": "0.0-37.0", "trial": 1, "time_elapsed": 406748, "serialpos": 0, "key_press": -1, "wordID": 1391, "type": "PRES_AUD", "trial_index": 55}, "uniqueid": "MTK3126:3A4TN5196LPZLWMOJMZ9XOLN4KSCHH", "dateTime": 1520028848297}, {"current_trial": 56, "trialdata": {"rt": -1000, "trial_type": "single-audio", "word": "chauffeur", "stimulus": "/static/audio/wordpool/CHAUFFEUR.wav", "conditions": [18, 1200, "a", 18000], "internal_node_id": "0.0-38.0", "trial": 1, "time_elapsed": 409140, "serialpos": 1, "key_press": -1, "wordID": 282, "type": "PRES_AUD", "trial_index": 56}, "uniqueid": "MTK3126:3A4TN5196LPZLWMOJMZ9XOLN4KSCHH", "dateTime": 1520028850689}, {"current_trial": 57, "trialdata": {"rt": -1000, "trial_type": "single-audio", "word": "leader", "stimulus": "/static/audio/wordpool/LEADER.wav", "conditions": [18, 1200, "a", 18000], "internal_node_id": "0.0-39.0", "trial": 1, "time_elapsed": 411251, "serialpos": 2, "key_press": -1, "wordID": 806, "type": "PRES_AUD", "trial_index": 57}, "uniqueid": "MTK3126:3A4TN5196LPZLWMOJMZ9XOLN4KSCHH", "dateTime": 1520028852800}, {"current_trial": 58, "trialdata": {"rt": -1000, "trial_type": "single-audio", "word": "diner", "stimulus": "/static/audio/wordpool/DINER.wav", "conditions": [18, 1200, "a", 18000], "internal_node_id": "0.0-40.0", "trial": 1, "time_elapsed": 413581, "serialpos": 3, "key_press": -1, "wordID": 466, "type": "PRES_AUD", "trial_index": 58}, "uniqueid": "MTK3126:3A4TN5196LPZLWMOJMZ9XOLN4KSCHH", "dateTime": 1520028855130}, {"current_trial": 59, "trialdata": {"rt": -1000, "trial_type": "single-audio", "word": "bureau", "stimulus": "/static/audio/wordpool/BUREAU.wav", "conditions": [18, 1200, "a", 18000], "internal_node_id": "0.0-41.0", "trial": 1, "time_elapsed": 415973, "serialpos": 4, "key_press": -1, "wordID": 198, "type": "PRES_AUD", "trial_index": 59}, "uniqueid": "MTK3126:3A4TN5196LPZLWMOJMZ9XOLN4KSCHH", "dateTime": 1520028857522}, {"current_trial": 60, "trialdata": {"rt": -1000, "trial_type": "single-audio", "word": "slug", "stimulus": "/static/audio/wordpool/SLUG.wav", "conditions": [18, 1200, "a", 18000], "internal_node_id": "0.0-42.0", "trial": 1, "time_elapsed": 418256, "serialpos": 5, "key_press": -1, "wordID": 1328, "type": "PRES_AUD", "trial_index": 60}, "uniqueid": "MTK3126:3A4TN5196LPZLWMOJMZ9XOLN4KSCHH", "dateTime": 1520028859806}, {"current_trial": 61, "trialdata": {"rt": -1000, "trial_type": "single-audio", "word": "scalpel", "stimulus": "/static/audio/wordpool/SCALPEL.wav", "conditions": [18, 1200, "a", 18000], "internal_node_id": "0.0-43.0", "trial": 1, "time_elapsed": 420274, "serialpos": 6, "key_press": -1, "wordID": 1242, "type": "PRES_AUD", "trial_index": 61}, "uniqueid": "MTK3126:3A4TN5196LPZLWMOJMZ9XOLN4KSCHH", "dateTime": 1520028861823}, {"current_trial": 62, "trialdata": {"rt": -1000, "trial_type": "single-audio", "word": "salad", "stimulus": "/static/audio/wordpool/SALAD.wav", "conditions": [18, 1200, "a", 18000], "internal_node_id": "0.0-44.0", "trial": 1, "time_elapsed": 422633, "serialpos": 7, "key_press": -1, "wordID": 1223, "type": "PRES_AUD", "trial_index": 62}, "uniqueid": "MTK3126:3A4TN5196LPZLWMOJMZ9XOLN4KSCHH", "dateTime": 1520028864182}, {"current_trial": 63, "trialdata": {"rt": -1000, "trial_type": "single-audio", "word": "clothes", "stimulus": "/static/audio/wordpool/CLOTHES.wav", "conditions": [18, 1200, "a", 18000], "internal_node_id": "0.0-45.0", "trial": 1, "time_elapsed": 424949, "serialpos": 8, "key_press": -1, "wordID": 326, "type": "PRES_AUD", "trial_index": 63}, "uniqueid": "MTK3126:3A4TN5196LPZLWMOJMZ9XOLN4KSCHH", "dateTime": 1520028866499}, {"current_trial": 64, "trialdata": {"rt": -1000, "trial_type": "single-audio", "word": "doughnut", "stimulus": "/static/audio/wordpool/DOUGHNUT.wav", "conditions": [18, 1200, "a", 18000], "internal_node_id": "0.0-46.0", "trial": 1, "time_elapsed": 426986, "serialpos": 9, "key_press": -1, "wordID": 489, "type": "PRES_AUD", "trial_index": 64}, "uniqueid": "MTK3126:3A4TN5196LPZLWMOJMZ9XOLN4KSCHH", "dateTime": 1520028868535}, {"current_trial": 65, "trialdata": {"rt": -1000, "trial_type": "single-audio", "word": "shoulder", "stimulus": "/static/audio/wordpool/SHOULDER.wav", "conditions": [18, 1200, "a", 18000], "internal_node_id": "0.0-47.0", "trial": 1, "time_elapsed": 429317, "serialpos": 10, "key_press": -1, "wordID": 1293, "type": "PRES_AUD", "trial_index": 65}, "uniqueid": "MTK3126:3A4TN5196LPZLWMOJMZ9XOLN4KSCHH", "dateTime": 1520028870867}, {"current_trial": 66, "trialdata": {"rt": -1000, "trial_type": "single-audio", "word": "money", "stimulus": "/static/audio/wordpool/MONEY.wav", "conditions": [18, 1200, "a", 18000], "internal_node_id": "0.0-48.0", "trial": 1, "time_elapsed": 431695, "serialpos": 11, "key_press": -1, "wordID": 907, "type": "PRES_AUD", "trial_index": 66}, "uniqueid": "MTK3126:3A4TN5196LPZLWMOJMZ9XOLN4KSCHH", "dateTime": 1520028873244}, {"current_trial": 67, "trialdata": {"rt": -1000, "trial_type": "single-audio", "word": "star", "stimulus": "/static/audio/wordpool/STAR.wav", "conditions": [18, 1200, "a", 18000], "internal_node_id": "0.0-49.0", "trial": 1, "time_elapsed": 433729, "serialpos": 12, "key_press": -1, "wordID": 1372, "type": "PRES_AUD", "trial_index": 67}, "uniqueid": "MTK3126:3A4TN5196LPZLWMOJMZ9XOLN4KSCHH", "dateTime": 1520028875278}, {"current_trial": 68, "trialdata": {"rt": -1000, "trial_type": "single-audio", "word": "bison", "stimulus": "/static/audio/wordpool/BISON.wav", "conditions": [18, 1200, "a", 18000], "internal_node_id": "0.0-50.0", "trial": 1, "time_elapsed": 436139, "serialpos": 13, "key_press": -1, "wordID": 130, "type": "PRES_AUD", "trial_index": 68}, "uniqueid": "MTK3126:3A4TN5196LPZLWMOJMZ9XOLN4KSCHH", "dateTime": 1520028877688}, {"current_trial": 69, "trialdata": {"rt": -1000, "trial_type": "single-audio", "word": "tuba", "stimulus": "/static/audio/wordpool/TUBA.wav", "conditions": [18, 1200, "a", 18000], "internal_node_id": "0.0-51.0", "trial": 1, "time_elapsed": 438436, "serialpos": 14, "key_press": -1, "wordID": 1514, "type": "PRES_AUD", "trial_index": 69}, "uniqueid": "MTK3126:3A4TN5196LPZLWMOJMZ9XOLN4KSCHH", "dateTime": 1520028879986}, {"current_trial": 70, "trialdata": {"rt": -1000, "trial_type": "single-audio", "word": "bouquet", "stimulus": "/static/audio/wordpool/BOUQUET.wav", "conditions": [18, 1200, "a", 18000], "internal_node_id": "0.0-52.0", "trial": 1, "time_elapsed": 440640, "serialpos": 15, "key_press": -1, "wordID": 156, "type": "PRES_AUD", "trial_index": 70}, "uniqueid": "MTK3126:3A4TN5196LPZLWMOJMZ9XOLN4KSCHH", "dateTime": 1520028882189}, {"current_trial": 71, "trialdata": {"rt": -1000, "trial_type": "single-audio", "word": "trench", "stimulus": "/static/audio/wordpool/TRENCH.wav", "conditions": [18, 1200, "a", 18000], "internal_node_id": "0.0-53.0", "trial": 1, "time_elapsed": 442737, "serialpos": 16, "key_press": -1, "wordID": 1502, "type": "PRES_AUD", "trial_index": 71}, "uniqueid": "MTK3126:3A4TN5196LPZLWMOJMZ9XOLN4KSCHH", "dateTime": 1520028884287}, {"current_trial": 72, "trialdata": {"rt": -1000, "trial_type": "single-audio", "word": "juggler", "stimulus": "/static/audio/wordpool/JUGGLER.wav", "conditions": [18, 1200, "a", 18000], "internal_node_id": "0.0-54.0", "trial": 1, "time_elapsed": 444850, "serialpos": 17, "key_press": -1, "wordID": 762, "type": "PRES_AUD", "trial_index": 72}, "uniqueid": "MTK3126:3A4TN5196LPZLWMOJMZ9XOLN4KSCHH", "dateTime": 1520028886399}, {"current_trial": 73, "trialdata": {"rt": -1, "trial_type": "single-stim", "stimulus": "", "internal_node_id": "0.0-55.0-0.0", "time_elapsed": 446223, "key_press": -1, "type": "PRE_RECALL_DELAY", "trial_index": 73}, "uniqueid": "MTK3126:3A4TN5196LPZLWMOJMZ9XOLN4KSCHH", "dateTime": 1520028887772}, {"current_trial": 74, "trialdata": {"rt": -1000, "trial_type": "single-audio", "stimulus": "/static/audio/400Hz.wav", "internal_node_id": "0.0-56.0", "time_elapsed": 446733, "key_press": -1, "type": "PRE_RECALL_ALERT", "trial_index": 74}, "uniqueid": "MTK3126:3A4TN5196LPZLWMOJMZ9XOLN4KSCHH", "dateTime": 1520028888282}, {"current_trial": 75, "trialdata": {"rt": [4352, 8160, 11128, 15224, 19856, 22728, 25927], "recwords": ["tiger", "yogurt", "money", "boquet", "hero", "leader", "clog"], "key_times": [2193, 2745, 3073, 3361, 3521, 4352, 5345, 5921, 6658, 6905, 7252, 7409, 8160, 8978, 9209, 9529, 9913, 10290, 11128, 11905, 12409, 13091, 13698, 14073, 14308, 15224, 18185, 18521, 18713, 19281, 19856, 20352, 20881, 21153, 21449, 21673, 21881, 22728, 24297, 24889, 25065, 25433, 25927], "trial_type": "free-recall", "conditions": [18, 1200, "a", 18000], "internal_node_id": "0.0-57.0-0.0", "key_presses": [84, 73, 71, 69, 82, 13, 89, 79, 71, 85, 82, 84, 13, 77, 79, 78, 69, 89, 13, 66, 79, 81, 85, 69, 84, 13, 72, 69, 82, 79, 13, 76, 69, 65, 68, 69, 82, 13, 67, 76, 79, 71, 13], "trial": 1, "time_elapsed": 506748, "type": "FREE_RECALL", "trial_index": 75}, "uniqueid": "MTK3126:3A4TN5196LPZLWMOJMZ9XOLN4KSCHH", "dateTime": 1520028948305}, {"current_trial": 76, "trialdata": {"rt": 2469, "trial_type": "text", "internal_node_id": "0.0-58.0", "time_elapsed": 511236, "key_press": 32, "type": "INSTRUCTIONS", "trial_index": 76}, "uniqueid": "MTK3126:3A4TN5196LPZLWMOJMZ9XOLN4KSCHH", "dateTime": 1520028952786}, {"current_trial": 77, "trialdata": {"rt": [2713, 5913, 7592, 11409], "trial_type": "math-distractor", "key_times": [1722, 2025, 2713, 5082, 5409, 5913, 7098, 7282, 7592, 10714, 10922, 11409], "responses": ["18", "17", "11", "25"], "num2": [5, 2, 6, 8, 2], "num3": [8, 9, 4, 9, 1], "conditions": [24, 1600, "a", 12000], "internal_node_id": "0.0-59.0", "key_presses": [97, 104, 13, 97, 103, 13, 97, 97, 13, 98, 101, 13], "trial": 2, "time_elapsed": 524262, "type": "DISTRACTOR", "trial_index": 77, "num1": [5, 6, 1, 8, 2]}, "uniqueid": "MTK3126:3A4TN5196LPZLWMOJMZ9XOLN4KSCHH", "dateTime": 1520028965812}, {"current_trial": 78, "trialdata": {"rt": -1, "trial_type": "single-stim", "stimulus": "<p id=\"stim\">10</p>", "internal_node_id": "0.0-60.0-0.0", "time_elapsed": 527268, "key_press": -1, "trial_index": 78}, "uniqueid": "MTK3126:3A4TN5196LPZLWMOJMZ9XOLN4KSCHH", "dateTime": 1520028968817}, {"current_trial": 79, "trialdata": {"rt": -1, "trial_type": "single-stim", "stimulus": "<p id=\"stim\">9</p>", "internal_node_id": "0.0-60.0-1.0", "time_elapsed": 528272, "key_press": -1, "trial_index": 79}, "uniqueid": "MTK3126:3A4TN5196LPZLWMOJMZ9XOLN4KSCHH", "dateTime": 1520028969821}, {"current_trial": 80, "trialdata": {"rt": -1, "trial_type": "single-stim", "stimulus": "<p id=\"stim\">8</p>", "internal_node_id": "0.0-60.0-2.0", "time_elapsed": 529276, "key_press": -1, "trial_index": 80}, "uniqueid": "MTK3126:3A4TN5196LPZLWMOJMZ9XOLN4KSCHH", "dateTime": 1520028970825}, {"current_trial": 81, "trialdata": {"rt": -1, "trial_type": "single-stim", "stimulus": "<p id=\"stim\">7</p>", "internal_node_id": "0.0-60.0-3.0", "time_elapsed": 530277, "key_press": -1, "trial_index": 81}, "uniqueid": "MTK3126:3A4TN5196LPZLWMOJMZ9XOLN4KSCHH", "dateTime": 1520028971827}, {"current_trial": 82, "trialdata": {"rt": -1, "trial_type": "single-stim", "stimulus": "<p id=\"stim\">6</p>", "internal_node_id": "0.0-60.0-4.0", "time_elapsed": 531280, "key_press": -1, "trial_index": 82}, "uniqueid": "MTK3126:3A4TN5196LPZLWMOJMZ9XOLN4KSCHH", "dateTime": 1520028972829}, {"current_trial": 83, "trialdata": {"rt": -1, "trial_type": "single-stim", "stimulus": "<p id=\"stim\">5</p>", "internal_node_id": "0.0-60.0-5.0", "time_elapsed": 532286, "key_press": -1, "trial_index": 83}, "uniqueid": "MTK3126:3A4TN5196LPZLWMOJMZ9XOLN4KSCHH", "dateTime": 1520028973835}, {"current_trial": 84, "trialdata": {"rt": -1, "trial_type": "single-stim", "stimulus": "<p id=\"stim\">4</p>", "internal_node_id": "0.0-60.0-6.0", "time_elapsed": 533292, "key_press": -1, "trial_index": 84}, "uniqueid": "MTK3126:3A4TN5196LPZLWMOJMZ9XOLN4KSCHH", "dateTime": 1520028974841}, {"current_trial": 85, "trialdata": {"rt": -1, "trial_type": "single-stim", "stimulus": "<p id=\"stim\">3</p>", "internal_node_id": "0.0-60.0-7.0", "time_elapsed": 534307, "key_press": -1, "trial_index": 85}, "uniqueid": "MTK3126:3A4TN5196LPZLWMOJMZ9XOLN4KSCHH", "dateTime": 1520028975856}, {"current_trial": 86, "trialdata": {"rt": -1, "trial_type": "single-stim", "stimulus": "<p id=\"stim\">2</p>", "internal_node_id": "0.0-60.0-8.0", "time_elapsed": 535319, "key_press": -1, "trial_index": 86}, "uniqueid": "MTK3126:3A4TN5196LPZLWMOJMZ9XOLN4KSCHH", "dateTime": 1520028976869}, {"current_trial": 87, "trialdata": {"rt": -1, "trial_type": "single-stim", "stimulus": "<p id=\"stim\">1</p>", "internal_node_id": "0.0-60.0-9.0", "time_elapsed": 536326, "key_press": -1, "trial_index": 87}, "uniqueid": "MTK3126:3A4TN5196LPZLWMOJMZ9XOLN4KSCHH", "dateTime": 1520028977875}, {"current_trial": 88, "trialdata": {"rt": -1, "trial_type": "single-stim", "stimulus": "<p id=\"stim\">+</p>", "internal_node_id": "0.0-61.0-0.0", "time_elapsed": 537834, "key_press": -1, "type": "FIXATION", "trial_index": 88}, "uniqueid": "MTK3126:3A4TN5196LPZLWMOJMZ9XOLN4KSCHH", "dateTime": 1520028979384}, {"current_trial": 89, "trialdata": {"rt": -1000, "trial_type": "single-audio", "word": "apple", "stimulus": "/static/audio/wordpool/APPLE.wav", "conditions": [24, 1600, "a", 12000], "internal_node_id": "0.0-62.0", "trial": 2, "time_elapsed": 540615, "serialpos": 0, "key_press": -1, "wordID": 32, "type": "PRES_AUD", "trial_index": 89}, "uniqueid": "MTK3126:3A4TN5196LPZLWMOJMZ9XOLN4KSCHH", "dateTime": 1520028982165}, {"current_trial": 90, "trialdata": {"rt": -1000, "trial_type": "single-audio", "word": "onion", "stimulus": "/static/audio/wordpool/ONION.wav", "conditions": [24, 1600, "a", 12000], "internal_node_id": "0.0-63.0", "trial": 2, "time_elapsed": 543384, "serialpos": 1, "key_press": -1, "wordID": 976, "type": "PRES_AUD", "trial_index": 90}, "uniqueid": "MTK3126:3A4TN5196LPZLWMOJMZ9XOLN4KSCHH", "dateTime": 1520028984933}, {"current_trial": 91, "trialdata": {"rt": -1000, "trial_type": "single-audio", "word": "hero", "stimulus": "/static/audio/wordpool/HERO.wav", "conditions": [24, 1600, "a", 12000], "internal_node_id": "0.0-64.0", "trial": 2, "time_elapsed": 546052, "serialpos": 2, "key_press": -1, "wordID": 705, "type": "PRES_AUD", "trial_index": 91}, "uniqueid": "MTK3126:3A4TN5196LPZLWMOJMZ9XOLN4KSCHH", "dateTime": 1520028987601}, {"current_trial": 92, "trialdata": {"rt": -1000, "trial_type": "single-audio", "word": "donkey", "stimulus": "/static/audio/wordpool/DONKEY.wav", "conditions": [24, 1600, "a", 12000], "internal_node_id": "0.0-65.0", "trial": 2, "time_elapsed": 548733, "serialpos": 3, "key_press": -1, "wordID": 483, "type": "PRES_AUD", "trial_index": 92}, "uniqueid": "MTK3126:3A4TN5196LPZLWMOJMZ9XOLN4KSCHH", "dateTime": 1520028990283}, {"current_trial": 93, "trialdata": {"rt": -1000, "trial_type": "single-audio", "word": "jello", "stimulus": "/static/audio/wordpool/JELLO.wav", "conditions": [24, 1600, "a", 12000], "internal_node_id": "0.0-66.0", "trial": 2, "time_elapsed": 551185, "serialpos": 4, "key_press": -1, "wordID": 753, "type": "PRES_AUD", "trial_index": 93}, "uniqueid": "MTK3126:3A4TN5196LPZLWMOJMZ9XOLN4KSCHH", "dateTime": 1520028992735}, {"current_trial": 94, "trialdata": {"rt": -1000, "trial_type": "single-audio", "word": "apron", "stimulus": "/static/audio/wordpool/APRON.wav", "conditions": [24, 1600, "a", 12000], "internal_node_id": "0.0-67.0", "trial": 2, "time_elapsed": 553741, "serialpos": 5, "key_press": -1, "wordID": 34, "type": "PRES_AUD", "trial_index": 94}, "uniqueid": "MTK3126:3A4TN5196LPZLWMOJMZ9XOLN4KSCHH", "dateTime": 1520028995291}, {"current_trial": 95, "trialdata": {"rt": -1000, "trial_type": "single-audio", "word": "highway", "stimulus": "/static/audio/wordpool/HIGHWAY.wav", "conditions": [24, 1600, "a", 12000], "internal_node_id": "0.0-68.0", "trial": 2, "time_elapsed": 556371, "serialpos": 6, "key_press": -1, "wordID": 706, "type": "PRES_AUD", "trial_index": 95}, "uniqueid": "MTK3126:3A4TN5196LPZLWMOJMZ9XOLN4KSCHH", "dateTime": 1520028997920}, {"current_trial": 96, "trialdata": {"rt": -1000, "trial_type": "single-audio", "word": "motor", "stimulus": "/static/audio/wordpool/MOTOR.wav", "conditions": [24, 1600, "a", 12000], "internal_node_id": "0.0-69.0", "trial": 2, "time_elapsed": 559158, "serialpos": 7, "key_press": -1, "wordID": 921, "type": "PRES_AUD", "trial_index": 96}, "uniqueid": "MTK3126:3A4TN5196LPZLWMOJMZ9XOLN4KSCHH", "dateTime": 1520029000707}, {"current_trial": 97, "trialdata": {"rt": -1000, "trial_type": "single-audio", "word": "smog", "stimulus": "/static/audio/wordpool/SMOG.wav", "conditions": [24, 1600, "a", 12000], "internal_node_id": "0.0-70.0", "trial": 2, "time_elapsed": 561908, "serialpos": 8, "key_press": -1, "wordID": 1329, "type": "PRES_AUD", "trial_index": 97}, "uniqueid": "MTK3126:3A4TN5196LPZLWMOJMZ9XOLN4KSCHH", "dateTime": 1520029003458}, {"current_trial": 98, "trialdata": {"rt": -1000, "trial_type": "single-audio", "word": "bacon", "stimulus": "/static/audio/wordpool/BACON.wav", "conditions": [24, 1600, "a", 12000], "internal_node_id": "0.0-71.0", "trial": 2, "time_elapsed": 564440, "serialpos": 9, "key_press": -1, "wordID": 66, "type": "PRES_AUD", "trial_index": 98}, "uniqueid": "MTK3126:3A4TN5196LPZLWMOJMZ9XOLN4KSCHH", "dateTime": 1520029005989}, {"current_trial": 99, "trialdata": {"rt": -1000, "trial_type": "single-audio", "word": "jelly", "stimulus": "/static/audio/wordpool/JELLY.wav", "conditions": [24, 1600, "a", 12000], "internal_node_id": "0.0-72.0", "trial": 2, "time_elapsed": 566988, "serialpos": 10, "key_press": -1, "wordID": 754, "type": "PRES_AUD", "trial_index": 99}, "uniqueid": "MTK3126:3A4TN5196LPZLWMOJMZ9XOLN4KSCHH", "dateTime": 1520029008538}, {"current_trial": 100, "trialdata": {"rt": -1000, "trial_type": "single-audio", "word": "lover", "stimulus": "/static/audio/wordpool/LOVER.wav", "conditions": [24, 1600, "a", 12000], "internal_node_id": "0.0-73.0", "trial": 2, "time_elapsed": 569671, "serialpos": 11, "key_press": -1, "wordID": 845, "type": "PRES_AUD", "trial_index": 100}, "uniqueid": "MTK3126:3A4TN5196LPZLWMOJMZ9XOLN4KSCHH", "dateTime": 1520029011221}, {"current_trial": 101, "trialdata": {"rt": -1000, "trial_type": "single-audio", "word": "lipstick", "stimulus": "/static/audio/wordpool/LIPSTICK.wav", "conditions": [24, 1600, "a", 12000], "internal_node_id": "0.0-74.0", "trial": 2, "time_elapsed": 572369, "serialpos": 12, "key_press": -1, "wordID": 828, "type": "PRES_AUD", "trial_index": 101}, "uniqueid": "MTK3126:3A4TN5196LPZLWMOJMZ9XOLN4KSCHH", "dateTime": 1520029013918}, {"current_trial": 102, "trialdata": {"rt": -1000, "trial_type": "single-audio", "word": "wasp", "stimulus": "/static/audio/wordpool/WASP.wav", "conditions": [24, 1600, "a", 12000], "internal_node_id": "0.0-75.0", "trial": 2, "time_elapsed": 574809, "serialpos": 13, "key_press": -1, "wordID": 1592, "type": "PRES_AUD", "trial_index": 102}, "uniqueid": "MTK3126:3A4TN5196LPZLWMOJMZ9XOLN4KSCHH", "dateTime": 1520029016358}, {"current_trial": 103, "trialdata": {"rt": -1000, "trial_type": "single-audio", "word": "dentist", "stimulus": "/static/audio/wordpool/DENTIST.wav", "conditions": [24, 1600, "a", 12000], "internal_node_id": "0.0-76.0", "trial": 2, "time_elapsed": 577373, "serialpos": 14, "key_press": -1, "wordID": 446, "type": "PRES_AUD", "trial_index": 103}, "uniqueid": "MTK3126:3A4TN5196LPZLWMOJMZ9XOLN4KSCHH", "dateTime": 1520029018923}, {"current_trial": 104, "trialdata": {"rt": -1000, "trial_type": "single-audio", "word": "wife", "stimulus": "/static/audio/wordpool/WIFE.wav", "conditions": [24, 1600, "a", 12000], "internal_node_id": "0.0-77.0", "trial": 2, "time_elapsed": 579996, "serialpos": 15, "key_press": -1, "wordID": 1608, "type": "PRES_AUD", "trial_index": 104}, "uniqueid": "MTK3126:3A4TN5196LPZLWMOJMZ9XOLN4KSCHH", "dateTime": 1520029021545}, {"current_trial": 105, "trialdata": {"rt": -1000, "trial_type": "single-audio", "word": "primate", "stimulus": "/static/audio/wordpool/PRIMATE.wav", "conditions": [24, 1600, "a", 12000], "internal_node_id": "0.0-78.0", "trial": 2, "time_elapsed": 582733, "serialpos": 16, "key_press": -1, "wordID": 1122, "type": "PRES_AUD", "trial_index": 105}, "uniqueid": "MTK3126:3A4TN5196LPZLWMOJMZ9XOLN4KSCHH", "dateTime": 1520029024282}, {"current_trial": 106, "trialdata": {"rt": -1000, "trial_type": "single-audio", "word": "sister", "stimulus": "/static/audio/wordpool/SISTER.wav", "conditions": [24, 1600, "a", 12000], "internal_node_id": "0.0-79.0", "trial": 2, "time_elapsed": 585363, "serialpos": 17, "key_press": -1, "wordID": 1311, "type": "PRES_AUD", "trial_index": 106}, "uniqueid": "MTK3126:3A4TN5196LPZLWMOJMZ9XOLN4KSCHH", "dateTime": 1520029026912}, {"current_trial": 107, "trialdata": {"rt": -1000, "trial_type": "single-audio", "word": "child", "stimulus": "/static/audio/wordpool/CHILD.wav", "conditions": [24, 1600, "a", 12000], "internal_node_id": "0.0-80.0", "trial": 2, "time_elapsed": 587898, "serialpos": 18, "key_press": -1, "wordID": 298, "type": "PRES_AUD", "trial_index": 107}, "uniqueid": "MTK3126:3A4TN5196LPZLWMOJMZ9XOLN4KSCHH", "dateTime": 1520029029448}, {"current_trial": 108, "trialdata": {"rt": -1000, "trial_type": "single-audio", "word": "powder", "stimulus": "/static/audio/wordpool/POWDER.wav", "conditions": [24, 1600, "a", 12000], "internal_node_id": "0.0-81.0", "trial": 2, "time_elapsed": 590482, "serialpos": 19, "key_press": -1, "wordID": 1116, "type": "PRES_AUD", "trial_index": 108}, "uniqueid": "MTK3126:3A4TN5196LPZLWMOJMZ9XOLN4KSCHH", "dateTime": 1520029032031}, {"current_trial": 109, "trialdata": {"rt": -1000, "trial_type": "single-audio", "word": "spouse", "stimulus": "/static/audio/wordpool/SPOUSE.wav", "conditions": [24, 1600, "a", 12000], "internal_node_id": "0.0-82.0", "trial": 2, "time_elapsed": 593091, "serialpos": 20, "key_press": -1, "wordID": 1357, "type": "PRES_AUD", "trial_index": 109}, "uniqueid": "MTK3126:3A4TN5196LPZLWMOJMZ9XOLN4KSCHH", "dateTime": 1520029034640}, {"current_trial": 110, "trialdata": {"rt": -1000, "trial_type": "single-audio", "word": "marrow", "stimulus": "/static/audio/wordpool/MARROW.wav", "conditions": [24, 1600, "a", 12000], "internal_node_id": "0.0-83.0", "trial": 2, "time_elapsed": 595541, "serialpos": 21, "key_press": -1, "wordID": 871, "type": "PRES_AUD", "trial_index": 110}, "uniqueid": "MTK3126:3A4TN5196LPZLWMOJMZ9XOLN4KSCHH", "dateTime": 1520029037091}, {"current_trial": 111, "trialdata": {"rt": -1000, "trial_type": "single-audio", "word": "branch", "stimulus": "/static/audio/wordpool/BRANCH.wav", "conditions": [24, 1600, "a", 12000], "internal_node_id": "0.0-84.0", "trial": 2, "time_elapsed": 598160, "serialpos": 22, "key_press": -1, "wordID": 167, "type": "PRES_AUD", "trial_index": 111}, "uniqueid": "MTK3126:3A4TN5196LPZLWMOJMZ9XOLN4KSCHH", "dateTime": 1520029039710}, {"current_trial": 112, "trialdata": {"rt": -1000, "trial_type": "single-audio", "word": "bank", "stimulus": "/static/audio/wordpool/BANK.wav", "conditions": [24, 1600, "a", 12000], "internal_node_id": "0.0-85.0", "trial": 2, "time_elapsed": 600816, "serialpos": 23, "key_press": -1, "wordID": 82, "type": "PRES_AUD", "trial_index": 112}, "uniqueid": "MTK3126:3A4TN5196LPZLWMOJMZ9XOLN4KSCHH", "dateTime": 1520029042366}, {"current_trial": 113, "trialdata": {"rt": -1, "trial_type": "single-stim", "stimulus": "", "internal_node_id": "0.0-86.0-0.0", "time_elapsed": 602172, "key_press": -1, "type": "PRE_RECALL_DELAY", "trial_index": 113}, "uniqueid": "MTK3126:3A4TN5196LPZLWMOJMZ9XOLN4KSCHH", "dateTime": 1520029043722}, {"current_trial": 114, "trialdata": {"rt": -1000, "trial_type": "single-audio", "stimulus": "/static/audio/400Hz.wav", "internal_node_id": "0.0-87.0", "time_elapsed": 602682, "key_press": -1, "type": "PRE_RECALL_ALERT", "trial_index": 114}, "uniqueid": "MTK3126:3A4TN5196LPZLWMOJMZ9XOLN4KSCHH", "dateTime": 1520029044231}, {"current_trial": 115, "trialdata": {"rt": [3370, 6378, 8290, 11642, 15650, 17953, 23826, 27266, 30778, 35778, 48970, 52753], "recwords": ["hero", "apple", "onion", "yogurt", "hero", "lover", "lipstick", "jelly", "yellow", "sister", "floss", "dentist"], "key_times": [1740, 2092, 2267, 2803, 3370, 3947, 4755, 5003, 5228, 5627, 6378, 6779, 7075, 7347, 7555, 7819, 8290, 9075, 9563, 9971, 10206, 10525, 10691, 11642, 13979, 14369, 14561, 15124, 15650, 16092, 16275, 16667, 16955, 17147, 17953, 18435, 19882, 20627, 21315, 21707, 22275, 22611, 23147, 23826, 24843, 25251, 26115, 26268, 26555, 27266, 28171, 28523, 29091, 29251, 29435, 29851, 30778, 33179, 33764, 34158, 34563, 34843, 35018, 35778, 46995, 47547, 47715, 48115, 48267, 48970, 49483, 49692, 50411, 50731, 51230, 51611, 51955, 52753], "trial_type": "free-recall", "conditions": [24, 1600, "a", 12000], "internal_node_id": "0.0-88.0-0.0", "key_presses": [72, 69, 82, 79, 13, 65, 80, 80, 76, 69, 13, 79, 78, 73, 79, 78, 13, 89, 79, 71, 85, 82, 84, 13, 72, 69, 82, 79, 13, 76, 79, 86, 69, 82, 13, 76, 73, 80, 83, 84, 73, 67, 75, 13, 74, 69, 76, 76, 89, 13, 89, 69, 76, 76, 79, 87, 13, 83, 73, 83, 84, 69, 82, 13, 70, 76, 79, 83, 83, 13, 68, 69, 78, 84, 73, 83, 84, 13], "trial": 2, "time_elapsed": 662696, "type": "FREE_RECALL", "trial_index": 115}, "uniqueid": "MTK3126:3A4TN5196LPZLWMOJMZ9XOLN4KSCHH", "dateTime": 1520029104254}, {"current_trial": 116, "trialdata": {"rt": 1685, "trial_type": "text", "internal_node_id": "0.0-89.0", "time_elapsed": 666403, "key_press": 32, "type": "INSTRUCTIONS", "trial_index": 116}, "uniqueid": "MTK3126:3A4TN5196LPZLWMOJMZ9XOLN4KSCHH", "dateTime": 1520029107952}, {"current_trial": 117, "trialdata": {"rt": [2819, 7530, 9698, 11602], "trial_type": "math-distractor", "key_times": [1628, 1940, 2819, 6788, 7060, 7530, 9323, 9698, 11012, 11228, 11602], "responses": ["17", "20", "9", "11"], "num2": [5, 3, 2, 3, 4], "num3": [7, 9, 2, 4, 7], "conditions": [24, 800, "a", 12000], "internal_node_id": "0.0-90.0", "key_presses": [97, 103, 13, 98, 96, 13, 105, 13, 97, 97, 13], "trial": 3, "time_elapsed": 680431, "type": "DISTRACTOR", "trial_index": 117, "num1": [5, 8, 5, 4, 9]}, "uniqueid": "MTK3126:3A4TN5196LPZLWMOJMZ9XOLN4KSCHH", "dateTime": 1520029121980}, {"current_trial": 118, "trialdata": {"rt": -1, "trial_type": "single-stim", "stimulus": "<p id=\"stim\">10</p>", "internal_node_id": "0.0-91.0-0.0", "time_elapsed": 683450, "key_press": -1, "trial_index": 118}, "uniqueid": "MTK3126:3A4TN5196LPZLWMOJMZ9XOLN4KSCHH", "dateTime": 1520029124999}, {"current_trial": 119, "trialdata": {"rt": -1, "trial_type": "single-stim", "stimulus": "<p id=\"stim\">9</p>", "internal_node_id": "0.0-91.0-1.0", "time_elapsed": 684453, "key_press": -1, "trial_index": 119}, "uniqueid": "MTK3126:3A4TN5196LPZLWMOJMZ9XOLN4KSCHH", "dateTime": 1520029126002}, {"current_trial": 120, "trialdata": {"rt": -1, "trial_type": "single-stim", "stimulus": "<p id=\"stim\">8</p>", "internal_node_id": "0.0-91.0-2.0", "time_elapsed": 685456, "key_press": -1, "trial_index": 120}, "uniqueid": "MTK3126:3A4TN5196LPZLWMOJMZ9XOLN4KSCHH", "dateTime": 1520029127005}, {"current_trial": 121, "trialdata": {"rt": -1, "trial_type": "single-stim", "stimulus": "<p id=\"stim\">7</p>", "internal_node_id": "0.0-91.0-3.0", "time_elapsed": 686461, "key_press": -1, "trial_index": 121}, "uniqueid": "MTK3126:3A4TN5196LPZLWMOJMZ9XOLN4KSCHH", "dateTime": 1520029128010}, {"current_trial": 122, "trialdata": {"rt": -1, "trial_type": "single-stim", "stimulus": "<p id=\"stim\">6</p>", "internal_node_id": "0.0-91.0-4.0", "time_elapsed": 687462, "key_press": -1, "trial_index": 122}, "uniqueid": "MTK3126:3A4TN5196LPZLWMOJMZ9XOLN4KSCHH", "dateTime": 1520029129012}, {"current_trial": 123, "trialdata": {"rt": -1, "trial_type": "single-stim", "stimulus": "<p id=\"stim\">5</p>", "internal_node_id": "0.0-91.0-5.0", "time_elapsed": 688465, "key_press": -1, "trial_index": 123}, "uniqueid": "MTK3126:3A4TN5196LPZLWMOJMZ9XOLN4KSCHH", "dateTime": 1520029130014}, {"current_trial": 124, "trialdata": {"rt": -1, "trial_type": "single-stim", "stimulus": "<p id=\"stim\">4</p>", "internal_node_id": "0.0-91.0-6.0", "time_elapsed": 689471, "key_press": -1, "trial_index": 124}, "uniqueid": "MTK3126:3A4TN5196LPZLWMOJMZ9XOLN4KSCHH", "dateTime": 1520029131020}, {"current_trial": 125, "trialdata": {"rt": -1, "trial_type": "single-stim", "stimulus": "<p id=\"stim\">3</p>", "internal_node_id": "0.0-91.0-7.0", "time_elapsed": 690477, "key_press": -1, "trial_index": 125}, "uniqueid": "MTK3126:3A4TN5196LPZLWMOJMZ9XOLN4KSCHH", "dateTime": 1520029132026}, {"current_trial": 126, "trialdata": {"rt": -1, "trial_type": "single-stim", "stimulus": "<p id=\"stim\">2</p>", "internal_node_id": "0.0-91.0-8.0", "time_elapsed": 691480, "key_press": -1, "trial_index": 126}, "uniqueid": "MTK3126:3A4TN5196LPZLWMOJMZ9XOLN4KSCHH", "dateTime": 1520029133029}, {"current_trial": 127, "trialdata": {"rt": -1, "trial_type": "single-stim", "stimulus": "<p id=\"stim\">1</p>", "internal_node_id": "0.0-91.0-9.0", "time_elapsed": 692497, "key_press": -1, "trial_index": 127}, "uniqueid": "MTK3126:3A4TN5196LPZLWMOJMZ9XOLN4KSCHH", "dateTime": 1520029134046}, {"current_trial": 128, "trialdata": {"rt": -1, "trial_type": "single-stim", "stimulus": "<p id=\"stim\">+</p>", "internal_node_id": "0.0-92.0-0.0", "time_elapsed": 694008, "key_press": -1, "type": "FIXATION", "trial_index": 128}, "uniqueid": "MTK3126:3A4TN5196LPZLWMOJMZ9XOLN4KSCHH", "dateTime": 1520029135558}, {"current_trial": 129, "trialdata": {"rt": -1000, "trial_type": "single-audio", "word": "pistol", "stimulus": "/static/audio/wordpool/PISTOL.wav", "conditions": [24, 800, "a", 12000], "internal_node_id": "0.0-93.0", "trial": 3, "time_elapsed": 695646, "serialpos": 0, "key_press": -1, "wordID": 1074, "type": "PRES_AUD", "trial_index": 129}, "uniqueid": "MTK3126:3A4TN5196LPZLWMOJMZ9XOLN4KSCHH", "dateTime": 1520029137196}, {"current_trial": 130, "trialdata": {"rt": -1000, "trial_type": "single-audio", "word": "motel", "stimulus": "/static/audio/wordpool/MOTEL.wav", "conditions": [24, 800, "a", 12000], "internal_node_id": "0.0-94.0", "trial": 3, "time_elapsed": 697517, "serialpos": 1, "key_press": -1, "wordID": 918, "type": "PRES_AUD", "trial_index": 130}, "uniqueid": "MTK3126:3A4TN5196LPZLWMOJMZ9XOLN4KSCHH", "dateTime": 1520029139066}, {"current_trial": 131, "trialdata": {"rt": -1000, "trial_type": "single-audio", "word": "outfit", "stimulus": "/static/audio/wordpool/OUTFIT.wav", "conditions": [24, 800, "a", 12000], "internal_node_id": "0.0-95.0", "trial": 3, "time_elapsed": 699367, "serialpos": 2, "key_press": -1, "wordID": 987, "type": "PRES_AUD", "trial_index": 131}, "uniqueid": "MTK3126:3A4TN5196LPZLWMOJMZ9XOLN4KSCHH", "dateTime": 1520029140917}, {"current_trial": 132, "trialdata": {"rt": -1000, "trial_type": "single-audio", "word": "harp", "stimulus": "/static/audio/wordpool/HARP.wav", "conditions": [24, 800, "a", 12000], "internal_node_id": "0.0-96.0", "trial": 3, "time_elapsed": 701251, "serialpos": 3, "key_press": -1, "wordID": 688, "type": "PRES_AUD", "trial_index": 132}, "uniqueid": "MTK3126:3A4TN5196LPZLWMOJMZ9XOLN4KSCHH", "dateTime": 1520029142801}, {"current_trial": 133, "trialdata": {"rt": -1000, "trial_type": "single-audio", "word": "mister", "stimulus": "/static/audio/wordpool/MISTER.wav", "conditions": [24, 800, "a", 12000], "internal_node_id": "0.0-97.0", "trial": 3, "time_elapsed": 702855, "serialpos": 4, "key_press": -1, "wordID": 900, "type": "PRES_AUD", "trial_index": 133}, "uniqueid": "MTK3126:3A4TN5196LPZLWMOJMZ9XOLN4KSCHH", "dateTime": 1520029144405}, {"current_trial": 134, "trialdata": {"rt": -1000, "trial_type": "single-audio", "word": "knife", "stimulus": "/static/audio/wordpool/KNIFE.wav", "conditions": [24, 800, "a", 12000], "internal_node_id": "0.0-98.0", "trial": 3, "time_elapsed": 704616, "serialpos": 5, "key_press": -1, "wordID": 784, "type": "PRES_AUD", "trial_index": 134}, "uniqueid": "MTK3126:3A4TN5196LPZLWMOJMZ9XOLN4KSCHH", "dateTime": 1520029146166}, {"current_trial": 135, "trialdata": {"rt": -1000, "trial_type": "single-audio", "word": "hound", "stimulus": "/static/audio/wordpool/HOUND.wav", "conditions": [24, 800, "a", 12000], "internal_node_id": "0.0-99.0", "trial": 3, "time_elapsed": 706237, "serialpos": 6, "key_press": -1, "wordID": 723, "type": "PRES_AUD", "trial_index": 135}, "uniqueid": "MTK3126:3A4TN5196LPZLWMOJMZ9XOLN4KSCHH", "dateTime": 1520029147786}, {"current_trial": 136, "trialdata": {"rt": -1000, "trial_type": "single-audio", "word": "garden", "stimulus": "/static/audio/wordpool/GARDEN.wav", "conditions": [24, 800, "a", 12000], "internal_node_id": "0.0-100.0", "trial": 3, "time_elapsed": 708149, "serialpos": 7, "key_press": -1, "wordID": 622, "type": "PRES_AUD", "trial_index": 136}, "uniqueid": "MTK3126:3A4TN5196LPZLWMOJMZ9XOLN4KSCHH", "dateTime": 1520029149698}, {"current_trial": 137, "trialdata": {"rt": -1000, "trial_type": "single-audio", "word": "sticker", "stimulus": "/static/audio/wordpool/STICKER.wav", "conditions": [24, 800, "a", 12000], "internal_node_id": "0.0-101.0", "trial": 3, "time_elapsed": 709788, "serialpos": 8, "key_press": -1, "wordID": 1381, "type": "PRES_AUD", "trial_index": 137}, "uniqueid": "MTK3126:3A4TN5196LPZLWMOJMZ9XOLN4KSCHH", "dateTime": 1520029151337}, {"current_trial": 138, "trialdata": {"rt": -1000, "trial_type": "single-audio", "word": "badge", "stimulus": "/static/audio/wordpool/BADGE.wav", "conditions": [24, 800, "a", 12000], "internal_node_id": "0.0-102.0", "trial": 3, "time_elapsed": 711426, "serialpos": 9, "key_press": -1, "wordID": 67, "type": "PRES_AUD", "trial_index": 138}, "uniqueid": "MTK3126:3A4TN5196LPZLWMOJMZ9XOLN4KSCHH", "dateTime": 1520029152975}, {"current_trial": 139, "trialdata": {"rt": -1000, "trial_type": "single-audio", "word": "pasta", "stimulus": "/static/audio/wordpool/PASTA.wav", "conditions": [24, 800, "a", 12000], "internal_node_id": "0.0-103.0", "trial": 3, "time_elapsed": 713297, "serialpos": 10, "key_press": -1, "wordID": 1020, "type": "PRES_AUD", "trial_index": 139}, "uniqueid": "MTK3126:3A4TN5196LPZLWMOJMZ9XOLN4KSCHH", "dateTime": 1520029154846}, {"current_trial": 140, "trialdata": {"rt": -1000, "trial_type": "single-audio", "word": "neutron", "stimulus": "/static/audio/wordpool/NEUTRON.wav", "conditions": [24, 800, "a", 12000], "internal_node_id": "0.0-104.0", "trial": 3, "time_elapsed": 715302, "serialpos": 11, "key_press": -1, "wordID": 946, "type": "PRES_AUD", "trial_index": 140}, "uniqueid": "MTK3126:3A4TN5196LPZLWMOJMZ9XOLN4KSCHH", "dateTime": 1520029156851}, {"current_trial": 141, "trialdata": {"rt": -1000, "trial_type": "single-audio", "word": "creature", "stimulus": "/static/audio/wordpool/CREATURE.wav", "conditions": [24, 800, "a", 12000], "internal_node_id": "0.0-105.0", "trial": 3, "time_elapsed": 717170, "serialpos": 12, "key_press": -1, "wordID": 402, "type": "PRES_AUD", "trial_index": 141}, "uniqueid": "MTK3126:3A4TN5196LPZLWMOJMZ9XOLN4KSCHH", "dateTime": 1520029158720}, {"current_trial": 142, "trialdata": {"rt": -1000, "trial_type": "single-audio", "word": "sidewalk", "stimulus": "/static/audio/wordpool/SIDEWALK.wav", "conditions": [24, 800, "a", 12000], "internal_node_id": "0.0-106.0", "trial": 3, "time_elapsed": 718933, "serialpos": 13, "key_press": -1, "wordID": 1302, "type": "PRES_AUD", "trial_index": 142}, "uniqueid": "MTK3126:3A4TN5196LPZLWMOJMZ9XOLN4KSCHH", "dateTime": 1520029160483}, {"current_trial": 143, "trialdata": {"rt": -1000, "trial_type": "single-audio", "word": "brick", "stimulus": "/static/audio/wordpool/BRICK.wav", "conditions": [24, 800, "a", 12000], "internal_node_id": "0.0-107.0", "trial": 3, "time_elapsed": 720555, "serialpos": 14, "key_press": -1, "wordID": 171, "type": "PRES_AUD", "trial_index": 143}, "uniqueid": "MTK3126:3A4TN5196LPZLWMOJMZ9XOLN4KSCHH", "dateTime": 1520029162104}, {"current_trial": 144, "trialdata": {"rt": -1000, "trial_type": "single-audio", "word": "slime", "stimulus": "/static/audio/wordpool/SLIME.wav", "conditions": [24, 800, "a", 12000], "internal_node_id": "0.0-108.0", "trial": 3, "time_elapsed": 722240, "serialpos": 15, "key_press": -1, "wordID": 1326, "type": "PRES_AUD", "trial_index": 144}, "uniqueid": "MTK3126:3A4TN5196LPZLWMOJMZ9XOLN4KSCHH", "dateTime": 1520029163790}, {"current_trial": 145, "trialdata": {"rt": -1000, "trial_type": "single-audio", "word": "kidney", "stimulus": "/static/audio/wordpool/KIDNEY.wav", "conditions": [24, 800, "a", 12000], "internal_node_id": "0.0-109.0", "trial": 3, "time_elapsed": 724219, "serialpos": 16, "key_press": -1, "wordID": 775, "type": "PRES_AUD", "trial_index": 145}, "uniqueid": "MTK3126:3A4TN5196LPZLWMOJMZ9XOLN4KSCHH", "dateTime": 1520029165769}, {"current_trial": 146, "trialdata": {"rt": -1000, "trial_type": "single-audio", "word": "kitchen", "stimulus": "/static/audio/wordpool/KITCHEN.wav", "conditions": [24, 800, "a", 12000], "internal_node_id": "0.0-110.0", "trial": 3, "time_elapsed": 726146, "serialpos": 17, "key_press": -1, "wordID": 777, "type": "PRES_AUD", "trial_index": 146}, "uniqueid": "MTK3126:3A4TN5196LPZLWMOJMZ9XOLN4KSCHH", "dateTime": 1520029167695}, {"current_trial": 147, "trialdata": {"rt": -1000, "trial_type": "single-audio", "word": "hood", "stimulus": "/static/audio/wordpool/HOOD.wav", "conditions": [24, 800, "a", 12000], "internal_node_id": "0.0-111.0", "trial": 3, "time_elapsed": 727920, "serialpos": 18, "key_press": -1, "wordID": 713, "type": "PRES_AUD", "trial_index": 147}, "uniqueid": "MTK3126:3A4TN5196LPZLWMOJMZ9XOLN4KSCHH", "dateTime": 1520029169470}, {"current_trial": 148, "trialdata": {"rt": -1000, "trial_type": "single-audio", "word": "flashlight", "stimulus": "/static/audio/wordpool/FLASHLIGHT.wav", "conditions": [24, 800, "a", 12000], "internal_node_id": "0.0-112.0", "trial": 3, "time_elapsed": 729817, "serialpos": 19, "key_press": -1, "wordID": 574, "type": "PRES_AUD", "trial_index": 148}, "uniqueid": "MTK3126:3A4TN5196LPZLWMOJMZ9XOLN4KSCHH", "dateTime": 1520029171367}, {"current_trial": 149, "trialdata": {"rt": -1000, "trial_type": "single-audio", "word": "machine", "stimulus": "/static/audio/wordpool/MACHINE.wav", "conditions": [24, 800, "a", 12000], "internal_node_id": "0.0-113.0", "trial": 3, "time_elapsed": 731622, "serialpos": 20, "key_press": -1, "wordID": 851, "type": "PRES_AUD", "trial_index": 149}, "uniqueid": "MTK3126:3A4TN5196LPZLWMOJMZ9XOLN4KSCHH", "dateTime": 1520029173172}, {"current_trial": 150, "trialdata": {"rt": -1000, "trial_type": "single-audio", "word": "liver", "stimulus": "/static/audio/wordpool/LIVER.wav", "conditions": [24, 800, "a", 12000], "internal_node_id": "0.0-114.0", "trial": 3, "time_elapsed": 733363, "serialpos": 21, "key_press": -1, "wordID": 832, "type": "PRES_AUD", "trial_index": 150}, "uniqueid": "MTK3126:3A4TN5196LPZLWMOJMZ9XOLN4KSCHH", "dateTime": 1520029174912}, {"current_trial": 151, "trialdata": {"rt": -1000, "trial_type": "single-audio", "word": "salmon", "stimulus": "/static/audio/wordpool/SALMON.wav", "conditions": [24, 800, "a", 12000], "internal_node_id": "0.0-115.0", "trial": 3, "time_elapsed": 735357, "serialpos": 22, "key_press": -1, "wordID": 1226, "type": "PRES_AUD", "trial_index": 151}, "uniqueid": "MTK3126:3A4TN5196LPZLWMOJMZ9XOLN4KSCHH", "dateTime": 1520029176907}, {"current_trial": 152, "trialdata": {"rt": -1000, "trial_type": "single-audio", "word": "seafood", "stimulus": "/static/audio/wordpool/SEAFOOD.wav", "conditions": [24, 800, "a", 12000], "internal_node_id": "0.0-116.0", "trial": 3, "time_elapsed": 737174, "serialpos": 23, "key_press": -1, "wordID": 1259, "type": "PRES_AUD", "trial_index": 152}, "uniqueid": "MTK3126:3A4TN5196LPZLWMOJMZ9XOLN4KSCHH", "dateTime": 1520029178723}, {"current_trial": 153, "trialdata": {"rt": -1, "trial_type": "single-stim", "stimulus": "", "internal_node_id": "0.0-117.0-0.0", "time_elapsed": 738427, "key_press": -1, "type": "PRE_RECALL_DELAY", "trial_index": 153}, "uniqueid": "MTK3126:3A4TN5196LPZLWMOJMZ9XOLN4KSCHH", "dateTime": 1520029179976}, {"current_trial": 154, "trialdata": {"rt": -1000, "trial_type": "single-audio", "stimulus": "/static/audio/400Hz.wav", "internal_node_id": "0.0-118.0", "time_elapsed": 738937, "key_press": -1, "type": "PRE_RECALL_ALERT", "trial_index": 154}, "uniqueid": "MTK3126:3A4TN5196LPZLWMOJMZ9XOLN4KSCHH", "dateTime": 1520029180486}, {"current_trial": 155, "trialdata": {"rt": [4482, 7178, 10938, 13826, 16474, 19442, 22218, 30074, 35842, 47322, 49562], "recwords": ["seafood", "salmon", "liver", "kitchen", "slime", "sidewalk", "motel", "night", "pasta", "outfit", "heart"], "key_times": [1172, 1883, 2099, 2684, 3100, 3259, 3611, 4482, 5291, 5467, 5995, 6251, 6499, 6739, 7178, 8619, 9331, 9715, 10012, 10163, 10938, 11331, 11523, 11827, 12115, 12395, 12683, 13452, 13826, 14396, 14867, 15099, 15315, 15651, 16474, 16971, 17443, 17804, 18004, 18195, 18379, 18835, 19043, 19442, 20315, 20619, 21011, 21267, 21763, 22218, 28292, 28659, 28948, 29150, 29339, 30074, 33907, 34330, 34555, 34843, 35139, 35842, 45292, 45611, 45843, 46091, 46587, 46891, 47322, 47835, 48179, 48403, 48699, 48899, 49562], "trial_type": "free-recall", "conditions": [24, 800, "a", 12000], "internal_node_id": "0.0-119.0-0.0", "key_presses": [83, 69, 65, 70, 79, 79, 68, 13, 83, 65, 76, 77, 79, 78, 13, 76, 73, 86, 69, 82, 13, 75, 73, 84, 67, 72, 69, 78, 13, 83, 76, 73, 77, 69, 13, 83, 73, 68, 69, 87, 65, 76, 75, 13, 77, 79, 84, 69, 76, 13, 78, 73, 71, 72, 84, 13, 80, 65, 83, 84, 65, 13, 79, 85, 84, 70, 73, 84, 13, 72, 69, 65, 82, 84, 13], "trial": 3, "time_elapsed": 798952, "type": "FREE_RECALL", "trial_index": 155}, "uniqueid": "MTK3126:3A4TN5196LPZLWMOJMZ9XOLN4KSCHH", "dateTime": 1520029240509}, {"current_trial": 156, "trialdata": {"rt": 49064, "trial_type": "text", "internal_node_id": "0.0-120.0", "time_elapsed": 850035, "key_press": 32, "type": "INSTRUCTIONS", "trial_index": 156}, "uniqueid": "MTK3126:3A4TN5196LPZLWMOJMZ9XOLN4KSCHH", "dateTime": 1520029291585}, {"current_trial": 157, "trialdata": {"rt": [2441, 4993, 6753], "trial_type": "math-distractor", "key_times": [1730, 1954, 2441, 4451, 4690, 4993, 6347, 6498, 6753], "responses": ["14", "16", "11"], "num2": [1, 8, 3, 6], "num3": [6, 5, 4, 9], "conditions": [12, 1600, "a", 12000], "internal_node_id": "0.0-121.0", "key_presses": [97, 100, 13, 97, 102, 13, 97, 97, 13], "trial": 4, "time_elapsed": 864063, "type": "DISTRACTOR", "trial_index": 157, "num1": [7, 3, 4, 8]}, "uniqueid": "MTK3126:3A4TN5196LPZLWMOJMZ9XOLN4KSCHH", "dateTime": 1520029305612}, {"current_trial": 158, "trialdata": {"rt": -1, "trial_type": "single-stim", "stimulus": "<p id=\"stim\">10</p>", "internal_node_id": "0.0-122.0-0.0", "time_elapsed": 867072, "key_press": -1, "trial_index": 158}, "uniqueid": "MTK3126:3A4TN5196LPZLWMOJMZ9XOLN4KSCHH", "dateTime": 1520029308622}, {"current_trial": 159, "trialdata": {"rt": -1, "trial_type": "single-stim", "stimulus": "<p id=\"stim\">9</p>", "internal_node_id": "0.0-122.0-1.0", "time_elapsed": 868076, "key_press": -1, "trial_index": 159}, "uniqueid": "MTK3126:3A4TN5196LPZLWMOJMZ9XOLN4KSCHH", "dateTime": 1520029309625}, {"current_trial": 160, "trialdata": {"rt": -1, "trial_type": "single-stim", "stimulus": "<p id=\"stim\">8</p>", "internal_node_id": "0.0-122.0-2.0", "time_elapsed": 869078, "key_press": -1, "trial_index": 160}, "uniqueid": "MTK3126:3A4TN5196LPZLWMOJMZ9XOLN4KSCHH", "dateTime": 1520029310627}, {"current_trial": 161, "trialdata": {"rt": -1, "trial_type": "single-stim", "stimulus": "<p id=\"stim\">7</p>", "internal_node_id": "0.0-122.0-3.0", "time_elapsed": 870079, "key_press": -1, "trial_index": 161}, "uniqueid": "MTK3126:3A4TN5196LPZLWMOJMZ9XOLN4KSCHH", "dateTime": 1520029311629}, {"current_trial": 162, "trialdata": {"rt": -1, "trial_type": "single-stim", "stimulus": "<p id=\"stim\">6</p>", "internal_node_id": "0.0-122.0-4.0", "time_elapsed": 871083, "key_press": -1, "trial_index": 162}, "uniqueid": "MTK3126:3A4TN5196LPZLWMOJMZ9XOLN4KSCHH", "dateTime": 1520029312633}, {"current_trial": 163, "trialdata": {"rt": -1, "trial_type": "single-stim", "stimulus": "<p id=\"stim\">5</p>", "internal_node_id": "0.0-122.0-5.0", "time_elapsed": 872099, "key_press": -1, "trial_index": 163}, "uniqueid": "MTK3126:3A4TN5196LPZLWMOJMZ9XOLN4KSCHH", "dateTime": 1520029313648}, {"current_trial": 164, "trialdata": {"rt": -1, "trial_type": "single-stim", "stimulus": "<p id=\"stim\">4</p>", "internal_node_id": "0.0-122.0-6.0", "time_elapsed": 873100, "key_press": -1, "trial_index": 164}, "uniqueid": "MTK3126:3A4TN5196LPZLWMOJMZ9XOLN4KSCHH", "dateTime": 1520029314650}, {"current_trial": 165, "trialdata": {"rt": -1, "trial_type": "single-stim", "stimulus": "<p id=\"stim\">3</p>", "internal_node_id": "0.0-122.0-7.0", "time_elapsed": 874103, "key_press": -1, "trial_index": 165}, "uniqueid": "MTK3126:3A4TN5196LPZLWMOJMZ9XOLN4KSCHH", "dateTime": 1520029315652}, {"current_trial": 166, "trialdata": {"rt": -1, "trial_type": "single-stim", "stimulus": "<p id=\"stim\">2</p>", "internal_node_id": "0.0-122.0-8.0", "time_elapsed": 875105, "key_press": -1, "trial_index": 166}, "uniqueid": "MTK3126:3A4TN5196LPZLWMOJMZ9XOLN4KSCHH", "dateTime": 1520029316654}, {"current_trial": 167, "trialdata": {"rt": -1, "trial_type": "single-stim", "stimulus": "<p id=\"stim\">1</p>", "internal_node_id": "0.0-122.0-9.0", "time_elapsed": 876108, "key_press": -1, "trial_index": 167}, "uniqueid": "MTK3126:3A4TN5196LPZLWMOJMZ9XOLN4KSCHH", "dateTime": 1520029317657}, {"current_trial": 168, "trialdata": {"rt": -1, "trial_type": "single-stim", "stimulus": "<p id=\"stim\">+</p>", "internal_node_id": "0.0-123.0-0.0", "time_elapsed": 877619, "key_press": -1, "type": "FIXATION", "trial_index": 168}, "uniqueid": "MTK3126:3A4TN5196LPZLWMOJMZ9XOLN4KSCHH", "dateTime": 1520029319168}, {"current_trial": 169, "trialdata": {"rt": -1000, "trial_type": "single-audio", "word": "lava", "stimulus": "/static/audio/wordpool/LAVA.wav", "conditions": [12, 1600, "a", 12000], "internal_node_id": "0.0-124.0", "trial": 4, "time_elapsed": 880186, "serialpos": 0, "key_press": -1, "wordID": 803, "type": "PRES_AUD", "trial_index": 169}, "uniqueid": "MTK3126:3A4TN5196LPZLWMOJMZ9XOLN4KSCHH", "dateTime": 1520029321735}, {"current_trial": 170, "trialdata": {"rt": -1000, "trial_type": "single-audio", "word": "parent", "stimulus": "/static/audio/wordpool/PARENT.wav", "conditions": [12, 1600, "a", 12000], "internal_node_id": "0.0-125.0", "trial": 4, "time_elapsed": 882909, "serialpos": 1, "key_press": -1, "wordID": 1012, "type": "PRES_AUD", "trial_index": 170}, "uniqueid": "MTK3126:3A4TN5196LPZLWMOJMZ9XOLN4KSCHH", "dateTime": 1520029324458}, {"current_trial": 171, "trialdata": {"rt": -1000, "trial_type": "single-audio", "word": "sponge", "stimulus": "/static/audio/wordpool/SPONGE.wav", "conditions": [12, 1600, "a", 12000], "internal_node_id": "0.0-126.0", "trial": 4, "time_elapsed": 885430, "serialpos": 2, "key_press": -1, "wordID": 1354, "type": "PRES_AUD", "trial_index": 171}, "uniqueid": "MTK3126:3A4TN5196LPZLWMOJMZ9XOLN4KSCHH", "dateTime": 1520029326980}, {"current_trial": 172, "trialdata": {"rt": -1000, "trial_type": "single-audio", "word": "beaker", "stimulus": "/static/audio/wordpool/BEAKER.wav", "conditions": [12, 1600, "a", 12000], "internal_node_id": "0.0-127.0", "trial": 4, "time_elapsed": 888090, "serialpos": 3, "key_press": -1, "wordID": 103, "type": "PRES_AUD", "trial_index": 172}, "uniqueid": "MTK3126:3A4TN5196LPZLWMOJMZ9XOLN4KSCHH", "dateTime": 1520029329639}, {"current_trial": 173, "trialdata": {"rt": -1000, "trial_type": "single-audio", "word": "missile", "stimulus": "/static/audio/wordpool/MISSILE.wav", "conditions": [12, 1600, "a", 12000], "internal_node_id": "0.0-128.0", "trial": 4, "time_elapsed": 890633, "serialpos": 4, "key_press": -1, "wordID": 899, "type": "PRES_AUD", "trial_index": 173}, "uniqueid": "MTK3126:3A4TN5196LPZLWMOJMZ9XOLN4KSCHH", "dateTime": 1520029332183}, {"current_trial": 174, "trialdata": {"rt": -1000, "trial_type": "single-audio", "word": "antler", "stimulus": "/static/audio/wordpool/ANTLER.wav", "conditions": [12, 1600, "a", 12000], "internal_node_id": "0.0-129.0", "trial": 4, "time_elapsed": 893272, "serialpos": 5, "key_press": -1, "wordID": 28, "type": "PRES_AUD", "trial_index": 174}, "uniqueid": "MTK3126:3A4TN5196LPZLWMOJMZ9XOLN4KSCHH", "dateTime": 1520029334822}, {"current_trial": 175, "trialdata": {"rt": -1000, "trial_type": "single-audio", "word": "shelf", "stimulus": "/static/audio/wordpool/SHELF.wav", "conditions": [12, 1600, "a", 12000], "internal_node_id": "0.0-130.0", "trial": 4, "time_elapsed": 895971, "serialpos": 6, "key_press": -1, "wordID": 1279, "type": "PRES_AUD", "trial_index": 175}, "uniqueid": "MTK3126:3A4TN5196LPZLWMOJMZ9XOLN4KSCHH", "dateTime": 1520029337521}, {"current_trial": 176, "trialdata": {"rt": -1000, "trial_type": "single-audio", "word": "wrench", "stimulus": "/static/audio/wordpool/WRENCH.wav", "conditions": [12, 1600, "a", 12000], "internal_node_id": "0.0-131.0", "trial": 4, "time_elapsed": 898486, "serialpos": 7, "key_press": -1, "wordID": 1624, "type": "PRES_AUD", "trial_index": 176}, "uniqueid": "MTK3126:3A4TN5196LPZLWMOJMZ9XOLN4KSCHH", "dateTime": 1520029340035}, {"current_trial": 177, "trialdata": {"rt": -1000, "trial_type": "single-audio", "word": "crater", "stimulus": "/static/audio/wordpool/CRATER.wav", "conditions": [12, 1600, "a", 12000], "internal_node_id": "0.0-132.0", "trial": 4, "time_elapsed": 901264, "serialpos": 8, "key_press": -1, "wordID": 399, "type": "PRES_AUD", "trial_index": 177}, "uniqueid": "MTK3126:3A4TN5196LPZLWMOJMZ9XOLN4KSCHH", "dateTime": 1520029342814}, {"current_trial": 178, "trialdata": {"rt": -1000, "trial_type": "single-audio", "word": "puppy", "stimulus": "/static/audio/wordpool/PUPPY.wav", "conditions": [12, 1600, "a", 12000], "internal_node_id": "0.0-133.0", "trial": 4, "time_elapsed": 904045, "serialpos": 9, "key_press": -1, "wordID": 1143, "type": "PRES_AUD", "trial_index": 178}, "uniqueid": "MTK3126:3A4TN5196LPZLWMOJMZ9XOLN4KSCHH", "dateTime": 1520029345594}, {"current_trial": 179, "trialdata": {"rt": -1000, "trial_type": "single-audio", "word": "soda", "stimulus": "/static/audio/wordpool/SODA.wav", "conditions": [12, 1600, "a", 12000], "internal_node_id": "0.0-134.0", "trial": 4, "time_elapsed": 906635, "serialpos": 10, "key_press": -1, "wordID": 1340, "type": "PRES_AUD", "trial_index": 179}, "uniqueid": "MTK3126:3A4TN5196LPZLWMOJMZ9XOLN4KSCHH", "dateTime": 1520029348185}, {"current_trial": 180, "trialdata": {"rt": -1000, "trial_type": "single-audio", "word": "candy", "stimulus": "/static/audio/wordpool/CANDY.wav", "conditions": [12, 1600, "a", 12000], "internal_node_id": "0.0-135.0", "trial": 4, "time_elapsed": 909166, "serialpos": 11, "key_press": -1, "wordID": 229, "type": "PRES_AUD", "trial_index": 180}, "uniqueid": "MTK3126:3A4TN5196LPZLWMOJMZ9XOLN4KSCHH", "dateTime": 1520029350715}, {"current_trial": 181, "trialdata": {"rt": -1, "trial_type": "single-stim", "stimulus": "", "internal_node_id": "0.0-136.0-0.0", "time_elapsed": 910523, "key_press": -1, "type": "PRE_RECALL_DELAY", "trial_index": 181}, "uniqueid": "MTK3126:3A4TN5196LPZLWMOJMZ9XOLN4KSCHH", "dateTime": 1520029352073}, {"current_trial": 182, "trialdata": {"rt": -1000, "trial_type": "single-audio", "stimulus": "/static/audio/400Hz.wav", "internal_node_id": "0.0-137.0", "time_elapsed": 911032, "key_press": -1, "type": "PRE_RECALL_ALERT", "trial_index": 182}, "uniqueid": "MTK3126:3A4TN5196LPZLWMOJMZ9XOLN4KSCHH", "dateTime": 1520029352581}, {"current_trial": 183, "trialdata": {"rt": [6235, 9923, 16587, 24635, 28014], "recwords": ["antler", "partent", "candy", "sponge", "crator"], "key_times": [3197, 3884, 4156, 4692, 5148, 5332, 6235, 7308, 7812, 8156, 8164, 8348, 8868, 9117, 9923, 10436, 10724, 11468, 11780, 12140, 15292, 16196, 16587, 22068, 22740, 22980, 23260, 23564, 23820, 24635, 25468, 25732, 26004, 26308, 26796, 27164, 28014], "trial_type": "free-recall", "conditions": [12, 1600, "a", 12000], "internal_node_id": "0.0-138.0-0.0", "key_presses": [65, 78, 84, 76, 69, 82, 13, 80, 65, 82, 84, 69, 78, 84, 13, 67, 65, 78, 68, 85, 8, 89, 13, 83, 80, 79, 78, 71, 69, 13, 67, 82, 65, 84, 79, 82, 13], "trial": 4, "time_elapsed": 971040, "type": "FREE_RECALL", "trial_index": 183}, "uniqueid": "MTK3126:3A4TN5196LPZLWMOJMZ9XOLN4KSCHH", "dateTime": 1520029412598}, {"current_trial": 184, "trialdata": {"rt": 52240, "trial_type": "text", "internal_node_id": "0.0-139.0", "time_elapsed": 1025303, "key_press": 18, "type": "INSTRUCTIONS", "trial_index": 184}, "uniqueid": "MTK3126:3A4TN5196LPZLWMOJMZ9XOLN4KSCHH", "dateTime": 1520029466853}, {"current_trial": 185, "trialdata": {"rt": [3046, 5686, 7638, 9766, 12446], "trial_type": "math-distractor", "key_times": [2015, 2288, 3046, 5039, 5399, 5686, 6703, 7384, 7638, 9327, 9520, 9766, 11992, 12200, 12446], "responses": ["16", "13", "12", "12", "15"], "num2": [4, 2, 7, 3, 8, 7], "num3": [4, 9, 3, 4, 3, 9], "conditions": [12, 1600, "a", 24000], "internal_node_id": "0.0-140.0", "key_presses": [97, 102, 13, 97, 99, 13, 97, 98, 13, 97, 98, 13, 97, 101, 13], "trial": 5, "time_elapsed": 1051318, "type": "DISTRACTOR", "trial_index": 185, "num1": [4, 2, 2, 5, 4, 4]}, "uniqueid": "MTK3126:3A4TN5196LPZLWMOJMZ9XOLN4KSCHH", "dateTime": 1520029492867}, {"current_trial": 186, "trialdata": {"rt": -1, "trial_type": "single-stim", "stimulus": "<p id=\"stim\">10</p>", "internal_node_id": "0.0-141.0-0.0", "time_elapsed": 1054328, "key_press": -1, "trial_index": 186}, "uniqueid": "MTK3126:3A4TN5196LPZLWMOJMZ9XOLN4KSCHH", "dateTime": 1520029495877}, {"current_trial": 187, "trialdata": {"rt": -1, "trial_type": "single-stim", "stimulus": "<p id=\"stim\">9</p>", "internal_node_id": "0.0-141.0-1.0", "time_elapsed": 1055330, "key_press": -1, "trial_index": 187}, "uniqueid": "MTK3126:3A4TN5196LPZLWMOJMZ9XOLN4KSCHH", "dateTime": 1520029496879}, {"current_trial": 188, "trialdata": {"rt": -1, "trial_type": "single-stim", "stimulus": "<p id=\"stim\">8</p>", "internal_node_id": "0.0-141.0-2.0", "time_elapsed": 1056335, "key_press": -1, "trial_index": 188}, "uniqueid": "MTK3126:3A4TN5196LPZLWMOJMZ9XOLN4KSCHH", "dateTime": 1520029497884}, {"current_trial": 189, "trialdata": {"rt": -1, "trial_type": "single-stim", "stimulus": "<p id=\"stim\">7</p>", "internal_node_id": "0.0-141.0-3.0", "time_elapsed": 1057351, "key_press": -1, "trial_index": 189}, "uniqueid": "MTK3126:3A4TN5196LPZLWMOJMZ9XOLN4KSCHH", "dateTime": 1520029498900}, {"current_trial": 190, "trialdata": {"rt": -1, "trial_type": "single-stim", "stimulus": "<p id=\"stim\">6</p>", "internal_node_id": "0.0-141.0-4.0", "time_elapsed": 1058352, "key_press": -1, "trial_index": 190}, "uniqueid": "MTK3126:3A4TN5196LPZLWMOJMZ9XOLN4KSCHH", "dateTime": 1520029499902}, {"current_trial": 191, "trialdata": {"rt": -1, "trial_type": "single-stim", "stimulus": "<p id=\"stim\">5</p>", "internal_node_id": "0.0-141.0-5.0", "time_elapsed": 1059356, "key_press": -1, "trial_index": 191}, "uniqueid": "MTK3126:3A4TN5196LPZLWMOJMZ9XOLN4KSCHH", "dateTime": 1520029500905}, {"current_trial": 192, "trialdata": {"rt": -1, "trial_type": "single-stim", "stimulus": "<p id=\"stim\">4</p>", "internal_node_id": "0.0-141.0-6.0", "time_elapsed": 1060358, "key_press": -1, "trial_index": 192}, "uniqueid": "MTK3126:3A4TN5196LPZLWMOJMZ9XOLN4KSCHH", "dateTime": 1520029501908}, {"current_trial": 193, "trialdata": {"rt": -1, "trial_type": "single-stim", "stimulus": "<p id=\"stim\">3</p>", "internal_node_id": "0.0-141.0-7.0", "time_elapsed": 1061362, "key_press": -1, "trial_index": 193}, "uniqueid": "MTK3126:3A4TN5196LPZLWMOJMZ9XOLN4KSCHH", "dateTime": 1520029502911}, {"current_trial": 194, "trialdata": {"rt": -1, "trial_type": "single-stim", "stimulus": "<p id=\"stim\">2</p>", "internal_node_id": "0.0-141.0-8.0", "time_elapsed": 1062366, "key_press": -1, "trial_index": 194}, "uniqueid": "MTK3126:3A4TN5196LPZLWMOJMZ9XOLN4KSCHH", "dateTime": 1520029503915}, {"current_trial": 195, "trialdata": {"rt": -1, "trial_type": "single-stim", "stimulus": "<p id=\"stim\">1</p>", "internal_node_id": "0.0-141.0-9.0", "time_elapsed": 1063371, "key_press": -1, "trial_index": 195}, "uniqueid": "MTK3126:3A4TN5196LPZLWMOJMZ9XOLN4KSCHH", "dateTime": 1520029504920}, {"current_trial": 196, "trialdata": {"rt": -1, "trial_type": "single-stim", "stimulus": "<p id=\"stim\">+</p>", "internal_node_id": "0.0-142.0-0.0", "time_elapsed": 1064884, "key_press": -1, "type": "FIXATION", "trial_index": 196}, "uniqueid": "MTK3126:3A4TN5196LPZLWMOJMZ9XOLN4KSCHH", "dateTime": 1520029506433}, {"current_trial": 197, "trialdata": {"rt": -1000, "trial_type": "single-audio", "word": "blouse", "stimulus": "/static/audio/wordpool/BLOUSE.wav", "conditions": [12, 1600, "a", 24000], "internal_node_id": "0.0-143.0", "trial": 5, "time_elapsed": 1067461, "serialpos": 0, "key_press": -1, "wordID": 138, "type": "PRES_AUD", "trial_index": 197}, "uniqueid": "MTK3126:3A4TN5196LPZLWMOJMZ9XOLN4KSCHH", "dateTime": 1520029509010}, {"current_trial": 198, "trialdata": {"rt": -1000, "trial_type": "single-audio", "word": "coin", "stimulus": "/static/audio/wordpool/COIN.wav", "conditions": [12, 1600, "a", 24000], "internal_node_id": "0.0-144.0", "trial": 5, "time_elapsed": 1070037, "serialpos": 1, "key_press": -1, "wordID": 342, "type": "PRES_AUD", "trial_index": 198}, "uniqueid": "MTK3126:3A4TN5196LPZLWMOJMZ9XOLN4KSCHH", "dateTime": 1520029511586}, {"current_trial": 199, "trialdata": {"rt": -1000, "trial_type": "single-audio", "word": "lagoon", "stimulus": "/static/audio/wordpool/LAGOON.wav", "conditions": [12, 1600, "a", 24000], "internal_node_id": "0.0-145.0", "trial": 5, "time_elapsed": 1072477, "serialpos": 2, "key_press": -1, "wordID": 794, "type": "PRES_AUD", "trial_index": 199}, "uniqueid": "MTK3126:3A4TN5196LPZLWMOJMZ9XOLN4KSCHH", "dateTime": 1520029514027}, {"current_trial": 200, "trialdata": {"rt": -1000, "trial_type": "single-audio", "word": "padding", "stimulus": "/static/audio/wordpool/PADDING.wav", "conditions": [12, 1600, "a", 24000], "internal_node_id": "0.0-146.0", "trial": 5, "time_elapsed": 1074932, "serialpos": 3, "key_press": -1, "wordID": 998, "type": "PRES_AUD", "trial_index": 200}, "uniqueid": "MTK3126:3A4TN5196LPZLWMOJMZ9XOLN4KSCHH", "dateTime": 1520029516482}, {"current_trial": 201, "trialdata": {"rt": -1000, "trial_type": "single-audio", "word": "novel", "stimulus": "/static/audio/wordpool/NOVEL.wav", "conditions": [12, 1600, "a", 24000], "internal_node_id": "0.0-147.0", "trial": 5, "time_elapsed": 1077404, "serialpos": 4, "key_press": -1, "wordID": 959, "type": "PRES_AUD", "trial_index": 201}, "uniqueid": "MTK3126:3A4TN5196LPZLWMOJMZ9XOLN4KSCHH", "dateTime": 1520029518954}, {"current_trial": 202, "trialdata": {"rt": -1000, "trial_type": "single-audio", "word": "racket", "stimulus": "/static/audio/wordpool/RACKET.wav", "conditions": [12, 1600, "a", 24000], "internal_node_id": "0.0-148.0", "trial": 5, "time_elapsed": 1079946, "serialpos": 5, "key_press": -1, "wordID": 1154, "type": "PRES_AUD", "trial_index": 202}, "uniqueid": "MTK3126:3A4TN5196LPZLWMOJMZ9XOLN4KSCHH", "dateTime": 1520029521496}, {"current_trial": 203, "trialdata": {"rt": -1000, "trial_type": "single-audio", "word": "sculpture", "stimulus": "/static/audio/wordpool/SCULPTURE.wav", "conditions": [12, 1600, "a", 24000], "internal_node_id": "0.0-149.0", "trial": 5, "time_elapsed": 1082572, "serialpos": 6, "key_press": -1, "wordID": 1257, "type": "PRES_AUD", "trial_index": 203}, "uniqueid": "MTK3126:3A4TN5196LPZLWMOJMZ9XOLN4KSCHH", "dateTime": 1520029524121}, {"current_trial": 204, "trialdata": {"rt": -1000, "trial_type": "single-audio", "word": "marker", "stimulus": "/static/audio/wordpool/MARKER.wav", "conditions": [12, 1600, "a", 24000], "internal_node_id": "0.0-150.0", "trial": 5, "time_elapsed": 1085055, "serialpos": 7, "key_press": -1, "wordID": 869, "type": "PRES_AUD", "trial_index": 204}, "uniqueid": "MTK3126:3A4TN5196LPZLWMOJMZ9XOLN4KSCHH", "dateTime": 1520029526604}, {"current_trial": 205, "trialdata": {"rt": -1000, "trial_type": "single-audio", "word": "crib", "stimulus": "/static/audio/wordpool/CRIB.wav", "conditions": [12, 1600, "a", 24000], "internal_node_id": "0.0-151.0", "trial": 5, "time_elapsed": 1087753, "serialpos": 8, "key_press": -1, "wordID": 406, "type": "PRES_AUD", "trial_index": 205}, "uniqueid": "MTK3126:3A4TN5196LPZLWMOJMZ9XOLN4KSCHH", "dateTime": 1520029529302}, {"current_trial": 206, "trialdata": {"rt": -1000, "trial_type": "single-audio", "word": "baby", "stimulus": "/static/audio/wordpool/BABY.wav", "conditions": [12, 1600, "a", 24000], "internal_node_id": "0.0-152.0", "trial": 5, "time_elapsed": 1090300, "serialpos": 9, "key_press": -1, "wordID": 63, "type": "PRES_AUD", "trial_index": 206}, "uniqueid": "MTK3126:3A4TN5196LPZLWMOJMZ9XOLN4KSCHH", "dateTime": 1520029531849}, {"current_trial": 207, "trialdata": {"rt": -1000, "trial_type": "single-audio", "word": "flipper", "stimulus": "/static/audio/wordpool/FLIPPER.wav", "conditions": [12, 1600, "a", 24000], "internal_node_id": "0.0-153.0", "trial": 5, "time_elapsed": 1092984, "serialpos": 10, "key_press": -1, "wordID": 579, "type": "PRES_AUD", "trial_index": 207}, "uniqueid": "MTK3126:3A4TN5196LPZLWMOJMZ9XOLN4KSCHH", "dateTime": 1520029534534}, {"current_trial": 208, "trialdata": {"rt": -1000, "trial_type": "single-audio", "word": "dress", "stimulus": "/static/audio/wordpool/DRESS.wav", "conditions": [12, 1600, "a", 24000], "internal_node_id": "0.0-154.0", "trial": 5, "time_elapsed": 1095714, "serialpos": 11, "key_press": -1, "wordID": 494, "type": "PRES_AUD", "trial_index": 208}, "uniqueid": "MTK3126:3A4TN5196LPZLWMOJMZ9XOLN4KSCHH", "dateTime": 1520029537263}, {"current_trial": 209, "trialdata": {"rt": -1, "trial_type": "single-stim", "stimulus": "", "internal_node_id": "0.0-155.0-0.0", "time_elapsed": 1097091, "key_press": -1, "type": "PRE_RECALL_DELAY", "trial_index": 209}, "uniqueid": "MTK3126:3A4TN5196LPZLWMOJMZ9XOLN4KSCHH", "dateTime": 1520029538640}, {"current_trial": 210, "trialdata": {"rt": -1000, "trial_type": "single-audio", "stimulus": "/static/audio/400Hz.wav", "internal_node_id": "0.0-156.0", "time_elapsed": 1097595, "key_press": -1, "type": "PRE_RECALL_ALERT", "trial_index": 210}, "uniqueid": "MTK3126:3A4TN5196LPZLWMOJMZ9XOLN4KSCHH", "dateTime": 1520029539144}, {"current_trial": 211, "trialdata": {"rt": [3118, 7230], "recwords": ["lagoon", "pepper"], "key_times": [1455, 1599, 1952, 2167, 2295, 2543, 3118, 6175, 6312, 6439, 6591, 6687, 6879, 7230], "trial_type": "free-recall", "conditions": [12, 1600, "a", 24000], "internal_node_id": "0.0-157.0-0.0", "key_presses": [76, 65, 71, 79, 79, 78, 13, 80, 69, 80, 80, 69, 82, 13], "trial": 5, "time_elapsed": 1157607, "type": "FREE_RECALL", "trial_index": 211}, "uniqueid": "MTK3126:3A4TN5196LPZLWMOJMZ9XOLN4KSCHH", "dateTime": 1520029599167}, {"current_trial": 212, "trialdata": {"rt": 449420, "trial_type": "text", "internal_node_id": "0.0-158.0", "time_elapsed": 1609054, "key_press": 13, "type": "INSTRUCTIONS", "trial_index": 212}, "uniqueid": "MTK3126:3A4TN5196LPZLWMOJMZ9XOLN4KSCHH", "dateTime": 1520030050604}, {"current_trial": 213, "trialdata": {"rt": [], "trial_type": "math-distractor", "key_times": [], "responses": [], "num2": [2], "num3": [5], "conditions": [24, 800, "a", 12000], "internal_node_id": "0.0-159.0", "key_presses": [], "trial": 6, "time_elapsed": 1623065, "type": "DISTRACTOR", "trial_index": 213, "num1": [5]}, "uniqueid": "MTK3126:3A4TN5196LPZLWMOJMZ9XOLN4KSCHH", "dateTime": 1520030064617}, {"current_trial": 214, "trialdata": {"rt": -1, "trial_type": "single-stim", "stimulus": "<p id=\"stim\">10</p>", "internal_node_id": "0.0-160.0-0.0", "time_elapsed": 1626078, "key_press": -1, "trial_index": 214}, "uniqueid": "MTK3126:3A4TN5196LPZLWMOJMZ9XOLN4KSCHH", "dateTime": 1520030067628}, {"current_trial": 215, "trialdata": {"rt": -1, "trial_type": "single-stim", "stimulus": "<p id=\"stim\">9</p>", "internal_node_id": "0.0-160.0-1.0", "time_elapsed": 1627085, "key_press": -1, "trial_index": 215}, "uniqueid": "MTK3126:3A4TN5196LPZLWMOJMZ9XOLN4KSCHH", "dateTime": 1520030068635}, {"current_trial": 216, "trialdata": {"rt": -1, "trial_type": "single-stim", "stimulus": "<p id=\"stim\">8</p>", "internal_node_id": "0.0-160.0-2.0", "time_elapsed": 1628093, "key_press": -1, "trial_index": 216}, "uniqueid": "MTK3126:3A4TN5196LPZLWMOJMZ9XOLN4KSCHH", "dateTime": 1520030069643}, {"current_trial": 217, "trialdata": {"rt": -1, "trial_type": "single-stim", "stimulus": "<p id=\"stim\">7</p>", "internal_node_id": "0.0-160.0-3.0", "time_elapsed": 1629099, "key_press": -1, "trial_index": 217}, "uniqueid": "MTK3126:3A4TN5196LPZLWMOJMZ9XOLN4KSCHH", "dateTime": 1520030070649}, {"current_trial": 218, "trialdata": {"rt": -1, "trial_type": "single-stim", "stimulus": "<p id=\"stim\">6</p>", "internal_node_id": "0.0-160.0-4.0", "time_elapsed": 1630116, "key_press": -1, "trial_index": 218}, "uniqueid": "MTK3126:3A4TN5196LPZLWMOJMZ9XOLN4KSCHH", "dateTime": 1520030071665}, {"current_trial": 219, "trialdata": {"rt": -1, "trial_type": "single-stim", "stimulus": "<p id=\"stim\">5</p>", "internal_node_id": "0.0-160.0-5.0", "time_elapsed": 1631132, "key_press": -1, "trial_index": 219}, "uniqueid": "MTK3126:3A4TN5196LPZLWMOJMZ9XOLN4KSCHH", "dateTime": 1520030072682}, {"current_trial": 220, "trialdata": {"rt": -1, "trial_type": "single-stim", "stimulus": "<p id=\"stim\">4</p>", "internal_node_id": "0.0-160.0-6.0", "time_elapsed": 1632137, "key_press": -1, "trial_index": 220}, "uniqueid": "MTK3126:3A4TN5196LPZLWMOJMZ9XOLN4KSCHH", "dateTime": 1520030073686}, {"current_trial": 221, "trialdata": {"rt": -1, "trial_type": "single-stim", "stimulus": "<p id=\"stim\">3</p>", "internal_node_id": "0.0-160.0-7.0", "time_elapsed": 1633143, "key_press": -1, "trial_index": 221}, "uniqueid": "MTK3126:3A4TN5196LPZLWMOJMZ9XOLN4KSCHH", "dateTime": 1520030074692}, {"current_trial": 222, "trialdata": {"rt": -1, "trial_type": "single-stim", "stimulus": "<p id=\"stim\">2</p>", "internal_node_id": "0.0-160.0-8.0", "time_elapsed": 1634148, "key_press": -1, "trial_index": 222}, "uniqueid": "MTK3126:3A4TN5196LPZLWMOJMZ9XOLN4KSCHH", "dateTime": 1520030075699}, {"current_trial": 223, "trialdata": {"rt": -1, "trial_type": "single-stim", "stimulus": "<p id=\"stim\">1</p>", "internal_node_id": "0.0-160.0-9.0", "time_elapsed": 1635167, "key_press": -1, "trial_index": 223}, "uniqueid": "MTK3126:3A4TN5196LPZLWMOJMZ9XOLN4KSCHH", "dateTime": 1520030076716}, {"current_trial": 224, "trialdata": {"rt": -1, "trial_type": "single-stim", "stimulus": "<p id=\"stim\">+</p>", "internal_node_id": "0.0-161.0-0.0", "time_elapsed": 1636677, "key_press": -1, "type": "FIXATION", "trial_index": 224}, "uniqueid": "MTK3126:3A4TN5196LPZLWMOJMZ9XOLN4KSCHH", "dateTime": 1520030078227}, {"current_trial": 225, "trialdata": {"rt": -1000, "trial_type": "single-audio", "word": "captive", "stimulus": "/static/audio/wordpool/CAPTIVE.wav", "conditions": [24, 800, "a", 12000], "internal_node_id": "0.0-162.0", "trial": 6, "time_elapsed": 1638638, "serialpos": 0, "key_press": -1, "wordID": 239, "type": "PRES_AUD", "trial_index": 225}, "uniqueid": "MTK3126:3A4TN5196LPZLWMOJMZ9XOLN4KSCHH", "dateTime": 1520030080187}, {"current_trial": 226, "trialdata": {"rt": -1000, "trial_type": "single-audio", "word": "teacher", "stimulus": "/static/audio/wordpool/TEACHER.wav", "conditions": [24, 800, "a", 12000], "internal_node_id": "0.0-163.0", "trial": 6, "time_elapsed": 1640490, "serialpos": 1, "key_press": -1, "wordID": 1439, "type": "PRES_AUD", "trial_index": 226}, "uniqueid": "MTK3126:3A4TN5196LPZLWMOJMZ9XOLN4KSCHH", "dateTime": 1520030082039}, {"current_trial": 227, "trialdata": {"rt": -1000, "trial_type": "single-audio", "word": "student", "stimulus": "/static/audio/wordpool/STUDENT.wav", "conditions": [24, 800, "a", 12000], "internal_node_id": "0.0-164.0", "trial": 6, "time_elapsed": 1642311, "serialpos": 2, "key_press": -1, "wordID": 1394, "type": "PRES_AUD", "trial_index": 227}, "uniqueid": "MTK3126:3A4TN5196LPZLWMOJMZ9XOLN4KSCHH", "dateTime": 1520030083861}, {"current_trial": 228, "trialdata": {"rt": -1000, "trial_type": "single-audio", "word": "preacher", "stimulus": "/static/audio/wordpool/PREACHER.wav", "conditions": [24, 800, "a", 12000], "internal_node_id": "0.0-165.0", "trial": 6, "time_elapsed": 1643944, "serialpos": 3, "key_press": -1, "wordID": 1118, "type": "PRES_AUD", "trial_index": 228}, "uniqueid": "MTK3126:3A4TN5196LPZLWMOJMZ9XOLN4KSCHH", "dateTime": 1520030085493}, {"current_trial": 229, "trialdata": {"rt": -1000, "trial_type": "single-audio", "word": "tribe", "stimulus": "/static/audio/wordpool/TRIBE.wav", "conditions": [24, 800, "a", 12000], "internal_node_id": "0.0-166.0", "trial": 6, "time_elapsed": 1645691, "serialpos": 4, "key_press": -1, "wordID": 1504, "type": "PRES_AUD", "trial_index": 229}, "uniqueid": "MTK3126:3A4TN5196LPZLWMOJMZ9XOLN4KSCHH", "dateTime": 1520030087241}, {"current_trial": 230, "trialdata": {"rt": -1000, "trial_type": "single-audio", "word": "dragon", "stimulus": "/static/audio/wordpool/DRAGON.wav", "conditions": [24, 800, "a", 12000], "internal_node_id": "0.0-167.0", "trial": 6, "time_elapsed": 1647344, "serialpos": 5, "key_press": -1, "wordID": 491, "type": "PRES_AUD", "trial_index": 230}, "uniqueid": "MTK3126:3A4TN5196LPZLWMOJMZ9XOLN4KSCHH", "dateTime": 1520030088893}, {"current_trial": 231, "trialdata": {"rt": -1000, "trial_type": "single-audio", "word": "spool", "stimulus": "/static/audio/wordpool/SPOOL.wav", "conditions": [24, 800, "a", 12000], "internal_node_id": "0.0-168.0", "trial": 6, "time_elapsed": 1648976, "serialpos": 6, "key_press": -1, "wordID": 1355, "type": "PRES_AUD", "trial_index": 231}, "uniqueid": "MTK3126:3A4TN5196LPZLWMOJMZ9XOLN4KSCHH", "dateTime": 1520030090526}, {"current_trial": 232, "trialdata": {"rt": -1000, "trial_type": "single-audio", "word": "carrot", "stimulus": "/static/audio/wordpool/CARROT.wav", "conditions": [24, 800, "a", 12000], "internal_node_id": "0.0-169.0", "trial": 6, "time_elapsed": 1650777, "serialpos": 7, "key_press": -1, "wordID": 248, "type": "PRES_AUD", "trial_index": 232}, "uniqueid": "MTK3126:3A4TN5196LPZLWMOJMZ9XOLN4KSCHH", "dateTime": 1520030092326}, {"current_trial": 233, "trialdata": {"rt": -1000, "trial_type": "single-audio", "word": "girl", "stimulus": "/static/audio/wordpool/GIRL.wav", "conditions": [24, 800, "a", 12000], "internal_node_id": "0.0-170.0", "trial": 6, "time_elapsed": 1652676, "serialpos": 8, "key_press": -1, "wordID": 636, "type": "PRES_AUD", "trial_index": 233}, "uniqueid": "MTK3126:3A4TN5196LPZLWMOJMZ9XOLN4KSCHH", "dateTime": 1520030094226}, {"current_trial": 234, "trialdata": {"rt": -1000, "trial_type": "single-audio", "word": "rod", "stimulus": "/static/audio/wordpool/ROD.wav", "conditions": [24, 800, "a", 12000], "internal_node_id": "0.0-171.0", "trial": 6, "time_elapsed": 1654587, "serialpos": 9, "key_press": -1, "wordID": 1202, "type": "PRES_AUD", "trial_index": 234}, "uniqueid": "MTK3126:3A4TN5196LPZLWMOJMZ9XOLN4KSCHH", "dateTime": 1520030096137}, {"current_trial": 235, "trialdata": {"rt": -1000, "trial_type": "single-audio", "word": "razor", "stimulus": "/static/audio/wordpool/RAZOR.wav", "conditions": [24, 800, "a", 12000], "internal_node_id": "0.0-172.0", "trial": 6, "time_elapsed": 1656406, "serialpos": 10, "key_press": -1, "wordID": 1170, "type": "PRES_AUD", "trial_index": 235}, "uniqueid": "MTK3126:3A4TN5196LPZLWMOJMZ9XOLN4KSCHH", "dateTime": 1520030097955}, {"current_trial": 236, "trialdata": {"rt": -1000, "trial_type": "single-audio", "word": "playground", "stimulus": "/static/audio/wordpool/PLAYGROUND.wav", "conditions": [24, 800, "a", 12000], "internal_node_id": "0.0-173.0", "trial": 6, "time_elapsed": 1658022, "serialpos": 11, "key_press": -1, "wordID": 1086, "type": "PRES_AUD", "trial_index": 236}, "uniqueid": "MTK3126:3A4TN5196LPZLWMOJMZ9XOLN4KSCHH", "dateTime": 1520030099572}, {"current_trial": 237, "trialdata": {"rt": -1000, "trial_type": "single-audio", "word": "cod", "stimulus": "/static/audio/wordpool/COD.wav", "conditions": [24, 800, "a", 12000], "internal_node_id": "0.0-174.0", "trial": 6, "time_elapsed": 1659983, "serialpos": 12, "key_press": -1, "wordID": 339, "type": "PRES_AUD", "trial_index": 237}, "uniqueid": "MTK3126:3A4TN5196LPZLWMOJMZ9XOLN4KSCHH", "dateTime": 1520030101532}, {"current_trial": 238, "trialdata": {"rt": -1000, "trial_type": "single-audio", "word": "robot", "stimulus": "/static/audio/wordpool/ROBOT.wav", "conditions": [24, 800, "a", 12000], "internal_node_id": "0.0-175.0", "trial": 6, "time_elapsed": 1661869, "serialpos": 13, "key_press": -1, "wordID": 1199, "type": "PRES_AUD", "trial_index": 238}, "uniqueid": "MTK3126:3A4TN5196LPZLWMOJMZ9XOLN4KSCHH", "dateTime": 1520030103419}, {"current_trial": 239, "trialdata": {"rt": -1000, "trial_type": "single-audio", "word": "grave", "stimulus": "/static/audio/wordpool/GRAVE.wav", "conditions": [24, 800, "a", 12000], "internal_node_id": "0.0-176.0", "trial": 6, "time_elapsed": 1663613, "serialpos": 14, "key_press": -1, "wordID": 657, "type": "PRES_AUD", "trial_index": 239}, "uniqueid": "MTK3126:3A4TN5196LPZLWMOJMZ9XOLN4KSCHH", "dateTime": 1520030105162}, {"current_trial": 240, "trialdata": {"rt": -1000, "trial_type": "single-audio", "word": "banquet", "stimulus": "/static/audio/wordpool/BANQUET.wav", "conditions": [24, 800, "a", 12000], "internal_node_id": "0.0-177.0", "trial": 6, "time_elapsed": 1665500, "serialpos": 15, "key_press": -1, "wordID": 85, "type": "PRES_AUD", "trial_index": 240}, "uniqueid": "MTK3126:3A4TN5196LPZLWMOJMZ9XOLN4KSCHH", "dateTime": 1520030107049}, {"current_trial": 241, "trialdata": {"rt": -1000, "trial_type": "single-audio", "word": "tortoise", "stimulus": "/static/audio/wordpool/TORTOISE.wav", "conditions": [24, 800, "a", 12000], "internal_node_id": "0.0-178.0", "trial": 6, "time_elapsed": 1667448, "serialpos": 16, "key_press": -1, "wordID": 1485, "type": "PRES_AUD", "trial_index": 241}, "uniqueid": "MTK3126:3A4TN5196LPZLWMOJMZ9XOLN4KSCHH", "dateTime": 1520030108997}, {"current_trial": 242, "trialdata": {"rt": -1000, "trial_type": "single-audio", "word": "belly", "stimulus": "/static/audio/wordpool/BELLY.wav", "conditions": [24, 800, "a", 12000], "internal_node_id": "0.0-179.0", "trial": 6, "time_elapsed": 1669223, "serialpos": 17, "key_press": -1, "wordID": 118, "type": "PRES_AUD", "trial_index": 242}, "uniqueid": "MTK3126:3A4TN5196LPZLWMOJMZ9XOLN4KSCHH", "dateTime": 1520030110773}, {"current_trial": 243, "trialdata": {"rt": -1000, "trial_type": "single-audio", "word": "ointment", "stimulus": "/static/audio/wordpool/OINTMENT.wav", "conditions": [24, 800, "a", 12000], "internal_node_id": "0.0-180.0", "trial": 6, "time_elapsed": 1671229, "serialpos": 18, "key_press": -1, "wordID": 973, "type": "PRES_AUD", "trial_index": 243}, "uniqueid": "MTK3126:3A4TN5196LPZLWMOJMZ9XOLN4KSCHH", "dateTime": 1520030112778}, {"current_trial": 244, "trialdata": {"rt": -1000, "trial_type": "single-audio", "word": "europe", "stimulus": "/static/audio/wordpool/EUROPE.wav", "conditions": [24, 800, "a", 12000], "internal_node_id": "0.0-181.0", "trial": 6, "time_elapsed": 1673031, "serialpos": 19, "key_press": -1, "wordID": 540, "type": "PRES_AUD", "trial_index": 244}, "uniqueid": "MTK3126:3A4TN5196LPZLWMOJMZ9XOLN4KSCHH", "dateTime": 1520030114581}, {"current_trial": 245, "trialdata": {"rt": -1000, "trial_type": "single-audio", "word": "couch", "stimulus": "/static/audio/wordpool/COUCH.wav", "conditions": [24, 800, "a", 12000], "internal_node_id": "0.0-182.0", "trial": 6, "time_elapsed": 1674680, "serialpos": 20, "key_press": -1, "wordID": 385, "type": "PRES_AUD", "trial_index": 245}, "uniqueid": "MTK3126:3A4TN5196LPZLWMOJMZ9XOLN4KSCHH", "dateTime": 1520030116229}, {"current_trial": 246, "trialdata": {"rt": -1000, "trial_type": "single-audio", "word": "mattress", "stimulus": "/static/audio/wordpool/MATTRESS.wav", "conditions": [24, 800, "a", 12000], "internal_node_id": "0.0-183.0", "trial": 6, "time_elapsed": 1676485, "serialpos": 21, "key_press": -1, "wordID": 878, "type": "PRES_AUD", "trial_index": 246}, "uniqueid": "MTK3126:3A4TN5196LPZLWMOJMZ9XOLN4KSCHH", "dateTime": 1520030118034}, {"current_trial": 247, "trialdata": {"rt": -1000, "trial_type": "single-audio", "word": "eyelash", "stimulus": "/static/audio/wordpool/EYELASH.wav", "conditions": [24, 800, "a", 12000], "internal_node_id": "0.0-184.0", "trial": 6, "time_elapsed": 1678486, "serialpos": 22, "key_press": -1, "wordID": 545, "type": "PRES_AUD", "trial_index": 247}, "uniqueid": "MTK3126:3A4TN5196LPZLWMOJMZ9XOLN4KSCHH", "dateTime": 1520030120036}, {"current_trial": 248, "trialdata": {"rt": -1000, "trial_type": "single-audio", "word": "asia", "stimulus": "/static/audio/wordpool/ASIA.wav", "conditions": [24, 800, "a", 12000], "internal_node_id": "0.0-185.0", "trial": 6, "time_elapsed": 1680493, "serialpos": 23, "key_press": -1, "wordID": 45, "type": "PRES_AUD", "trial_index": 248}, "uniqueid": "MTK3126:3A4TN5196LPZLWMOJMZ9XOLN4KSCHH", "dateTime": 1520030122042}, {"current_trial": 249, "trialdata": {"rt": -1, "trial_type": "single-stim", "stimulus": "", "internal_node_id": "0.0-186.0-0.0", "time_elapsed": 1681713, "key_press": -1, "type": "PRE_RECALL_DELAY", "trial_index": 249}, "uniqueid": "MTK3126:3A4TN5196LPZLWMOJMZ9XOLN4KSCHH", "dateTime": 1520030123262}, {"current_trial": 250, "trialdata": {"rt": -1000, "trial_type": "single-audio", "stimulus": "/static/audio/400Hz.wav", "internal_node_id": "0.0-187.0", "time_elapsed": 1682221, "key_press": -1, "type": "PRE_RECALL_ALERT", "trial_index": 250}, "uniqueid": "MTK3126:3A4TN5196LPZLWMOJMZ9XOLN4KSCHH", "dateTime": 1520030123771}, {"current_trial": 251, "trialdata": {"rt": [3516, 6036, 8332, 10020, 12324, 15452, 17484, 18916, 22412, 25252, 27940, 30243, 34852], "recwords": ["teacher", "student", "captive", "girl", "razor", "playground", "robot", "grave", "penguin", "tortoise", "ointment", "car", "carrot"], "key_times": [1503, 1623, 1831, 2125, 2525, 2685, 2878, 3516, 4311, 4501, 4726, 4926, 5101, 5261, 5421, 6036, 6701, 6813, 7181, 7517, 7645, 7933, 8069,