{"assignmentId": "33LKR6A5KFR5323L3JREUB5KC5N1TU", "workerId": "MTK3472", "questiondata": {"avail_screen_height": 860, "color_depth": 24, "screen_width": 1440, "pixel_depth": 24, "avail_screen_width": 1440, "screen_height": 900}, "bonus": 0, "hitId": "3UEBBGULPFV96AEOKLR7ZPZWBKXUFL", "counterbalance": 2574, "useragent": "Mozilla/5.0 (Windows NT 6.1) AppleWebKit/537.36 (KHTML, like Gecko) Chrome/64.0.3282.186 Safari/537.36", "eventdata": [{"eventtype": "initialized", "interval": 0, "value": null, "timestamp": 1520615399402}, {"eventtype": "window_resize", "interval": 0, "value": [1152, 683], "timestamp": 1520615399402}, {"eventtype": "focus", "interval": 37474, "value": "off", "timestamp": 1520615436876}, {"eventtype": "focus", "interval": 4918, "value": "on", "timestamp": 1520615441794}, {"eventtype": "window_resize", "interval": 54412, "value": [1152, 648], "timestamp": 1520615496206}, {"eventtype": "focus", "interval": 221673, "value": "off", "timestamp": 1520615717879}, {"eventtype": "focus", "interval": 27994, "value": "on", "timestamp": 1520615745873}, {"eventtype": "focus", "interval": 707262, "value": "off", "timestamp": 1520616453135}, {"eventtype": "focus", "interval": 16867, "value": "on", "timestamp": 1520616470002}, {"eventtype": "focus", "interval": 813483, "value": "off", "timestamp": 1520617283485}, {"eventtype": "focus", "interval": 20746, "value": "on", "timestamp": 1520617304231}, {"eventtype": "focus", "interval": 127, "value": "off", "timestamp": 1520617304358}, {"eventtype": "focus", "interval": 55345, "value": "on", "timestamp": 1520617359703}, {"eventtype": "focus", "interval": 706558, "value": "off", "timestamp": 1520618066261}, {"eventtype": "focus", "interval": 10556, "value": "on", "timestamp": 1520618076817}, {"eventtype": "focus", "interval": 1534, "value": "off", "timestamp": 1520618078351}, {"eventtype": "focus", "interval": 12667, "value": "on", "timestamp": 1520618091018}, {"eventtype": "focus", "interval": 141, "value": "off", "timestamp": 1520618091159}, {"eventtype": "focus", "interval": 3065, "value": "on", "timestamp": 1520618094224}], "data": [{"current_trial": 0, "trialdata": {"rt": 1857, "trial_type": "text", "internal_node_id": "0.0-0.0", "time_elapsed": 1864, "key_press": 83, "type": "INSTRUCTIONS", "trial_index": 0}, "uniqueid": "MTK3472:33LKR6A5KFR5323L3JREUB5KC5N1TU", "dateTime": 1520615406606}, {"current_trial": 1, "trialdata": {"rt": 3970, "trial_type": "text", "internal_node_id": "0.0-1.0", "time_elapsed": 5842, "key_press": 83, "type": "INSTRUCTIONS", "trial_index": 1}, "uniqueid": "MTK3472:33LKR6A5KFR5323L3JREUB5KC5N1TU", "dateTime": 1520615410582}, {"current_trial": 2, "trialdata": {"rt": [10318], "trial_type": "audio-test", "responses": ["ocean"], "internal_node_id": "0.0-2.0", "time_elapsed": 16182, "type": "AUDIO_TEST", "trial_index": 2}, "uniqueid": "MTK3472:33LKR6A5KFR5323L3JREUB5KC5N1TU", "dateTime": 1520615420921}, {"current_trial": 3, "trialdata": {"rt": [9670], "trial_type": "audio-test", "responses": ["crystal"], "internal_node_id": "0.0-3.0", "time_elapsed": 25863, "type": "AUDIO_TEST", "trial_index": 3}, "uniqueid": "MTK3472:33LKR6A5KFR5323L3JREUB5KC5N1TU", "dateTime": 1520615430603}, {"current_trial": 4, "trialdata": {"rt": [15058], "trial_type": "audio-test", "responses": ["spice"], "internal_node_id": "0.0-4.0", "time_elapsed": 40937, "type": "AUDIO_TEST", "trial_index": 4}, "uniqueid": "MTK3472:33LKR6A5KFR5323L3JREUB5KC5N1TU", "dateTime": 1520615445676}, {"current_trial": 5, "trialdata": {"rt": 54504, "trial_type": "survey-text", "responses": "{\"Q0\":\"midnight\",\"Q1\":\"7 am\",\"Q2\":\"5\\n5\"}", "internal_node_id": "0.0-5.0", "time_elapsed": 96197, "type": "SLEEP_SURVEY", "trial_index": 5}, "uniqueid": "MTK3472:33LKR6A5KFR5323L3JREUB5KC5N1TU", "dateTime": 1520615500937}, {"current_trial": 6, "trialdata": {"rt": 149272, "trial_type": "text", "internal_node_id": "0.0-6.0", "time_elapsed": 246471, "key_press": 76, "type": "INSTRUCTIONS", "trial_index": 6}, "uniqueid": "MTK3472:33LKR6A5KFR5323L3JREUB5KC5N1TU", "dateTime": 1520615651210}, {"current_trial": 7, "trialdata": {"rt": 360646, "trial_type": "text", "internal_node_id": "0.0-7.0", "time_elapsed": 607618, "key_press": 186, "type": "INSTRUCTIONS", "trial_index": 7}, "uniqueid": "MTK3472:33LKR6A5KFR5323L3JREUB5KC5N1TU", "dateTime": 1520616012358}, {"current_trial": 8, "trialdata": {"rt": 18535, "trial_type": "text", "internal_node_id": "0.0-8.0", "time_elapsed": 626656, "key_press": 76, "type": "INSTRUCTIONS", "trial_index": 8}, "uniqueid": "MTK3472:33LKR6A5KFR5323L3JREUB5KC5N1TU", "dateTime": 1520616031396}, {"current_trial": 9, "trialdata": {"rt": [10444, 16295], "trial_type": "math-distractor", "key_times": [4453, 4721, 10444, 13654, 13836, 16295], "responses": ["17", "20"], "num2": [9, 5, 4], "num3": [6, 6, 7], "conditions": [18, 1200, "a", 18000], "internal_node_id": "0.0-9.0", "key_presses": [49, 55, 13, 50, 48, 13], "trial": 0, "time_elapsed": 645673, "type": "DISTRACTOR", "trial_index": 9, "num1": [2, 9, 1]}, "uniqueid": "MTK3472:33LKR6A5KFR5323L3JREUB5KC5N1TU", "dateTime": 1520616050412}, {"current_trial": 10, "trialdata": {"rt": -1, "trial_type": "single-stim", "stimulus": "<p id=\"stim\">10</p>", "internal_node_id": "0.0-10.0-0.0", "time_elapsed": 648677, "key_press": -1, "trial_index": 10}, "uniqueid": "MTK3472:33LKR6A5KFR5323L3JREUB5KC5N1TU", "dateTime": 1520616053417}, {"current_trial": 11, "trialdata": {"rt": -1, "trial_type": "single-stim", "stimulus": "<p id=\"stim\">9</p>", "internal_node_id": "0.0-10.0-1.0", "time_elapsed": 649680, "key_press": -1, "trial_index": 11}, "uniqueid": "MTK3472:33LKR6A5KFR5323L3JREUB5KC5N1TU", "dateTime": 1520616054419}, {"current_trial": 12, "trialdata": {"rt": -1, "trial_type": "single-stim", "stimulus": "<p id=\"stim\">8</p>", "internal_node_id": "0.0-10.0-2.0", "time_elapsed": 650683, "key_press": -1, "trial_index": 12}, "uniqueid": "MTK3472:33LKR6A5KFR5323L3JREUB5KC5N1TU", "dateTime": 1520616055422}, {"current_trial": 13, "trialdata": {"rt": -1, "trial_type": "single-stim", "stimulus": "<p id=\"stim\">7</p>", "internal_node_id": "0.0-10.0-3.0", "time_elapsed": 651686, "key_press": -1, "trial_index": 13}, "uniqueid": "MTK3472:33LKR6A5KFR5323L3JREUB5KC5N1TU", "dateTime": 1520616056425}, {"current_trial": 14, "trialdata": {"rt": -1, "trial_type": "single-stim", "stimulus": "<p id=\"stim\">6</p>", "internal_node_id": "0.0-10.0-4.0", "time_elapsed": 652688, "key_press": -1, "trial_index": 14}, "uniqueid": "MTK3472:33LKR6A5KFR5323L3JREUB5KC5N1TU", "dateTime": 1520616057428}, {"current_trial": 15, "trialdata": {"rt": -1, "trial_type": "single-stim", "stimulus": "<p id=\"stim\">5</p>", "internal_node_id": "0.0-10.0-5.0", "time_elapsed": 653690, "key_press": -1, "trial_index": 15}, "uniqueid": "MTK3472:33LKR6A5KFR5323L3JREUB5KC5N1TU", "dateTime": 1520616058430}, {"current_trial": 16, "trialdata": {"rt": -1, "trial_type": "single-stim", "stimulus": "<p id=\"stim\">4</p>", "internal_node_id": "0.0-10.0-6.0", "time_elapsed": 654692, "key_press": -1, "trial_index": 16}, "uniqueid": "MTK3472:33LKR6A5KFR5323L3JREUB5KC5N1TU", "dateTime": 1520616059432}, {"current_trial": 17, "trialdata": {"rt": -1, "trial_type": "single-stim", "stimulus": "<p id=\"stim\">3</p>", "internal_node_id": "0.0-10.0-7.0", "time_elapsed": 655694, "key_press": -1, "trial_index": 17}, "uniqueid": "MTK3472:33LKR6A5KFR5323L3JREUB5KC5N1TU", "dateTime": 1520616060434}, {"current_trial": 18, "trialdata": {"rt": -1, "trial_type": "single-stim", "stimulus": "<p id=\"stim\">2</p>", "internal_node_id": "0.0-10.0-8.0", "time_elapsed": 656696, "key_press": -1, "trial_index": 18}, "uniqueid": "MTK3472:33LKR6A5KFR5323L3JREUB5KC5N1TU", "dateTime": 1520616061436}, {"current_trial": 19, "trialdata": {"rt": -1, "trial_type": "single-stim", "stimulus": "<p id=\"stim\">1</p>", "internal_node_id": "0.0-10.0-9.0", "time_elapsed": 657698, "key_press": -1, "trial_index": 19}, "uniqueid": "MTK3472:33LKR6A5KFR5323L3JREUB5KC5N1TU", "dateTime": 1520616062438}, {"current_trial": 20, "trialdata": {"rt": -1, "trial_type": "single-stim", "stimulus": "<p id=\"stim\">+</p>", "internal_node_id": "0.0-11.0-0.0", "time_elapsed": 659199, "key_press": -1, "type": "FIXATION", "trial_index": 20}, "uniqueid": "MTK3472:33LKR6A5KFR5323L3JREUB5KC5N1TU", "dateTime": 1520616063939}, {"current_trial": 21, "trialdata": {"rt": -1000, "trial_type": "single-audio", "word": "convict", "stimulus": "/static/audio/wordpool/CONVICT.wav", "conditions": [18, 1200, "a", 18000], "internal_node_id": "0.0-12.0", "trial": 0, "time_elapsed": 661261, "serialpos": 0, "key_press": -1, "wordID": 370, "type": "PRES_AUD", "trial_index": 21}, "uniqueid": "MTK3472:33LKR6A5KFR5323L3JREUB5KC5N1TU", "dateTime": 1520616066000}, {"current_trial": 22, "trialdata": {"rt": -1000, "trial_type": "single-audio", "word": "barrel", "stimulus": "/static/audio/wordpool/BARREL.wav", "conditions": [18, 1200, "a", 18000], "internal_node_id": "0.0-13.0", "trial": 0, "time_elapsed": 663382, "serialpos": 1, "key_press": -1, "wordID": 90, "type": "PRES_AUD", "trial_index": 22}, "uniqueid": "MTK3472:33LKR6A5KFR5323L3JREUB5KC5N1TU", "dateTime": 1520616068121}, {"current_trial": 23, "trialdata": {"rt": -1000, "trial_type": "single-audio", "word": "sunrise", "stimulus": "/static/audio/wordpool/SUNRISE.wav", "conditions": [18, 1200, "a", 18000], "internal_node_id": "0.0-14.0", "trial": 0, "time_elapsed": 665444, "serialpos": 2, "key_press": -1, "wordID": 1406, "type": "PRES_AUD", "trial_index": 23}, "uniqueid": "MTK3472:33LKR6A5KFR5323L3JREUB5KC5N1TU", "dateTime": 1520616070183}, {"current_trial": 24, "trialdata": {"rt": -1000, "trial_type": "single-audio", "word": "suitcase", "stimulus": "/static/audio/wordpool/SUITCASE.wav", "conditions": [18, 1200, "a", 18000], "internal_node_id": "0.0-15.0", "trial": 0, "time_elapsed": 667585, "serialpos": 3, "key_press": -1, "wordID": 1402, "type": "PRES_AUD", "trial_index": 24}, "uniqueid": "MTK3472:33LKR6A5KFR5323L3JREUB5KC5N1TU", "dateTime": 1520616072324}, {"current_trial": 25, "trialdata": {"rt": -1000, "trial_type": "single-audio", "word": "snake", "stimulus": "/static/audio/wordpool/SNAKE.wav", "conditions": [18, 1200, "a", 18000], "internal_node_id": "0.0-16.0", "trial": 0, "time_elapsed": 669761, "serialpos": 4, "key_press": -1, "wordID": 1332, "type": "PRES_AUD", "trial_index": 25}, "uniqueid": "MTK3472:33LKR6A5KFR5323L3JREUB5KC5N1TU", "dateTime": 1520616074500}, {"current_trial": 26, "trialdata": {"rt": -1000, "trial_type": "single-audio", "word": "swamp", "stimulus": "/static/audio/wordpool/SWAMP.wav", "conditions": [18, 1200, "a", 18000], "internal_node_id": "0.0-17.0", "trial": 0, "time_elapsed": 672083, "serialpos": 5, "key_press": -1, "wordID": 1415, "type": "PRES_AUD", "trial_index": 26}, "uniqueid": "MTK3472:33LKR6A5KFR5323L3JREUB5KC5N1TU", "dateTime": 1520616076822}, {"current_trial": 27, "trialdata": {"rt": -1000, "trial_type": "single-audio", "word": "table", "stimulus": "/static/audio/wordpool/TABLE.wav", "conditions": [18, 1200, "a", 18000], "internal_node_id": "0.0-18.0", "trial": 0, "time_elapsed": 674147, "serialpos": 6, "key_press": -1, "wordID": 1425, "type": "PRES_AUD", "trial_index": 27}, "uniqueid": "MTK3472:33LKR6A5KFR5323L3JREUB5KC5N1TU", "dateTime": 1520616078887}, {"current_trial": 28, "trialdata": {"rt": -1000, "trial_type": "single-audio", "word": "scissors", "stimulus": "/static/audio/wordpool/SCISSORS.wav", "conditions": [18, 1200, "a", 18000], "internal_node_id": "0.0-19.0", "trial": 0, "time_elapsed": 676466, "serialpos": 7, "key_press": -1, "wordID": 1249, "type": "PRES_AUD", "trial_index": 28}, "uniqueid": "MTK3472:33LKR6A5KFR5323L3JREUB5KC5N1TU", "dateTime": 1520616081205}, {"current_trial": 29, "trialdata": {"rt": -1000, "trial_type": "single-audio", "word": "zipper", "stimulus": "/static/audio/wordpool/ZIPPER.wav", "conditions": [18, 1200, "a", 18000], "internal_node_id": "0.0-20.0", "trial": 0, "time_elapsed": 678854, "serialpos": 8, "key_press": -1, "wordID": 1635, "type": "PRES_AUD", "trial_index": 29}, "uniqueid": "MTK3472:33LKR6A5KFR5323L3JREUB5KC5N1TU", "dateTime": 1520616083593}, {"current_trial": 30, "trialdata": {"rt": -1000, "trial_type": "single-audio", "word": "finger", "stimulus": "/static/audio/wordpool/FINGER.wav", "conditions": [18, 1200, "a", 18000], "internal_node_id": "0.0-21.0", "trial": 0, "time_elapsed": 680953, "serialpos": 9, "key_press": -1, "wordID": 566, "type": "PRES_AUD", "trial_index": 30}, "uniqueid": "MTK3472:33LKR6A5KFR5323L3JREUB5KC5N1TU", "dateTime": 1520616085692}, {"current_trial": 31, "trialdata": {"rt": -1000, "trial_type": "single-audio", "word": "slide", "stimulus": "/static/audio/wordpool/SLIDE.wav", "conditions": [18, 1200, "a", 18000], "internal_node_id": "0.0-22.0", "trial": 0, "time_elapsed": 683041, "serialpos": 10, "key_press": -1, "wordID": 1325, "type": "PRES_AUD", "trial_index": 31}, "uniqueid": "MTK3472:33LKR6A5KFR5323L3JREUB5KC5N1TU", "dateTime": 1520616087780}, {"current_trial": 32, "trialdata": {"rt": -1000, "trial_type": "single-audio", "word": "dress", "stimulus": "/static/audio/wordpool/DRESS.wav", "conditions": [18, 1200, "a", 18000], "internal_node_id": "0.0-23.0", "trial": 0, "time_elapsed": 685439, "serialpos": 11, "key_press": -1, "wordID": 494, "type": "PRES_AUD", "trial_index": 32}, "uniqueid": "MTK3472:33LKR6A5KFR5323L3JREUB5KC5N1TU", "dateTime": 1520616090178}, {"current_trial": 33, "trialdata": {"rt": -1000, "trial_type": "single-audio", "word": "widow", "stimulus": "/static/audio/wordpool/WIDOW.wav", "conditions": [18, 1200, "a", 18000], "internal_node_id": "0.0-24.0", "trial": 0, "time_elapsed": 687521, "serialpos": 12, "key_press": -1, "wordID": 1607, "type": "PRES_AUD", "trial_index": 33}, "uniqueid": "MTK3472:33LKR6A5KFR5323L3JREUB5KC5N1TU", "dateTime": 1520616092261}, {"current_trial": 34, "trialdata": {"rt": -1000, "trial_type": "single-audio", "word": "napkin", "stimulus": "/static/audio/wordpool/NAPKIN.wav", "conditions": [18, 1200, "a", 18000], "internal_node_id": "0.0-25.0", "trial": 0, "time_elapsed": 689572, "serialpos": 13, "key_press": -1, "wordID": 936, "type": "PRES_AUD", "trial_index": 34}, "uniqueid": "MTK3472:33LKR6A5KFR5323L3JREUB5KC5N1TU", "dateTime": 1520616094311}, {"current_trial": 35, "trialdata": {"rt": -1000, "trial_type": "single-audio", "word": "rebel", "stimulus": "/static/audio/wordpool/REBEL.wav", "conditions": [18, 1200, "a", 18000], "internal_node_id": "0.0-26.0", "trial": 0, "time_elapsed": 691926, "serialpos": 14, "key_press": -1, "wordID": 1171, "type": "PRES_AUD", "trial_index": 35}, "uniqueid": "MTK3472:33LKR6A5KFR5323L3JREUB5KC5N1TU", "dateTime": 1520616096665}, {"current_trial": 36, "trialdata": {"rt": -1000, "trial_type": "single-audio", "word": "dancer", "stimulus": "/static/audio/wordpool/DANCER.wav", "conditions": [18, 1200, "a", 18000], "internal_node_id": "0.0-27.0", "trial": 0, "time_elapsed": 694059, "serialpos": 15, "key_press": -1, "wordID": 436, "type": "PRES_AUD", "trial_index": 36}, "uniqueid": "MTK3472:33LKR6A5KFR5323L3JREUB5KC5N1TU", "dateTime": 1520616098798}, {"current_trial": 37, "trialdata": {"rt": -1000, "trial_type": "single-audio", "word": "money", "stimulus": "/static/audio/wordpool/MONEY.wav", "conditions": [18, 1200, "a", 18000], "internal_node_id": "0.0-28.0", "trial": 0, "time_elapsed": 696315, "serialpos": 16, "key_press": -1, "wordID": 907, "type": "PRES_AUD", "trial_index": 37}, "uniqueid": "MTK3472:33LKR6A5KFR5323L3JREUB5KC5N1TU", "dateTime": 1520616101054}, {"current_trial": 38, "trialdata": {"rt": -1000, "trial_type": "single-audio", "word": "pecan", "stimulus": "/static/audio/wordpool/PECAN.wav", "conditions": [18, 1200, "a", 18000], "internal_node_id": "0.0-29.0", "trial": 0, "time_elapsed": 698363, "serialpos": 17, "key_press": -1, "wordID": 1035, "type": "PRES_AUD", "trial_index": 38}, "uniqueid": "MTK3472:33LKR6A5KFR5323L3JREUB5KC5N1TU", "dateTime": 1520616103102}, {"current_trial": 39, "trialdata": {"rt": -1, "trial_type": "single-stim", "stimulus": "", "internal_node_id": "0.0-30.0-0.0", "time_elapsed": 699692, "key_press": -1, "type": "PRE_RECALL_DELAY", "trial_index": 39}, "uniqueid": "MTK3472:33LKR6A5KFR5323L3JREUB5KC5N1TU", "dateTime": 1520616104432}, {"current_trial": 40, "trialdata": {"rt": -1000, "trial_type": "single-audio", "stimulus": "/static/audio/400Hz.wav", "internal_node_id": "0.0-31.0", "time_elapsed": 700196, "key_press": -1, "type": "PRE_RECALL_ALERT", "trial_index": 40}, "uniqueid": "MTK3472:33LKR6A5KFR5323L3JREUB5KC5N1TU", "dateTime": 1520616104935}, {"current_trial": 41, "trialdata": {"rt": [22186, 40104], "recwords": ["money", "money"], "key_times": [7698, 7999, 9018, 9768, 11557, 22186, 24587, 25306, 25654, 26783, 27870, 40104, 57618, 57901, 58285, 58531, 58947], "trial_type": "free-recall", "conditions": [18, 1200, "a", 18000], "internal_node_id": "0.0-32.0-0.0", "key_presses": [77, 79, 78, 69, 89, 32, 77, 79, 78, 69, 89, 32, 82, 69, 66, 69, 76], "trial": 0, "time_elapsed": 760205, "type": "FREE_RECALL", "trial_index": 41}, "uniqueid": "MTK3472:33LKR6A5KFR5323L3JREUB5KC5N1TU", "dateTime": 1520616164950}, {"current_trial": 42, "trialdata": {"rt": 6048, "trial_type": "text", "internal_node_id": "0.0-33.0", "time_elapsed": 768260, "key_press": 32, "type": "INSTRUCTIONS", "trial_index": 42}, "uniqueid": "MTK3472:33LKR6A5KFR5323L3JREUB5KC5N1TU", "dateTime": 1520616172999}, {"current_trial": 43, "trialdata": {"rt": [8362, 12028, 14074, 17112], "trial_type": "math-distractor", "key_times": [4302, 5010, 8362, 10656, 11042, 12028, 13334, 14074, 16057, 17112], "responses": ["15", "19", "7", "9"], "num2": [2, 8, 1, 2, 6], "num3": [5, 7, 5, 1, 6], "conditions": [18, 1200, "a", 18000], "internal_node_id": "0.0-34.0", "key_presses": [49, 53, 13, 49, 57, 13, 55, 13, 57, 13], "trial": 1, "time_elapsed": 788263, "type": "DISTRACTOR", "trial_index": 43, "num1": [8, 4, 1, 6, 3]}, "uniqueid": "MTK3472:33LKR6A5KFR5323L3JREUB5KC5N1TU", "dateTime": 1520616193002}, {"current_trial": 44, "trialdata": {"rt": -1, "trial_type": "single-stim", "stimulus": "<p id=\"stim\">10</p>", "internal_node_id": "0.0-35.0-0.0", "time_elapsed": 791263, "key_press": -1, "trial_index": 44}, "uniqueid": "MTK3472:33LKR6A5KFR5323L3JREUB5KC5N1TU", "dateTime": 1520616196003}, {"current_trial": 45, "trialdata": {"rt": -1, "trial_type": "single-stim", "stimulus": "<p id=\"stim\">9</p>", "internal_node_id": "0.0-35.0-1.0", "time_elapsed": 792264, "key_press": -1, "trial_index": 45}, "uniqueid": "MTK3472:33LKR6A5KFR5323L3JREUB5KC5N1TU", "dateTime": 1520616197003}, {"current_trial": 46, "trialdata": {"rt": -1, "trial_type": "single-stim", "stimulus": "<p id=\"stim\">8</p>", "internal_node_id": "0.0-35.0-2.0", "time_elapsed": 793265, "key_press": -1, "trial_index": 46}, "uniqueid": "MTK3472:33LKR6A5KFR5323L3JREUB5KC5N1TU", "dateTime": 1520616198005}, {"current_trial": 47, "trialdata": {"rt": -1, "trial_type": "single-stim", "stimulus": "<p id=\"stim\">7</p>", "internal_node_id": "0.0-35.0-3.0", "time_elapsed": 794266, "key_press": -1, "trial_index": 47}, "uniqueid": "MTK3472:33LKR6A5KFR5323L3JREUB5KC5N1TU", "dateTime": 1520616199006}, {"current_trial": 48, "trialdata": {"rt": -1, "trial_type": "single-stim", "stimulus": "<p id=\"stim\">6</p>", "internal_node_id": "0.0-35.0-4.0", "time_elapsed": 795269, "key_press": -1, "trial_index": 48}, "uniqueid": "MTK3472:33LKR6A5KFR5323L3JREUB5KC5N1TU", "dateTime": 1520616200008}, {"current_trial": 49, "trialdata": {"rt": -1, "trial_type": "single-stim", "stimulus": "<p id=\"stim\">5</p>", "internal_node_id": "0.0-35.0-5.0", "time_elapsed": 796270, "key_press": -1, "trial_index": 49}, "uniqueid": "MTK3472:33LKR6A5KFR5323L3JREUB5KC5N1TU", "dateTime": 1520616201010}, {"current_trial": 50, "trialdata": {"rt": -1, "trial_type": "single-stim", "stimulus": "<p id=\"stim\">4</p>", "internal_node_id": "0.0-35.0-6.0", "time_elapsed": 797271, "key_press": -1, "trial_index": 50}, "uniqueid": "MTK3472:33LKR6A5KFR5323L3JREUB5KC5N1TU", "dateTime": 1520616202011}, {"current_trial": 51, "trialdata": {"rt": -1, "trial_type": "single-stim", "stimulus": "<p id=\"stim\">3</p>", "internal_node_id": "0.0-35.0-7.0", "time_elapsed": 798272, "key_press": -1, "trial_index": 51}, "uniqueid": "MTK3472:33LKR6A5KFR5323L3JREUB5KC5N1TU", "dateTime": 1520616203012}, {"current_trial": 52, "trialdata": {"rt": -1, "trial_type": "single-stim", "stimulus": "<p id=\"stim\">2</p>", "internal_node_id": "0.0-35.0-8.0", "time_elapsed": 799273, "key_press": -1, "trial_index": 52}, "uniqueid": "MTK3472:33LKR6A5KFR5323L3JREUB5KC5N1TU", "dateTime": 1520616204013}, {"current_trial": 53, "trialdata": {"rt": -1, "trial_type": "single-stim", "stimulus": "<p id=\"stim\">1</p>", "internal_node_id": "0.0-35.0-9.0", "time_elapsed": 800274, "key_press": -1, "trial_index": 53}, "uniqueid": "MTK3472:33LKR6A5KFR5323L3JREUB5KC5N1TU", "dateTime": 1520616205014}, {"current_trial": 54, "trialdata": {"rt": -1, "trial_type": "single-stim", "stimulus": "<p id=\"stim\">+</p>", "internal_node_id": "0.0-36.0-0.0", "time_elapsed": 801776, "key_press": -1, "type": "FIXATION", "trial_index": 54}, "uniqueid": "MTK3472:33LKR6A5KFR5323L3JREUB5KC5N1TU", "dateTime": 1520616206516}, {"current_trial": 55, "trialdata": {"rt": -1000, "trial_type": "single-audio", "word": "orange", "stimulus": "/static/audio/wordpool/ORANGE.wav", "conditions": [18, 1200, "a", 18000], "internal_node_id": "0.0-37.0", "trial": 1, "time_elapsed": 803910, "serialpos": 0, "key_press": -1, "wordID": 979, "type": "PRES_AUD", "trial_index": 55}, "uniqueid": "MTK3472:33LKR6A5KFR5323L3JREUB5KC5N1TU", "dateTime": 1520616208649}, {"current_trial": 56, "trialdata": {"rt": -1000, "trial_type": "single-audio", "word": "citrus", "stimulus": "/static/audio/wordpool/CITRUS.wav", "conditions": [18, 1200, "a", 18000], "internal_node_id": "0.0-38.0", "trial": 1, "time_elapsed": 806090, "serialpos": 1, "key_press": -1, "wordID": 312, "type": "PRES_AUD", "trial_index": 56}, "uniqueid": "MTK3472:33LKR6A5KFR5323L3JREUB5KC5N1TU", "dateTime": 1520616210830}, {"current_trial": 57, "trialdata": {"rt": -1000, "trial_type": "single-audio", "word": "dragon", "stimulus": "/static/audio/wordpool/DRAGON.wav", "conditions": [18, 1200, "a", 18000], "internal_node_id": "0.0-39.0", "trial": 1, "time_elapsed": 808371, "serialpos": 2, "key_press": -1, "wordID": 491, "type": "PRES_AUD", "trial_index": 57}, "uniqueid": "MTK3472:33LKR6A5KFR5323L3JREUB5KC5N1TU", "dateTime": 1520616213110}, {"current_trial": 58, "trialdata": {"rt": -1000, "trial_type": "single-audio", "word": "sandwich", "stimulus": "/static/audio/wordpool/SANDWICH.wav", "conditions": [18, 1200, "a", 18000], "internal_node_id": "0.0-40.0", "trial": 1, "time_elapsed": 810634, "serialpos": 3, "key_press": -1, "wordID": 1231, "type": "PRES_AUD", "trial_index": 58}, "uniqueid": "MTK3472:33LKR6A5KFR5323L3JREUB5KC5N1TU", "dateTime": 1520616215373}, {"current_trial": 59, "trialdata": {"rt": -1000, "trial_type": "single-audio", "word": "parsley", "stimulus": "/static/audio/wordpool/PARSLEY.wav", "conditions": [18, 1200, "a", 18000], "internal_node_id": "0.0-41.0", "trial": 1, "time_elapsed": 812693, "serialpos": 4, "key_press": -1, "wordID": 1015, "type": "PRES_AUD", "trial_index": 59}, "uniqueid": "MTK3472:33LKR6A5KFR5323L3JREUB5KC5N1TU", "dateTime": 1520616217432}, {"current_trial": 60, "trialdata": {"rt": -1000, "trial_type": "single-audio", "word": "scribble", "stimulus": "/static/audio/wordpool/SCRIBBLE.wav", "conditions": [18, 1200, "a", 18000], "internal_node_id": "0.0-42.0", "trial": 1, "time_elapsed": 815022, "serialpos": 5, "key_press": -1, "wordID": 1255, "type": "PRES_AUD", "trial_index": 60}, "uniqueid": "MTK3472:33LKR6A5KFR5323L3JREUB5KC5N1TU", "dateTime": 1520616219762}, {"current_trial": 61, "trialdata": {"rt": -1000, "trial_type": "single-audio", "word": "shoulder", "stimulus": "/static/audio/wordpool/SHOULDER.wav", "conditions": [18, 1200, "a", 18000], "internal_node_id": "0.0-43.0", "trial": 1, "time_elapsed": 817417, "serialpos": 6, "key_press": -1, "wordID": 1293, "type": "PRES_AUD", "trial_index": 61}, "uniqueid": "MTK3472:33LKR6A5KFR5323L3JREUB5KC5N1TU", "dateTime": 1520616222156}, {"current_trial": 62, "trialdata": {"rt": -1000, "trial_type": "single-audio", "word": "brook", "stimulus": "/static/audio/wordpool/BROOK.wav", "conditions": [18, 1200, "a", 18000], "internal_node_id": "0.0-44.0", "trial": 1, "time_elapsed": 819795, "serialpos": 7, "key_press": -1, "wordID": 176, "type": "PRES_AUD", "trial_index": 62}, "uniqueid": "MTK3472:33LKR6A5KFR5323L3JREUB5KC5N1TU", "dateTime": 1520616224534}, {"current_trial": 63, "trialdata": {"rt": -1000, "trial_type": "single-audio", "word": "harp", "stimulus": "/static/audio/wordpool/HARP.wav", "conditions": [18, 1200, "a", 18000], "internal_node_id": "0.0-45.0", "trial": 1, "time_elapsed": 821902, "serialpos": 8, "key_press": -1, "wordID": 688, "type": "PRES_AUD", "trial_index": 63}, "uniqueid": "MTK3472:33LKR6A5KFR5323L3JREUB5KC5N1TU", "dateTime": 1520616226641}, {"current_trial": 64, "trialdata": {"rt": -1000, "trial_type": "single-audio", "word": "leopard", "stimulus": "/static/audio/wordpool/LEOPARD.wav", "conditions": [18, 1200, "a", 18000], "internal_node_id": "0.0-46.0", "trial": 1, "time_elapsed": 824263, "serialpos": 9, "key_press": -1, "wordID": 811, "type": "PRES_AUD", "trial_index": 64}, "uniqueid": "MTK3472:33LKR6A5KFR5323L3JREUB5KC5N1TU", "dateTime": 1520616229002}, {"current_trial": 65, "trialdata": {"rt": -1000, "trial_type": "single-audio", "word": "label", "stimulus": "/static/audio/wordpool/LABEL.wav", "conditions": [18, 1200, "a", 18000], "internal_node_id": "0.0-47.0", "trial": 1, "time_elapsed": 826587, "serialpos": 10, "key_press": -1, "wordID": 789, "type": "PRES_AUD", "trial_index": 65}, "uniqueid": "MTK3472:33LKR6A5KFR5323L3JREUB5KC5N1TU", "dateTime": 1520616231326}, {"current_trial": 66, "trialdata": {"rt": -1000, "trial_type": "single-audio", "word": "rabbit", "stimulus": "/static/audio/wordpool/RABBIT.wav", "conditions": [18, 1200, "a", 18000], "internal_node_id": "0.0-48.0", "trial": 1, "time_elapsed": 828789, "serialpos": 11, "key_press": -1, "wordID": 1151, "type": "PRES_AUD", "trial_index": 66}, "uniqueid": "MTK3472:33LKR6A5KFR5323L3JREUB5KC5N1TU", "dateTime": 1520616233528}, {"current_trial": 67, "trialdata": {"rt": -1000, "trial_type": "single-audio", "word": "oyster", "stimulus": "/static/audio/wordpool/OYSTER.wav", "conditions": [18, 1200, "a", 18000], "internal_node_id": "0.0-49.0", "trial": 1, "time_elapsed": 831187, "serialpos": 12, "key_press": -1, "wordID": 994, "type": "PRES_AUD", "trial_index": 67}, "uniqueid": "MTK3472:33LKR6A5KFR5323L3JREUB5KC5N1TU", "dateTime": 1520616235926}, {"current_trial": 68, "trialdata": {"rt": -1000, "trial_type": "single-audio", "word": "cobra", "stimulus": "/static/audio/wordpool/COBRA.wav", "conditions": [18, 1200, "a", 18000], "internal_node_id": "0.0-50.0", "trial": 1, "time_elapsed": 833316, "serialpos": 13, "key_press": -1, "wordID": 335, "type": "PRES_AUD", "trial_index": 68}, "uniqueid": "MTK3472:33LKR6A5KFR5323L3JREUB5KC5N1TU", "dateTime": 1520616238059}, {"current_trial": 69, "trialdata": {"rt": -1000, "trial_type": "single-audio", "word": "statue", "stimulus": "/static/audio/wordpool/STATUE.wav", "conditions": [18, 1200, "a", 18000], "internal_node_id": "0.0-51.0", "trial": 1, "time_elapsed": 835667, "serialpos": 14, "key_press": -1, "wordID": 1373, "type": "PRES_AUD", "trial_index": 69}, "uniqueid": "MTK3472:33LKR6A5KFR5323L3JREUB5KC5N1TU", "dateTime": 1520616240406}, {"current_trial": 70, "trialdata": {"rt": -1000, "trial_type": "single-audio", "word": "scarf", "stimulus": "/static/audio/wordpool/SCARF.wav", "conditions": [18, 1200, "a", 18000], "internal_node_id": "0.0-52.0", "trial": 1, "time_elapsed": 837994, "serialpos": 15, "key_press": -1, "wordID": 1245, "type": "PRES_AUD", "trial_index": 70}, "uniqueid": "MTK3472:33LKR6A5KFR5323L3JREUB5KC5N1TU", "dateTime": 1520616242733}, {"current_trial": 71, "trialdata": {"rt": -1000, "trial_type": "single-audio", "word": "pudding", "stimulus": "/static/audio/wordpool/PUDDING.wav", "conditions": [18, 1200, "a", 18000], "internal_node_id": "0.0-53.0", "trial": 1, "time_elapsed": 840055, "serialpos": 16, "key_press": -1, "wordID": 1138, "type": "PRES_AUD", "trial_index": 71}, "uniqueid": "MTK3472:33LKR6A5KFR5323L3JREUB5KC5N1TU", "dateTime": 1520616244794}, {"current_trial": 72, "trialdata": {"rt": -1000, "trial_type": "single-audio", "word": "shelter", "stimulus": "/static/audio/wordpool/SHELTER.wav", "conditions": [18, 1200, "a", 18000], "internal_node_id": "0.0-54.0", "trial": 1, "time_elapsed": 842058, "serialpos": 17, "key_press": -1, "wordID": 1281, "type": "PRES_AUD", "trial_index": 72}, "uniqueid": "MTK3472:33LKR6A5KFR5323L3JREUB5KC5N1TU", "dateTime": 1520616246797}, {"current_trial": 73, "trialdata": {"rt": -1, "trial_type": "single-stim", "stimulus": "", "internal_node_id": "0.0-55.0-0.0", "time_elapsed": 843382, "key_press": -1, "type": "PRE_RECALL_DELAY", "trial_index": 73}, "uniqueid": "MTK3472:33LKR6A5KFR5323L3JREUB5KC5N1TU", "dateTime": 1520616248122}, {"current_trial": 74, "trialdata": {"rt": -1000, "trial_type": "single-audio", "stimulus": "/static/audio/400Hz.wav", "internal_node_id": "0.0-56.0", "time_elapsed": 843884, "key_press": -1, "type": "PRE_RECALL_ALERT", "trial_index": 74}, "uniqueid": "MTK3472:33LKR6A5KFR5323L3JREUB5KC5N1TU", "dateTime": 1520616248624}, {"current_trial": 75, "trialdata": {"rt": [12720, 25952, 33935, 42655], "recwords": ["pudding", "rabbit", "scarf", "brook"], "key_times": [6196, 6593, 6933, 7135, 7322, 7681, 7846, 12720, 21249, 21530, 21798, 21976, 22389, 23230, 25952, 31708, 32016, 32768, 33008, 33284, 33935, 39559, 39852, 40004, 40604, 40785, 41078, 41259, 41444, 41751, 42655], "trial_type": "free-recall", "conditions": [18, 1200, "a", 18000], "internal_node_id": "0.0-57.0-0.0", "key_presses": [80, 85, 68, 68, 73, 78, 71, 13, 82, 65, 66, 66, 73, 84, 13, 83, 67, 65, 82, 70, 13, 66, 79, 79, 8, 8, 82, 79, 79, 75, 13], "trial": 1, "time_elapsed": 903890, "type": "FREE_RECALL", "trial_index": 75}, "uniqueid": "MTK3472:33LKR6A5KFR5323L3JREUB5KC5N1TU", "dateTime": 1520616308639}, {"current_trial": 76, "trialdata": {"rt": 7691, "trial_type": "text", "internal_node_id": "0.0-58.0", "time_elapsed": 913592, "key_press": 70, "type": "INSTRUCTIONS", "trial_index": 76}, "uniqueid": "MTK3472:33LKR6A5KFR5323L3JREUB5KC5N1TU", "dateTime": 1520616318332}, {"current_trial": 77, "trialdata": {"rt": [6793, 9733], "trial_type": "math-distractor", "key_times": [5041, 5448, 6793, 8594, 9248, 9733], "responses": ["19", "13"], "num2": [4, 1, 7], "num3": [6, 8, 4], "conditions": [12, 1600, "a", 12000], "internal_node_id": "0.0-59.0", "key_presses": [49, 57, 13, 49, 51, 13], "trial": 2, "time_elapsed": 926598, "type": "DISTRACTOR", "trial_index": 77, "num1": [9, 4, 4]}, "uniqueid": "MTK3472:33LKR6A5KFR5323L3JREUB5KC5N1TU", "dateTime": 1520616331337}, {"current_trial": 78, "trialdata": {"rt": -1, "trial_type": "single-stim", "stimulus": "<p id=\"stim\">10</p>", "internal_node_id": "0.0-60.0-0.0", "time_elapsed": 929600, "key_press": -1, "trial_index": 78}, "uniqueid": "MTK3472:33LKR6A5KFR5323L3JREUB5KC5N1TU", "dateTime": 1520616334340}, {"current_trial": 79, "trialdata": {"rt": -1, "trial_type": "single-stim", "stimulus": "<p id=\"stim\">9</p>", "internal_node_id": "0.0-60.0-1.0", "time_elapsed": 930602, "key_press": -1, "trial_index": 79}, "uniqueid": "MTK3472:33LKR6A5KFR5323L3JREUB5KC5N1TU", "dateTime": 1520616335341}, {"current_trial": 80, "trialdata": {"rt": -1, "trial_type": "single-stim", "stimulus": "<p id=\"stim\">8</p>", "internal_node_id": "0.0-60.0-2.0", "time_elapsed": 931604, "key_press": -1, "trial_index": 80}, "uniqueid": "MTK3472:33LKR6A5KFR5323L3JREUB5KC5N1TU", "dateTime": 1520616336343}, {"current_trial": 81, "trialdata": {"rt": -1, "trial_type": "single-stim", "stimulus": "<p id=\"stim\">7</p>", "internal_node_id": "0.0-60.0-3.0", "time_elapsed": 932606, "key_press": -1, "trial_index": 81}, "uniqueid": "MTK3472:33LKR6A5KFR5323L3JREUB5KC5N1TU", "dateTime": 1520616337345}, {"current_trial": 82, "trialdata": {"rt": -1, "trial_type": "single-stim", "stimulus": "<p id=\"stim\">6</p>", "internal_node_id": "0.0-60.0-4.0", "time_elapsed": 933608, "key_press": -1, "trial_index": 82}, "uniqueid": "MTK3472:33LKR6A5KFR5323L3JREUB5KC5N1TU", "dateTime": 1520616338347}, {"current_trial": 83, "trialdata": {"rt": -1, "trial_type": "single-stim", "stimulus": "<p id=\"stim\">5</p>", "internal_node_id": "0.0-60.0-5.0", "time_elapsed": 934610, "key_press": -1, "trial_index": 83}, "uniqueid": "MTK3472:33LKR6A5KFR5323L3JREUB5KC5N1TU", "dateTime": 1520616339349}, {"current_trial": 84, "trialdata": {"rt": -1, "trial_type": "single-stim", "stimulus": "<p id=\"stim\">4</p>", "internal_node_id": "0.0-60.0-6.0", "time_elapsed": 935612, "key_press": -1, "trial_index": 84}, "uniqueid": "MTK3472:33LKR6A5KFR5323L3JREUB5KC5N1TU", "dateTime": 1520616340351}, {"current_trial": 85, "trialdata": {"rt": -1, "trial_type": "single-stim", "stimulus": "<p id=\"stim\">3</p>", "internal_node_id": "0.0-60.0-7.0", "time_elapsed": 936614, "key_press": -1, "trial_index": 85}, "uniqueid": "MTK3472:33LKR6A5KFR5323L3JREUB5KC5N1TU", "dateTime": 1520616341353}, {"current_trial": 86, "trialdata": {"rt": -1, "trial_type": "single-stim", "stimulus": "<p id=\"stim\">2</p>", "internal_node_id": "0.0-60.0-8.0", "time_elapsed": 937616, "key_press": -1, "trial_index": 86}, "uniqueid": "MTK3472:33LKR6A5KFR5323L3JREUB5KC5N1TU", "dateTime": 1520616342356}, {"current_trial": 87, "trialdata": {"rt": -1, "trial_type": "single-stim", "stimulus": "<p id=\"stim\">1</p>", "internal_node_id": "0.0-60.0-9.0", "time_elapsed": 938618, "key_press": -1, "trial_index": 87}, "uniqueid": "MTK3472:33LKR6A5KFR5323L3JREUB5KC5N1TU", "dateTime": 1520616343357}, {"current_trial": 88, "trialdata": {"rt": -1, "trial_type": "single-stim", "stimulus": "<p id=\"stim\">+</p>", "internal_node_id": "0.0-61.0-0.0", "time_elapsed": 940120, "key_press": -1, "type": "FIXATION", "trial_index": 88}, "uniqueid": "MTK3472:33LKR6A5KFR5323L3JREUB5KC5N1TU", "dateTime": 1520616344860}, {"current_trial": 89, "trialdata": {"rt": -1000, "trial_type": "single-audio", "word": "hawk", "stimulus": "/static/audio/wordpool/HAWK.wav", "conditions": [12, 1600, "a", 12000], "internal_node_id": "0.0-62.0", "trial": 2, "time_elapsed": 942724, "serialpos": 0, "key_press": -1, "wordID": 691, "type": "PRES_AUD", "trial_index": 89}, "uniqueid": "MTK3472:33LKR6A5KFR5323L3JREUB5KC5N1TU", "dateTime": 1520616347463}, {"current_trial": 90, "trialdata": {"rt": -1000, "trial_type": "single-audio", "word": "airplane", "stimulus": "/static/audio/wordpool/AIRPLANE.wav", "conditions": [12, 1600, "a", 12000], "internal_node_id": "0.0-63.0", "trial": 2, "time_elapsed": 945343, "serialpos": 1, "key_press": -1, "wordID": 11, "type": "PRES_AUD", "trial_index": 90}, "uniqueid": "MTK3472:33LKR6A5KFR5323L3JREUB5KC5N1TU", "dateTime": 1520616350082}, {"current_trial": 91, "trialdata": {"rt": -1000, "trial_type": "single-audio", "word": "plate", "stimulus": "/static/audio/wordpool/PLATE.wav", "conditions": [12, 1600, "a", 12000], "internal_node_id": "0.0-64.0", "trial": 2, "time_elapsed": 947967, "serialpos": 2, "key_press": -1, "wordID": 1085, "type": "PRES_AUD", "trial_index": 91}, "uniqueid": "MTK3472:33LKR6A5KFR5323L3JREUB5KC5N1TU", "dateTime": 1520616352707}, {"current_trial": 92, "trialdata": {"rt": -1000, "trial_type": "single-audio", "word": "permit", "stimulus": "/static/audio/wordpool/PERMIT.wav", "conditions": [12, 1600, "a", 12000], "internal_node_id": "0.0-65.0", "trial": 2, "time_elapsed": 950718, "serialpos": 3, "key_press": -1, "wordID": 1050, "type": "PRES_AUD", "trial_index": 92}, "uniqueid": "MTK3472:33LKR6A5KFR5323L3JREUB5KC5N1TU", "dateTime": 1520616355457}, {"current_trial": 93, "trialdata": {"rt": -1000, "trial_type": "single-audio", "word": "lapel", "stimulus": "/static/audio/wordpool/LAPEL.wav", "conditions": [12, 1600, "a", 12000], "internal_node_id": "0.0-66.0", "trial": 2, "time_elapsed": 953124, "serialpos": 4, "key_press": -1, "wordID": 799, "type": "PRES_AUD", "trial_index": 93}, "uniqueid": "MTK3472:33LKR6A5KFR5323L3JREUB5KC5N1TU", "dateTime": 1520616357863}, {"current_trial": 94, "trialdata": {"rt": -1000, "trial_type": "single-audio", "word": "turnip", "stimulus": "/static/audio/wordpool/TURNIP.wav", "conditions": [12, 1600, "a", 12000], "internal_node_id": "0.0-67.0", "trial": 2, "time_elapsed": 955527, "serialpos": 5, "key_press": -1, "wordID": 1520, "type": "PRES_AUD", "trial_index": 94}, "uniqueid": "MTK3472:33LKR6A5KFR5323L3JREUB5KC5N1TU", "dateTime": 1520616360266}, {"current_trial": 95, "trialdata": {"rt": -1000, "trial_type": "single-audio", "word": "sister", "stimulus": "/static/audio/wordpool/SISTER.wav", "conditions": [12, 1600, "a", 12000], "internal_node_id": "0.0-68.0", "trial": 2, "time_elapsed": 958271, "serialpos": 6, "key_press": -1, "wordID": 1311, "type": "PRES_AUD", "trial_index": 95}, "uniqueid": "MTK3472:33LKR6A5KFR5323L3JREUB5KC5N1TU", "dateTime": 1520616363010}, {"current_trial": 96, "trialdata": {"rt": -1000, "trial_type": "single-audio", "word": "bug", "stimulus": "/static/audio/wordpool/BUG.wav", "conditions": [12, 1600, "a", 12000], "internal_node_id": "0.0-69.0", "trial": 2, "time_elapsed": 960753, "serialpos": 7, "key_press": -1, "wordID": 186, "type": "PRES_AUD", "trial_index": 96}, "uniqueid": "MTK3472:33LKR6A5KFR5323L3JREUB5KC5N1TU", "dateTime": 1520616365492}, {"current_trial": 97, "trialdata": {"rt": -1000, "trial_type": "single-audio", "word": "virus", "stimulus": "/static/audio/wordpool/VIRUS.wav", "conditions": [12, 1600, "a", 12000], "internal_node_id": "0.0-70.0", "trial": 2, "time_elapsed": 963381, "serialpos": 8, "key_press": -1, "wordID": 1571, "type": "PRES_AUD", "trial_index": 97}, "uniqueid": "MTK3472:33LKR6A5KFR5323L3JREUB5KC5N1TU", "dateTime": 1520616368120}, {"current_trial": 98, "trialdata": {"rt": -1000, "trial_type": "single-audio", "word": "donor", "stimulus": "/static/audio/wordpool/DONOR.wav", "conditions": [12, 1600, "a", 12000], "internal_node_id": "0.0-71.0", "trial": 2, "time_elapsed": 965922, "serialpos": 9, "key_press": -1, "wordID": 484, "type": "PRES_AUD", "trial_index": 98}, "uniqueid": "MTK3472:33LKR6A5KFR5323L3JREUB5KC5N1TU", "dateTime": 1520616370661}, {"current_trial": 99, "trialdata": {"rt": -1000, "trial_type": "single-audio", "word": "brother", "stimulus": "/static/audio/wordpool/BROTHER.wav", "conditions": [12, 1600, "a", 12000], "internal_node_id": "0.0-72.0", "trial": 2, "time_elapsed": 968424, "serialpos": 10, "key_press": -1, "wordID": 178, "type": "PRES_AUD", "trial_index": 99}, "uniqueid": "MTK3472:33LKR6A5KFR5323L3JREUB5KC5N1TU", "dateTime": 1520616373163}, {"current_trial": 100, "trialdata": {"rt": -1000, "trial_type": "single-audio", "word": "lodge", "stimulus": "/static/audio/wordpool/LODGE.wav", "conditions": [12, 1600, "a", 12000], "internal_node_id": "0.0-73.0", "trial": 2, "time_elapsed": 970833, "serialpos": 11, "key_press": -1, "wordID": 838, "type": "PRES_AUD", "trial_index": 100}, "uniqueid": "MTK3472:33LKR6A5KFR5323L3JREUB5KC5N1TU", "dateTime": 1520616375572}, {"current_trial": 101, "trialdata": {"rt": -1, "trial_type": "single-stim", "stimulus": "", "internal_node_id": "0.0-74.0-0.0", "time_elapsed": 972227, "key_press": -1, "type": "PRE_RECALL_DELAY", "trial_index": 101}, "uniqueid": "MTK3472:33LKR6A5KFR5323L3JREUB5KC5N1TU", "dateTime": 1520616376967}, {"current_trial": 102, "trialdata": {"rt": -1000, "trial_type": "single-audio", "stimulus": "/static/audio/400Hz.wav", "internal_node_id": "0.0-75.0", "time_elapsed": 972729, "key_press": -1, "type": "PRE_RECALL_ALERT", "trial_index": 102}, "uniqueid": "MTK3472:33LKR6A5KFR5323L3JREUB5KC5N1TU", "dateTime": 1520616377468}, {"current_trial": 103, "trialdata": {"rt": [5167, 9797, 16285, 34314, 40752, 48509], "recwords": ["sister", "brother", "turnip", "louge", "airplane", "bug"], "key_times": [2836, 3698, 3856, 4063, 4225, 4419, 4585, 4640, 5167, 5691, 5967, 6238, 6693, 6831, 7044, 7119, 7179, 7719, 7906, 8086, 8268, 8463, 8804, 9030, 9121, 9168, 9797, 14583, 14748, 14876, 15374, 15583, 15845, 16285, 19580, 20318, 20626, 25543, 27025, 27231, 30146, 31192, 31528, 31959, 32537, 34314, 38231, 38723, 38793, 39137, 39508, 39975, 40230, 40329, 40752, 47595, 47751, 48082, 48509], "trial_type": "free-recall", "conditions": [12, 1600, "a", 12000], "internal_node_id": "0.0-76.0-0.0", "key_presses": [66, 8, 83, 73, 83, 84, 69, 82, 13, 66, 82, 79, 65, 84, 72, 69, 82, 8, 8, 8, 8, 8, 84, 72, 69, 82, 13, 84, 85, 82, 78, 73, 80, 13, 76, 79, 85, 78, 8, 8, 78, 8, 85, 71, 69, 13, 65, 73, 82, 80, 76, 65, 78, 69, 13, 66, 85, 71, 13], "trial": 2, "time_elapsed": 1032735, "type": "FREE_RECALL", "trial_index": 103}, "uniqueid": "MTK3472:33LKR6A5KFR5323L3JREUB5KC5N1TU", "dateTime": 1520616437484}, {"current_trial": 104, "trialdata": {"rt": 32300, "trial_type": "text", "internal_node_id": "0.0-77.0", "time_elapsed": 1067046, "key_press": 32, "type": "INSTRUCTIONS", "trial_index": 104}, "uniqueid": "MTK3472:33LKR6A5KFR5323L3JREUB5KC5N1TU", "dateTime": 1520616471786}, {"current_trial": 105, "trialdata": {"rt": [5474, 9894], "trial_type": "math-distractor", "key_times": [2491, 2847, 5474, 7916, 8490, 9894], "responses": ["19", "16"], "num2": [4, 9, 8], "num3": [6, 5, 7], "conditions": [24, 800, "a", 12000], "internal_node_id": "0.0-78.0", "key_presses": [49, 57, 13, 49, 54, 13], "trial": 3, "time_elapsed": 1081053, "type": "DISTRACTOR", "trial_index": 105, "num1": [9, 2, 3]}, "uniqueid": "MTK3472:33LKR6A5KFR5323L3JREUB5KC5N1TU", "dateTime": 1520616485792}, {"current_trial": 106, "trialdata": {"rt": -1, "trial_type": "single-stim", "stimulus": "<p id=\"stim\">10</p>", "internal_node_id": "0.0-79.0-0.0", "time_elapsed": 1084055, "key_press": -1, "trial_index": 106}, "uniqueid": "MTK3472:33LKR6A5KFR5323L3JREUB5KC5N1TU", "dateTime": 1520616488795}, {"current_trial": 107, "trialdata": {"rt": -1, "trial_type": "single-stim", "stimulus": "<p id=\"stim\">9</p>", "internal_node_id": "0.0-79.0-1.0", "time_elapsed": 1085056, "key_press": -1, "trial_index": 107}, "uniqueid": "MTK3472:33LKR6A5KFR5323L3JREUB5KC5N1TU", "dateTime": 1520616489796}, {"current_trial": 108, "trialdata": {"rt": -1, "trial_type": "single-stim", "stimulus": "<p id=\"stim\">8</p>", "internal_node_id": "0.0-79.0-2.0", "time_elapsed": 1086059, "key_press": -1, "trial_index": 108}, "uniqueid": "MTK3472:33LKR6A5KFR5323L3JREUB5KC5N1TU", "dateTime": 1520616490798}, {"current_trial": 109, "trialdata": {"rt": -1, "trial_type": "single-stim", "stimulus": "<p id=\"stim\">7</p>", "internal_node_id": "0.0-79.0-3.0", "time_elapsed": 1087061, "key_press": -1, "trial_index": 109}, "uniqueid": "MTK3472:33LKR6A5KFR5323L3JREUB5KC5N1TU", "dateTime": 1520616491800}, {"current_trial": 110, "trialdata": {"rt": -1, "trial_type": "single-stim", "stimulus": "<p id=\"stim\">6</p>", "internal_node_id": "0.0-79.0-4.0", "time_elapsed": 1088062, "key_press": -1, "trial_index": 110}, "uniqueid": "MTK3472:33LKR6A5KFR5323L3JREUB5KC5N1TU", "dateTime": 1520616492801}, {"current_trial": 111, "trialdata": {"rt": -1, "trial_type": "single-stim", "stimulus": "<p id=\"stim\">5</p>", "internal_node_id": "0.0-79.0-5.0", "time_elapsed": 1089064, "key_press": -1, "trial_index": 111}, "uniqueid": "MTK3472:33LKR6A5KFR5323L3JREUB5KC5N1TU", "dateTime": 1520616493803}, {"current_trial": 112, "trialdata": {"rt": -1, "trial_type": "single-stim", "stimulus": "<p id=\"stim\">4</p>", "internal_node_id": "0.0-79.0-6.0", "time_elapsed": 1090066, "key_press": -1, "trial_index": 112}, "uniqueid": "MTK3472:33LKR6A5KFR5323L3JREUB5KC5N1TU", "dateTime": 1520616494805}, {"current_trial": 113, "trialdata": {"rt": -1, "trial_type": "single-stim", "stimulus": "<p id=\"stim\">3</p>", "internal_node_id": "0.0-79.0-7.0", "time_elapsed": 1091068, "key_press": -1, "trial_index": 113}, "uniqueid": "MTK3472:33LKR6A5KFR5323L3JREUB5KC5N1TU", "dateTime": 1520616495807}, {"current_trial": 114, "trialdata": {"rt": -1, "trial_type": "single-stim", "stimulus": "<p id=\"stim\">2</p>", "internal_node_id": "0.0-79.0-8.0", "time_elapsed": 1092070, "key_press": -1, "trial_index": 114}, "uniqueid": "MTK3472:33LKR6A5KFR5323L3JREUB5KC5N1TU", "dateTime": 1520616496810}, {"current_trial": 115, "trialdata": {"rt": -1, "trial_type": "single-stim", "stimulus": "<p id=\"stim\">1</p>", "internal_node_id": "0.0-79.0-9.0", "time_elapsed": 1093072, "key_press": -1, "trial_index": 115}, "uniqueid": "MTK3472:33LKR6A5KFR5323L3JREUB5KC5N1TU", "dateTime": 1520616497812}, {"current_trial": 116, "trialdata": {"rt": -1, "trial_type": "single-stim", "stimulus": "<p id=\"stim\">+</p>", "internal_node_id": "0.0-80.0-0.0", "time_elapsed": 1094575, "key_press": -1, "type": "FIXATION", "trial_index": 116}, "uniqueid": "MTK3472:33LKR6A5KFR5323L3JREUB5KC5N1TU", "dateTime": 1520616499314}, {"current_trial": 117, "trialdata": {"rt": -1000, "trial_type": "single-audio", "word": "chauffeur", "stimulus": "/static/audio/wordpool/CHAUFFEUR.wav", "conditions": [24, 800, "a", 12000], "internal_node_id": "0.0-81.0", "trial": 3, "time_elapsed": 1096244, "serialpos": 0, "key_press": -1, "wordID": 282, "type": "PRES_AUD", "trial_index": 117}, "uniqueid": "MTK3472:33LKR6A5KFR5323L3JREUB5KC5N1TU", "dateTime": 1520616500983}, {"current_trial": 118, "trialdata": {"rt": -1000, "trial_type": "single-audio", "word": "custard", "stimulus": "/static/audio/wordpool/CUSTARD.wav", "conditions": [24, 800, "a", 12000], "internal_node_id": "0.0-82.0", "trial": 3, "time_elapsed": 1097960, "serialpos": 1, "key_press": -1, "wordID": 428, "type": "PRES_AUD", "trial_index": 118}, "uniqueid": "MTK3472:33LKR6A5KFR5323L3JREUB5KC5N1TU", "dateTime": 1520616502699}, {"current_trial": 119, "trialdata": {"rt": -1000, "trial_type": "single-audio", "word": "peach", "stimulus": "/static/audio/wordpool/PEACH.wav", "conditions": [24, 800, "a", 12000], "internal_node_id": "0.0-83.0", "trial": 3, "time_elapsed": 1099923, "serialpos": 2, "key_press": -1, "wordID": 1030, "type": "PRES_AUD", "trial_index": 119}, "uniqueid": "MTK3472:33LKR6A5KFR5323L3JREUB5KC5N1TU", "dateTime": 1520616504663}, {"current_trial": 120, "trialdata": {"rt": -1000, "trial_type": "single-audio", "word": "fungus", "stimulus": "/static/audio/wordpool/FUNGUS.wav", "conditions": [24, 800, "a", 12000], "internal_node_id": "0.0-84.0", "trial": 3, "time_elapsed": 1101801, "serialpos": 3, "key_press": -1, "wordID": 613, "type": "PRES_AUD", "trial_index": 120}, "uniqueid": "MTK3472:33LKR6A5KFR5323L3JREUB5KC5N1TU", "dateTime": 1520616506540}, {"current_trial": 121, "trialdata": {"rt": -1000, "trial_type": "single-audio", "word": "termite", "stimulus": "/static/audio/wordpool/TERMITE.wav", "conditions": [24, 800, "a", 12000], "internal_node_id": "0.0-85.0", "trial": 3, "time_elapsed": 1103652, "serialpos": 4, "key_press": -1, "wordID": 1450, "type": "PRES_AUD", "trial_index": 121}, "uniqueid": "MTK3472:33LKR6A5KFR5323L3JREUB5KC5N1TU", "dateTime": 1520616508391}, {"current_trial": 122, "trialdata": {"rt": -1000, "trial_type": "single-audio", "word": "stallion", "stimulus": "/static/audio/wordpool/STALLION.wav", "conditions": [24, 800, "a", 12000], "internal_node_id": "0.0-86.0", "trial": 3, "time_elapsed": 1105530, "serialpos": 5, "key_press": -1, "wordID": 1368, "type": "PRES_AUD", "trial_index": 122}, "uniqueid": "MTK3472:33LKR6A5KFR5323L3JREUB5KC5N1TU", "dateTime": 1520616510269}, {"current_trial": 123, "trialdata": {"rt": -1000, "trial_type": "single-audio", "word": "branch", "stimulus": "/static/audio/wordpool/BRANCH.wav", "conditions": [24, 800, "a", 12000], "internal_node_id": "0.0-87.0", "trial": 3, "time_elapsed": 1107399, "serialpos": 6, "key_press": -1, "wordID": 167, "type": "PRES_AUD", "trial_index": 123}, "uniqueid": "MTK3472:33LKR6A5KFR5323L3JREUB5KC5N1TU", "dateTime": 1520616512138}, {"current_trial": 124, "trialdata": {"rt": -1000, "trial_type": "single-audio", "word": "pasta", "stimulus": "/static/audio/wordpool/PASTA.wav", "conditions": [24, 800, "a", 12000], "internal_node_id": "0.0-88.0", "trial": 3, "time_elapsed": 1109088, "serialpos": 7, "key_press": -1, "wordID": 1020, "type": "PRES_AUD", "trial_index": 124}, "uniqueid": "MTK3472:33LKR6A5KFR5323L3JREUB5KC5N1TU", "dateTime": 1520616513827}, {"current_trial": 125, "trialdata": {"rt": -1000, "trial_type": "single-audio", "word": "omelet", "stimulus": "/static/audio/wordpool/OMELET.wav", "conditions": [24, 800, "a", 12000], "internal_node_id": "0.0-89.0", "trial": 3, "time_elapsed": 1111079, "serialpos": 8, "key_press": -1, "wordID": 975, "type": "PRES_AUD", "trial_index": 125}, "uniqueid": "MTK3472:33LKR6A5KFR5323L3JREUB5KC5N1TU", "dateTime": 1520616515818}, {"current_trial": 126, "trialdata": {"rt": -1000, "trial_type": "single-audio", "word": "outfit", "stimulus": "/static/audio/wordpool/OUTFIT.wav", "conditions": [24, 800, "a", 12000], "internal_node_id": "0.0-90.0", "trial": 3, "time_elapsed": 1113049, "serialpos": 9, "key_press": -1, "wordID": 987, "type": "PRES_AUD", "trial_index": 126}, "uniqueid": "MTK3472:33LKR6A5KFR5323L3JREUB5KC5N1TU", "dateTime": 1520616517788}, {"current_trial": 127, "trialdata": {"rt": -1000, "trial_type": "single-audio", "word": "sparrow", "stimulus": "/static/audio/wordpool/SPARROW.wav", "conditions": [24, 800, "a", 12000], "internal_node_id": "0.0-91.0", "trial": 3, "time_elapsed": 1115007, "serialpos": 10, "key_press": -1, "wordID": 1346, "type": "PRES_AUD", "trial_index": 127}, "uniqueid": "MTK3472:33LKR6A5KFR5323L3JREUB5KC5N1TU", "dateTime": 1520616519746}, {"current_trial": 128, "trialdata": {"rt": -1000, "trial_type": "single-audio", "word": "mailbox", "stimulus": "/static/audio/wordpool/MAILBOX.wav", "conditions": [24, 800, "a", 12000], "internal_node_id": "0.0-92.0", "trial": 3, "time_elapsed": 1116857, "serialpos": 11, "key_press": -1, "wordID": 856, "type": "PRES_AUD", "trial_index": 128}, "uniqueid": "MTK3472:33LKR6A5KFR5323L3JREUB5KC5N1TU", "dateTime": 1520616521596}, {"current_trial": 129, "trialdata": {"rt": -1000, "trial_type": "single-audio", "word": "mammal", "stimulus": "/static/audio/wordpool/MAMMAL.wav", "conditions": [24, 800, "a", 12000], "internal_node_id": "0.0-93.0", "trial": 3, "time_elapsed": 1118843, "serialpos": 12, "key_press": -1, "wordID": 860, "type": "PRES_AUD", "trial_index": 129}, "uniqueid": "MTK3472:33LKR6A5KFR5323L3JREUB5KC5N1TU", "dateTime": 1520616523582}, {"current_trial": 130, "trialdata": {"rt": -1000, "trial_type": "single-audio", "word": "headband", "stimulus": "/static/audio/wordpool/HEADBAND.wav", "conditions": [24, 800, "a", 12000], "internal_node_id": "0.0-94.0", "trial": 3, "time_elapsed": 1120589, "serialpos": 13, "key_press": -1, "wordID": 695, "type": "PRES_AUD", "trial_index": 130}, "uniqueid": "MTK3472:33LKR6A5KFR5323L3JREUB5KC5N1TU", "dateTime": 1520616525328}, {"current_trial": 131, "trialdata": {"rt": -1000, "trial_type": "single-audio", "word": "couch", "stimulus": "/static/audio/wordpool/COUCH.wav", "conditions": [24, 800, "a", 12000], "internal_node_id": "0.0-95.0", "trial": 3, "time_elapsed": 1122241, "serialpos": 14, "key_press": -1, "wordID": 385, "type": "PRES_AUD", "trial_index": 131}, "uniqueid": "MTK3472:33LKR6A5KFR5323L3JREUB5KC5N1TU", "dateTime": 1520616526980}, {"current_trial": 132, "trialdata": {"rt": -1000, "trial_type": "single-audio", "word": "asia", "stimulus": "/static/audio/wordpool/ASIA.wav", "conditions": [24, 800, "a", 12000], "internal_node_id": "0.0-96.0", "trial": 3, "time_elapsed": 1124192, "serialpos": 15, "key_press": -1, "wordID": 45, "type": "PRES_AUD", "trial_index": 132}, "uniqueid": "MTK3472:33LKR6A5KFR5323L3JREUB5KC5N1TU", "dateTime": 1520616528931}, {"current_trial": 133, "trialdata": {"rt": -1000, "trial_type": "single-audio", "word": "primate", "stimulus": "/static/audio/wordpool/PRIMATE.wav", "conditions": [24, 800, "a", 12000], "internal_node_id": "0.0-97.0", "trial": 3, "time_elapsed": 1125958, "serialpos": 16, "key_press": -1, "wordID": 1122, "type": "PRES_AUD", "trial_index": 133}, "uniqueid": "MTK3472:33LKR6A5KFR5323L3JREUB5KC5N1TU", "dateTime": 1520616530697}, {"current_trial": 134, "trialdata": {"rt": -1000, "trial_type": "single-audio", "word": "patrol", "stimulus": "/static/audio/wordpool/PATROL.wav", "conditions": [24, 800, "a", 12000], "internal_node_id": "0.0-98.0", "trial": 3, "time_elapsed": 1127610, "serialpos": 17, "key_press": -1, "wordID": 1026, "type": "PRES_AUD", "trial_index": 134}, "uniqueid": "MTK3472:33LKR6A5KFR5323L3JREUB5KC5N1TU", "dateTime": 1520616532349}, {"current_trial": 135, "trialdata": {"rt": -1000, "trial_type": "single-audio", "word": "woman", "stimulus": "/static/audio/wordpool/WOMAN.wav", "conditions": [24, 800, "a", 12000], "internal_node_id": "0.0-99.0", "trial": 3, "time_elapsed": 1129482, "serialpos": 18, "key_press": -1, "wordID": 1619, "type": "PRES_AUD", "trial_index": 135}, "uniqueid": "MTK3472:33LKR6A5KFR5323L3JREUB5KC5N1TU", "dateTime": 1520616534221}, {"current_trial": 136, "trialdata": {"rt": -1000, "trial_type": "single-audio", "word": "lady", "stimulus": "/static/audio/wordpool/LADY.wav", "conditions": [24, 800, "a", 12000], "internal_node_id": "0.0-100.0", "trial": 3, "time_elapsed": 1131399, "serialpos": 19, "key_press": -1, "wordID": 793, "type": "PRES_AUD", "trial_index": 136}, "uniqueid": "MTK3472:33LKR6A5KFR5323L3JREUB5KC5N1TU", "dateTime": 1520616536138}, {"current_trial": 137, "trialdata": {"rt": -1000, "trial_type": "single-audio", "word": "pepper", "stimulus": "/static/audio/wordpool/PEPPER.wav", "conditions": [24, 800, "a", 12000], "internal_node_id": "0.0-101.0", "trial": 3, "time_elapsed": 1133374, "serialpos": 20, "key_press": -1, "wordID": 1046, "type": "PRES_AUD", "trial_index": 137}, "uniqueid": "MTK3472:33LKR6A5KFR5323L3JREUB5KC5N1TU", "dateTime": 1520616538113}, {"current_trial": 138, "trialdata": {"rt": -1000, "trial_type": "single-audio", "word": "bullet", "stimulus": "/static/audio/wordpool/BULLET.wav", "conditions": [24, 800, "a", 12000], "internal_node_id": "0.0-102.0", "trial": 3, "time_elapsed": 1135181, "serialpos": 21, "key_press": -1, "wordID": 193, "type": "PRES_AUD", "trial_index": 138}, "uniqueid": "MTK3472:33LKR6A5KFR5323L3JREUB5KC5N1TU", "dateTime": 1520616539920}, {"current_trial": 139, "trialdata": {"rt": -1000, "trial_type": "single-audio", "word": "missile", "stimulus": "/static/audio/wordpool/MISSILE.wav", "conditions": [24, 800, "a", 12000], "internal_node_id": "0.0-103.0", "trial": 3, "time_elapsed": 1136879, "serialpos": 22, "key_press": -1, "wordID": 899, "type": "PRES_AUD", "trial_index": 139}, "uniqueid": "MTK3472:33LKR6A5KFR5323L3JREUB5KC5N1TU", "dateTime": 1520616541618}, {"current_trial": 140, "trialdata": {"rt": -1000, "trial_type": "single-audio", "word": "island", "stimulus": "/static/audio/wordpool/ISLAND.wav", "conditions": [24, 800, "a", 12000], "internal_node_id": "0.0-104.0", "trial": 3, "time_elapsed": 1138687, "serialpos": 23, "key_press": -1, "wordID": 744, "type": "PRES_AUD", "trial_index": 140}, "uniqueid": "MTK3472:33LKR6A5KFR5323L3JREUB5KC5N1TU", "dateTime": 1520616543426}, {"current_trial": 141, "trialdata": {"rt": -1, "trial_type": "single-stim", "stimulus": "", "internal_node_id": "0.0-105.0-0.0", "time_elapsed": 1139914, "key_press": -1, "type": "PRE_RECALL_DELAY", "trial_index": 141}, "uniqueid": "MTK3472:33LKR6A5KFR5323L3JREUB5KC5N1TU", "dateTime": 1520616544654}, {"current_trial": 142, "trialdata": {"rt": -1000, "trial_type": "single-audio", "stimulus": "/static/audio/400Hz.wav", "internal_node_id": "0.0-106.0", "time_elapsed": 1140416, "key_press": -1, "type": "PRE_RECALL_ALERT", "trial_index": 142}, "uniqueid": "MTK3472:33LKR6A5KFR5323L3JREUB5KC5N1TU", "dateTime": 1520616545156}, {"current_trial": 143, "trialdata": {"rt": [11559, 19081, 25753, 29636, 32359, 39646, 43328, 54809], "recwords": ["couch", "fungus", "primate", "lady", "women", "custard", "missle", "branch"], "key_times": [9436, 9728, 9985, 10179, 10385, 11559, 16865, 17138, 18010, 18127, 18478, 18684, 19081, 24001, 24497, 24662, 24881, 24979, 25098, 25266, 25753, 28179, 28359, 28588, 28897, 29636, 30498, 30695, 30954, 31083, 31394, 32359, 37357, 37654, 37788, 38664, 38834, 38964, 39248, 39646, 41951, 42163, 42593, 42780, 42899, 43052, 43328, 53007, 53316, 53666, 54024, 54296, 54469, 54809], "trial_type": "free-recall", "conditions": [24, 800, "a", 12000], "internal_node_id": "0.0-107.0-0.0", "key_presses": [67, 79, 85, 67, 72, 13, 70, 85, 78, 71, 85, 83, 13, 80, 82, 73, 77, 65, 84, 69, 13, 76, 65, 68, 89, 13, 87, 79, 77, 69, 78, 13, 67, 85, 83, 84, 65, 82, 68, 13, 77, 73, 83, 83, 76, 69, 13, 66, 82, 65, 78, 67, 72, 13], "trial": 3, "time_elapsed": 1200424, "type": "FREE_RECALL", "trial_index": 143}, "uniqueid": "MTK3472:33LKR6A5KFR5323L3JREUB5KC5N1TU", "dateTime": 1520616605170}, {"current_trial": 144, "trialdata": {"rt": 5871, "trial_type": "text", "internal_node_id": "0.0-108.0", "time_elapsed": 1208303, "key_press": 32, "type": "INSTRUCTIONS", "trial_index": 144}, "uniqueid": "MTK3472:33LKR6A5KFR5323L3JREUB5KC5N1TU", "dateTime": 1520616613042}, {"current_trial": 145, "trialdata": {"rt": [3567, 6832, 8960, 11571], "trial_type": "math-distractor", "key_times": [1856, 2115, 3567, 5205, 5417, 6832, 8458, 8660, 8960, 10592, 10831, 11571], "responses": ["22", "10", "22", "22"], "num2": [9, 1, 8, 9, 2], "num3": [9, 8, 7, 8, 7], "conditions": [12, 800, "a", 12000], "internal_node_id": "0.0-109.0", "key_presses": [50, 50, 13, 49, 48, 13, 50, 50, 13, 50, 50, 13], "trial": 4, "time_elapsed": 1222306, "type": "DISTRACTOR", "trial_index": 145, "num1": [4, 1, 7, 5, 9]}, "uniqueid": "MTK3472:33LKR6A5KFR5323L3JREUB5KC5N1TU", "dateTime": 1520616627045}, {"current_trial": 146, "trialdata": {"rt": -1, "trial_type": "single-stim", "stimulus": "<p id=\"stim\">10</p>", "internal_node_id": "0.0-110.0-0.0", "time_elapsed": 1225308, "key_press": -1, "trial_index": 146}, "uniqueid": "MTK3472:33LKR6A5KFR5323L3JREUB5KC5N1TU", "dateTime": 1520616630048}, {"current_trial": 147, "trialdata": {"rt": -1, "trial_type": "single-stim", "stimulus": "<p id=\"stim\">9</p>", "internal_node_id": "0.0-110.0-1.0", "time_elapsed": 1226310, "key_press": -1, "trial_index": 147}, "uniqueid": "MTK3472:33LKR6A5KFR5323L3JREUB5KC5N1TU", "dateTime": 1520616631050}, {"current_trial": 148, "trialdata": {"rt": -1, "trial_type": "single-stim", "stimulus": "<p id=\"stim\">8</p>", "internal_node_id": "0.0-110.0-2.0", "time_elapsed": 1227312, "key_press": -1, "trial_index": 148}, "uniqueid": "MTK3472:33LKR6A5KFR5323L3JREUB5KC5N1TU", "dateTime": 1520616632052}, {"current_trial": 149, "trialdata": {"rt": -1, "trial_type": "single-stim", "stimulus": "<p id=\"stim\">7</p>", "internal_node_id": "0.0-110.0-3.0", "time_elapsed": 1228313, "key_press": -1, "trial_index": 149}, "uniqueid": "MTK3472:33LKR6A5KFR5323L3JREUB5KC5N1TU", "dateTime": 1520616633053}, {"current_trial": 150, "trialdata": {"rt": -1, "trial_type": "single-stim", "stimulus": "<p id=\"stim\">6</p>", "internal_node_id": "0.0-110.0-4.0", "time_elapsed": 1229316, "key_press": -1, "trial_index": 150}, "uniqueid": "MTK3472:33LKR6A5KFR5323L3JREUB5KC5N1TU", "dateTime": 1520616634056}, {"current_trial": 151, "trialdata": {"rt": -1, "trial_type": "single-stim", "stimulus": "<p id=\"stim\">5</p>", "internal_node_id": "0.0-110.0-5.0", "time_elapsed": 1230318, "key_press": -1, "trial_index": 151}, "uniqueid": "MTK3472:33LKR6A5KFR5323L3JREUB5KC5N1TU", "dateTime": 1520616635057}, {"current_trial": 152, "trialdata": {"rt": -1, "trial_type": "single-stim", "stimulus": "<p id=\"stim\">4</p>", "internal_node_id": "0.0-110.0-6.0", "time_elapsed": 1231318, "key_press": -1, "trial_index": 152}, "uniqueid": "MTK3472:33LKR6A5KFR5323L3JREUB5KC5N1TU", "dateTime": 1520616636058}, {"current_trial": 153, "trialdata": {"rt": -1, "trial_type": "single-stim", "stimulus": "<p id=\"stim\">3</p>", "internal_node_id": "0.0-110.0-7.0", "time_elapsed": 1232320, "key_press": -1, "trial_index": 153}, "uniqueid": "MTK3472:33LKR6A5KFR5323L3JREUB5KC5N1TU", "dateTime": 1520616637060}, {"current_trial": 154, "trialdata": {"rt": -1, "trial_type": "single-stim", "stimulus": "<p id=\"stim\">2</p>", "internal_node_id": "0.0-110.0-8.0", "time_elapsed": 1233324, "key_press": -1, "trial_index": 154}, "uniqueid": "MTK3472:33LKR6A5KFR5323L3JREUB5KC5N1TU", "dateTime": 1520616638064}, {"current_trial": 155, "trialdata": {"rt": -1, "trial_type": "single-stim", "stimulus": "<p id=\"stim\">1</p>", "internal_node_id": "0.0-110.0-9.0", "time_elapsed": 1234325, "key_press": -1, "trial_index": 155}, "uniqueid": "MTK3472:33LKR6A5KFR5323L3JREUB5KC5N1TU", "dateTime": 1520616639064}, {"current_trial": 156, "trialdata": {"rt": -1, "trial_type": "single-stim", "stimulus": "<p id=\"stim\">+</p>", "internal_node_id": "0.0-111.0-0.0", "time_elapsed": 1235828, "key_press": -1, "type": "FIXATION", "trial_index": 156}, "uniqueid": "MTK3472:33LKR6A5KFR5323L3JREUB5KC5N1TU", "dateTime": 1520616640567}, {"current_trial": 157, "trialdata": {"rt": -1000, "trial_type": "single-audio", "word": "perfume", "stimulus": "/static/audio/wordpool/PERFUME.wav", "conditions": [12, 800, "a", 12000], "internal_node_id": "0.0-112.0", "trial": 4, "time_elapsed": 1237703, "serialpos": 0, "key_press": -1, "wordID": 1048, "type": "PRES_AUD", "trial_index": 157}, "uniqueid": "MTK3472:33LKR6A5KFR5323L3JREUB5KC5N1TU", "dateTime": 1520616642442}, {"current_trial": 158, "trialdata": {"rt": -1000, "trial_type": "single-audio", "word": "shortcake", "stimulus": "/static/audio/wordpool/SHORTCAKE.wav", "conditions": [12, 800, "a", 12000], "internal_node_id": "0.0-113.0", "trial": 4, "time_elapsed": 1239569, "serialpos": 1, "key_press": -1, "wordID": 1291, "type": "PRES_AUD", "trial_index": 158}, "uniqueid": "MTK3472:33LKR6A5KFR5323L3JREUB5KC5N1TU", "dateTime": 1520616644308}, {"current_trial": 159, "trialdata": {"rt": -1000, "trial_type": "single-audio", "word": "tweezers", "stimulus": "/static/audio/wordpool/TWEEZERS.wav", "conditions": [12, 800, "a", 12000], "internal_node_id": "0.0-114.0", "trial": 4, "time_elapsed": 1241186, "serialpos": 2, "key_press": -1, "wordID": 1525, "type": "PRES_AUD", "trial_index": 159}, "uniqueid": "MTK3472:33LKR6A5KFR5323L3JREUB5KC5N1TU", "dateTime": 1520616645925}, {"current_trial": 160, "trialdata": {"rt": -1000, "trial_type": "single-audio", "word": "wasp", "stimulus": "/static/audio/wordpool/WASP.wav", "conditions": [12, 800, "a", 12000], "internal_node_id": "0.0-115.0", "trial": 4, "time_elapsed": 1242943, "serialpos": 3, "key_press": -1, "wordID": 1592, "type": "PRES_AUD", "trial_index": 160}, "uniqueid": "MTK3472:33LKR6A5KFR5323L3JREUB5KC5N1TU", "dateTime": 1520616647682}, {"current_trial": 161, "trialdata": {"rt": -1000, "trial_type": "single-audio", "word": "poison", "stimulus": "/static/audio/wordpool/POISON.wav", "conditions": [12, 800, "a", 12000], "internal_node_id": "0.0-116.0", "trial": 4, "time_elapsed": 1244867, "serialpos": 4, "key_press": -1, "wordID": 1095, "type": "PRES_AUD", "trial_index": 161}, "uniqueid": "MTK3472:33LKR6A5KFR5323L3JREUB5KC5N1TU", "dateTime": 1520616649606}, {"current_trial": 162, "trialdata": {"rt": -1000, "trial_type": "single-audio", "word": "record", "stimulus": "/static/audio/wordpool/RECORD.wav", "conditions": [12, 800, "a", 12000], "internal_node_id": "0.0-117.0", "trial": 4, "time_elapsed": 1246485, "serialpos": 5, "key_press": -1, "wordID": 1175, "type": "PRES_AUD", "trial_index": 162}, "uniqueid": "MTK3472:33LKR6A5KFR5323L3JREUB5KC5N1TU", "dateTime": 1520616651224}, {"current_trial": 163, "trialdata": {"rt": -1000, "trial_type": "single-audio", "word": "author", "stimulus": "/static/audio/wordpool/AUTHOR.wav", "conditions": [12, 800, "a", 12000], "internal_node_id": "0.0-118.0", "trial": 4, "time_elapsed": 1248374, "serialpos": 6, "key_press": -1, "wordID": 60, "type": "PRES_AUD", "trial_index": 163}, "uniqueid": "MTK3472:33LKR6A5KFR5323L3JREUB5KC5N1TU", "dateTime": 1520616653113}, {"current_trial": 164, "trialdata": {"rt": -1000, "trial_type": "single-audio", "word": "dorm", "stimulus": "/static/audio/wordpool/DORM.wav", "conditions": [12, 800, "a", 12000], "internal_node_id": "0.0-119.0", "trial": 4, "time_elapsed": 1250337, "serialpos": 7, "key_press": -1, "wordID": 487, "type": "PRES_AUD", "trial_index": 164}, "uniqueid": "MTK3472:33LKR6A5KFR5323L3JREUB5KC5N1TU", "dateTime": 1520616655076}, {"current_trial": 165, "trialdata": {"rt": -1000, "trial_type": "single-audio", "word": "spider", "stimulus": "/static/audio/wordpool/SPIDER.wav", "conditions": [12, 800, "a", 12000], "internal_node_id": "0.0-120.0", "trial": 4, "time_elapsed": 1252065, "serialpos": 8, "key_press": -1, "wordID": 1350, "type": "PRES_AUD", "trial_index": 165}, "uniqueid": "MTK3472:33LKR6A5KFR5323L3JREUB5KC5N1TU", "dateTime": 1520616656804}, {"current_trial": 166, "trialdata": {"rt": -1000, "trial_type": "single-audio", "word": "valley", "stimulus": "/static/audio/wordpool/VALLEY.wav", "conditions": [12, 800, "a", 12000], "internal_node_id": "0.0-121.0", "trial": 4, "time_elapsed": 1253887, "serialpos": 9, "key_press": -1, "wordID": 1544, "type": "PRES_AUD", "trial_index": 166}, "uniqueid": "MTK3472:33LKR6A5KFR5323L3JREUB5KC5N1TU", "dateTime": 1520616658626}, {"current_trial": 167, "trialdata": {"rt": -1000, "trial_type": "single-audio", "word": "canyon", "stimulus": "/static/audio/wordpool/CANYON.wav", "conditions": [12, 800, "a", 12000], "internal_node_id": "0.0-122.0", "trial": 4, "time_elapsed": 1255762, "serialpos": 10, "key_press": -1, "wordID": 234, "type": "PRES_AUD", "trial_index": 167}, "uniqueid": "MTK3472:33LKR6A5KFR5323L3JREUB5KC5N1TU", "dateTime": 1520616660501}, {"current_trial": 168, "trialdata": {"rt": -1000, "trial_type": "single-audio", "word": "marsh", "stimulus": "/static/audio/wordpool/MARSH.wav", "conditions": [12, 800, "a", 12000], "internal_node_id": "0.0-123.0", "trial": 4, "time_elapsed": 1257487, "serialpos": 11, "key_press": -1, "wordID": 873, "type": "PRES_AUD", "trial_index": 168}, "uniqueid": "MTK3472:33LKR6A5KFR5323L3JREUB5KC5N1TU", "dateTime": 1520616662226}, {"current_trial": 169, "trialdata": {"rt": -1, "trial_type": "single-stim", "stimulus": "", "internal_node_id": "0.0-124.0-0.0", "time_elapsed": 1258848, "key_press": -1, "type": "PRE_RECALL_DELAY", "trial_index": 169}, "uniqueid": "MTK3472:33LKR6A5KFR5323L3JREUB5KC5N1TU", "dateTime": 1520616663587}, {"current_trial": 170, "trialdata": {"rt": -1000, "trial_type": "single-audio", "stimulus": "/static/audio/400Hz.wav", "internal_node_id": "0.0-125.0", "time_elapsed": 1259350, "key_press": -1, "type": "PRE_RECALL_ALERT", "trial_index": 170}, "uniqueid": "MTK3472:33LKR6A5KFR5323L3JREUB5KC5N1TU", "dateTime": 1520616664090}, {"current_trial": 171, "trialdata": {"rt": [6603, 12452, 20916, 23455], "recwords": ["marsh", "valley", "wasp", "perfume"], "key_times": [4961, 5060, 5150, 5581, 5932, 6603, 10727, 10924, 11085, 11246, 11837, 12030, 12452, 19320, 19595, 19797, 20384, 20916, 21582, 21655, 21749, 22342, 22754, 23010, 23099, 23455], "trial_type": "free-recall", "conditions": [12, 800, "a", 12000], "internal_node_id": "0.0-126.0-0.0", "key_presses": [77, 65, 82, 83, 72, 13, 86, 65, 76, 76, 69, 89, 13, 87, 65, 83, 80, 13, 80, 69, 82, 70, 85, 77, 69, 13], "trial": 4, "time_elapsed": 1319358, "type": "FREE_RECALL", "trial_index": 171}, "uniqueid": "MTK3472:33LKR6A5KFR5323L3JREUB5KC5N1TU", "dateTime": 1520616724108}, {"current_trial": 172, "trialdata": {"rt": 2129, "trial_type": "text", "internal_node_id": "0.0-127.0", "time_elapsed": 1323499, "key_press": 70, "type": "INSTRUCTIONS", "trial_index": 172}, "uniqueid": "MTK3472:33LKR6A5KFR5323L3JREUB5KC5N1TU", "dateTime": 1520616728239}, {"current_trial": 173, "trialdata": {"rt": [4568, 6957, 9497, 11877], "trial_type": "math-distractor", "key_times": [3020, 3617, 4568, 6208, 6540, 6957, 8221, 8430, 9497, 11134, 11436, 11877], "responses": ["14", "12", "11", "12"], "num2": [4, 7, 4, 2, 9], "num3": [6, 1, 3, 3, 6], "conditions": [24, 800, "a", 12000], "internal_node_id": "0.0-128.0", "key_presses": [49, 52, 13, 49, 50, 13, 49, 49, 13, 49, 50, 13], "trial": 5, "time_elapsed": 1337505, "type": "DISTRACTOR", "trial_index": 173, "num1": [4, 4, 4, 7, 7]}, "uniqueid": "MTK3472:33LKR6A5KFR5323L3JREUB5KC5N1TU", "dateTime": 1520616742244}, {"current_trial": 174, "trialdata": {"rt": -1, "trial_type": "single-stim", "stimulus": "<p id=\"stim\">10</p>", "internal_node_id": "0.0-129.0-0.0", "time_elapsed": 1340507, "key_press": -1, "trial_index": 174}, "uniqueid": "MTK3472:33LKR6A5KFR5323L3JREUB5KC5N1TU", "dateTime": 1520616745246}, {"current_trial": 175, "trialdata": {"rt": -1, "trial_type": "single-stim", "stimulus": "<p id=\"stim\">9</p>", "internal_node_id": "0.0-129.0-1.0", "time_elapsed": 1341509, "key_press": -1, "trial_index": 175}, "uniqueid": "MTK3472:33LKR6A5KFR5323L3JREUB5KC5N1TU", "dateTime": 1520616746248}, {"current_trial": 176, "trialdata": {"rt": -1, "trial_type": "single-stim", "stimulus": "<p id=\"stim\">8</p>", "internal_node_id": "0.0-129.0-2.0", "time_elapsed": 1342511, "key_press": -1, "trial_index": 176}, "uniqueid": "MTK3472:33LKR6A5KFR5323L3JREUB5KC5N1TU", "dateTime": 1520616747250}, {"current_trial": 177, "trialdata": {"rt": -1, "trial_type": "single-stim", "stimulus": "<p id=\"stim\">7</p>", "internal_node_id": "0.0-129.0-3.0", "time_elapsed": 1343513, "key_press": -1, "trial_index": 177}, "uniqueid": "MTK3472:33LKR6A5KFR5323L3JREUB5KC5N1TU", "dateTime": 1520616748252}, {"current_trial": 178, "trialdata": {"rt": -1, "trial_type": "single-stim", "stimulus": "<p id=\"stim\">6</p>", "internal_node_id": "0.0-129.0-4.0", "time_elapsed": 1344515, "key_press": -1, "trial_index": 178}, "uniqueid": "MTK3472:33LKR6A5KFR5323L3JREUB5KC5N1TU", "dateTime": 1520616749254}, {"current_trial": 179, "trialdata": {"rt": -1, "trial_type": "single-stim", "stimulus": "<p id=\"stim\">5</p>", "internal_node_id": "0.0-129.0-5.0", "time_elapsed": 1345518, "key_press": -1, "trial_index": 179}, "uniqueid": "MTK3472:33LKR6A5KFR5323L3JREUB5KC5N1TU", "dateTime": 1520616750257}, {"current_trial": 180, "trialdata": {"rt": -1, "trial_type": "single-stim", "stimulus": "<p id=\"stim\">4</p>", "internal_node_id": "0.0-129.0-6.0", "time_elapsed": 1346521, "key_press": -1, "trial_index": 180}, "uniqueid": "MTK3472:33LKR6A5KFR5323L3JREUB5KC5N1TU", "dateTime": 1520616751260}, {"current_trial": 181, "trialdata": {"rt": -1, "trial_type": "single-stim", "stimulus": "<p id=\"stim\">3</p>", "internal_node_id": "0.0-129.0-7.0", "time_elapsed": 1347524, "key_press": -1, "trial_index": 181}, "uniqueid": "MTK3472:33LKR6A5KFR5323L3JREUB5KC5N1TU", "dateTime": 1520616752263}, {"current_trial": 182, "trialdata": {"rt": -1, "trial_type": "single-stim", "stimulus": "<p id=\"stim\">2</p>", "internal_node_id": "0.0-129.0-8.0", "time_elapsed": 1348526, "key_press": -1, "trial_index": 182}, "uniqueid": "MTK3472:33LKR6A5KFR5323L3JREUB5KC5N1TU", "dateTime": 1520616753265}, {"current_trial": 183, "trialdata": {"rt": -1, "trial_type": "single-stim", "stimulus": "<p id=\"stim\">1</p>", "internal_node_id": "0.0-129.0-9.0", "time_elapsed": 1349528, "key_press": -1, "trial_index": 183}, "uniqueid": "MTK3472:33LKR6A5KFR5323L3JREUB5KC5N1TU", "dateTime": 1520616754267}, {"current_trial": 184, "trialdata": {"rt": -1, "trial_type": "single-stim", "stimulus": "<p id=\"stim\">+</p>", "internal_node_id": "0.0-130.0-0.0", "time_elapsed": 1351029, "key_press": -1, "type": "FIXATION", "trial_index": 184}, "uniqueid": "MTK3472:33LKR6A5KFR5323L3JREUB5KC5N1TU", "dateTime": 1520616755768}, {"current_trial": 185, "trialdata": {"rt": -1000, "trial_type": "single-audio", "word": "popcorn", "stimulus": "/static/audio/wordpool/POPCORN.wav", "conditions": [24, 800, "a", 12000], "internal_node_id": "0.0-131.0", "trial": 5, "time_elapsed": 1352673, "serialpos": 0, "key_press": -1, "wordID": 1103, "type": "PRES_AUD", "trial_index": 185}, "uniqueid": "MTK3472:33LKR6A5KFR5323L3JREUB5KC5N1TU", "dateTime": 1520616757412}, {"current_trial": 186, "trialdata": {"rt": -1000, "trial_type": "single-audio", "word": "sculpture", "stimulus": "/static/audio/wordpool/SCULPTURE.wav", "conditions": [24, 800, "a", 12000], "internal_node_id": "0.0-132.0", "trial": 5, "time_elapsed": 1354497, "serialpos": 1, "key_press": -1, "wordID": 1257, "type": "PRES_AUD", "trial_index": 186}, "uniqueid": "MTK3472:33LKR6A5KFR5323L3JREUB5KC5N1TU", "dateTime": 1520616759236}, {"current_trial": 187, "trialdata": {"rt": -1000, "trial_type": "single-audio", "word": "banjo", "stimulus": "/static/audio/wordpool/BANJO.wav", "conditions": [24, 800, "a", 12000], "internal_node_id": "0.0-133.0", "trial": 5, "time_elapsed": 1356134, "serialpos": 2, "key_press": -1, "wordID": 81, "type": "PRES_AUD", "trial_index": 187}, "uniqueid": "MTK3472:33LKR6A5KFR5323L3JREUB5KC5N1TU", "dateTime": 1520616760873}, {"current_trial": 188, "trialdata": {"rt": -1000, "trial_type": "single-audio", "word": "sphinx", "stimulus": "/static/audio/wordpool/SPHINX.wav", "conditions": [24, 800, "a", 12000], "internal_node_id": "0.0-134.0", "trial": 5, "time_elapsed": 1357883, "serialpos": 3, "key_press": -1, "wordID": 1348, "type": "PRES_AUD", "trial_index": 188}, "uniqueid": "MTK3472:33LKR6A5KFR5323L3JREUB5KC5N1TU", "dateTime": 1520616762622}, {"current_trial": 189, "trialdata": {"rt": -1000, "trial_type": "single-audio", "word": "concert", "stimulus": "/static/audio/wordpool/CONCERT.wav", "conditions": [24, 800, "a", 12000], "internal_node_id": "0.0-135.0", "trial": 5, "time_elapsed": 1359571, "serialpos": 4, "key_press": -1, "wordID": 359, "type": "PRES_AUD", "trial_index": 189}, "uniqueid": "MTK3472:33LKR6A5KFR5323L3JREUB5KC5N1TU", "dateTime": 1520616764311}, {"current_trial": 190, "trialdata": {"rt": -1000, "trial_type": "single-audio", "word": "bison", "stimulus": "/static/audio/wordpool/BISON.wav", "conditions": [24, 800, "a", 12000], "internal_node_id": "0.0-136.0", "trial": 5, "time_elapsed": 1361311, "serialpos": 5, "key_press": -1, "wordID": 130, "type": "PRES_AUD", "trial_index": 190}, "uniqueid": "MTK3472:33LKR6A5KFR5323L3JREUB5KC5N1TU", "dateTime": 1520616766051}, {"current_trial": 191, "trialdata": {"rt": -1000, "trial_type": "single-audio", "word": "stamp", "stimulus": "/static/audio/wordpool/STAMP.wav", "conditions": [24, 800, "a", 12000], "internal_node_id": "0.0-137.0", "trial": 5, "time_elapsed": 1363261, "serialpos": 6, "key_press": -1, "wordID": 1369, "type": "PRES_AUD", "trial_index": 191}, "uniqueid": "MTK3472:33LKR6A5KFR5323L3JREUB5KC5N1TU", "dateTime": 1520616768000}, {"current_trial": 192, "trialdata": {"rt": -1000, "trial_type": "single-audio", "word": "child", "stimulus": "/static/audio/wordpool/CHILD.wav", "conditions": [24, 800, "a", 12000], "internal_node_id": "0.0-138.0", "trial": 5, "time_elapsed": 1365153, "serialpos": 7, "key_press": -1, "wordID": 298, "type": "PRES_AUD", "trial_index": 192}, "uniqueid": "MTK3472:33LKR6A5KFR5323L3JREUB5KC5N1TU", "dateTime": 1520616769892}, {"current_trial": 193, "trialdata": {"rt": -1000, "trial_type": "single-audio", "word": "cattle", "stimulus": "/static/audio/wordpool/CATTLE.wav", "conditions": [24, 800, "a", 12000], "internal_node_id": "0.0-139.0", "trial": 5, "time_elapsed": 1366959, "serialpos": 8, "key_press": -1, "wordID": 260, "type": "PRES_AUD", "trial_index": 193}, "uniqueid": "MTK3472:33LKR6A5KFR5323L3JREUB5KC5N1TU", "dateTime": 1520616771698}, {"current_trial": 194, "trialdata": {"rt": -1000, "trial_type": "single-audio", "word": "quail", "stimulus": "/static/audio/wordpool/QUAIL.wav", "conditions": [24, 800, "a", 12000], "internal_node_id": "0.0-140.0", "trial": 5, "time_elapsed": 1368900, "serialpos": 9, "key_press": -1, "wordID": 1146, "type": "PRES_AUD", "trial_index": 194}, "uniqueid": "MTK3472:33LKR6A5KFR5323L3JREUB5KC5N1TU", "dateTime": 1520616773639}, {"current_trial": 195, "trialdata": {"rt": -1000, "trial_type": "single-audio", "word": "turkey", "stimulus": "/static/audio/wordpool/TURKEY.wav", "conditions": [24, 800, "a", 12000], "internal_node_id": "0.0-141.0", "trial": 5, "time_elapsed": 1370878, "serialpos": 10, "key_press": -1, "wordID": 1519, "type": "PRES_AUD", "trial_index": 195}, "uniqueid": "MTK3472:33LKR6A5KFR5323L3JREUB5KC5N1TU", "dateTime": 1520616775617}, {"current_trial": 196, "trialdata": {"rt": -1000, "trial_type": "single-audio", "word": "onion", "stimulus": "/static/audio/wordpool/ONION.wav", "conditions": [24, 800, "a", 12000], "internal_node_id": "0.0-142.0", "trial": 5, "time_elapsed": 1372597, "serialpos": 11, "key_press": -1, "wordID": 976, "type": "PRES_AUD", "trial_index": 196}, "uniqueid": "MTK3472:33LKR6A5KFR5323L3JREUB5KC5N1TU", "dateTime": 1520616777336}, {"current_trial": 197, "trialdata": {"rt": -1000, "trial_type": "single-audio", "word": "neutron", "stimulus": "/static/audio/wordpool/NEUTRON.wav", "conditions": [24, 800, "a", 12000], "internal_node_id": "0.0-143.0", "trial": 5, "time_elapsed": 1374443, "serialpos": 12, "key_press": -1, "wordID": 946, "type": "PRES_AUD", "trial_index": 197}, "uniqueid": "MTK3472:33LKR6A5KFR5323L3JREUB5KC5N1TU", "dateTime": 1520616779182}, {"current_trial": 198, "trialdata": {"rt": -1000, "trial_type": "single-audio", "word": "highway", "stimulus": "/static/audio/wordpool/HIGHWAY.wav", "conditions": [24, 800, "a", 12000], "internal_node_id": "0.0-144.0", "trial": 5, "time_elapsed": 1376170, "serialpos": 13, "key_press": -1, "wordID": 706, "type": "PRES_AUD", "trial_index": 198}, "uniqueid": "MTK3472:33LKR6A5KFR5323L3JREUB5KC5N1TU", "dateTime": 1520616780909}, {"current_trial": 199, "trialdata": {"rt": -1000, "trial_type": "single-audio", "word": "panther", "stimulus": "/static/audio/wordpool/PANTHER.wav", "conditions": [24, 800, "a", 12000], "internal_node_id": "0.0-145.0", "trial": 5, "time_elapsed": 1377864, "serialpos": 14, "key_press": -1, "wordID": 1008, "type": "PRES_AUD", "trial_index": 199}, "uniqueid": "MTK3472:33LKR6A5KFR5323L3JREUB5KC5N1TU", "dateTime": 1520616782603}, {"current_trial": 200, "trialdata": {"rt": -1000, "trial_type": "single-audio", "word": "hood", "stimulus": "/static/audio/wordpool/HOOD.wav", "conditions": [24, 800, "a", 12000], "internal_node_id": "0.0-146.0", "trial": 5, "time_elapsed": 1379650, "serialpos": 15, "key_press": -1, "wordID": 713, "type": "PRES_AUD", "trial_index": 200}, "uniqueid": "MTK3472:33LKR6A5KFR5323L3JREUB5KC5N1TU", "dateTime": 1520616784389}, {"current_trial": 201, "trialdata": {"rt": -1000, "trial_type": "single-audio", "word": "lily", "stimulus": "/static/audio/wordpool/LILY.wav", "conditions": [24, 800, "a", 12000], "internal_node_id": "0.0-147.0", "trial": 5, "time_elapsed": 1381402, "serialpos": 16, "key_press": -1, "wordID": 820, "type": "PRES_AUD", "trial_index": 201}, "uniqueid": "MTK3472:33LKR6A5KFR5323L3JREUB5KC5N1TU", "dateTime": 1520616786141}, {"current_trial": 202, "trialdata": {"rt": -1000, "trial_type": "single-audio", "word": "orchid", "stimulus": "/static/audio/wordpool/ORCHID.wav", "conditions": [24, 800, "a", 12000], "internal_node_id": "0.0-148.0", "trial": 5, "time_elapsed": 1383220, "serialpos": 17, "key_press": -1, "wordID": 981, "type": "PRES_AUD", "trial_index": 202}, "uniqueid": "MTK3472:33LKR6A5KFR5323L3JREUB5KC5N1TU", "dateTime": 1520616787959}, {"current_trial": 203, "trialdata": {"rt": -1000, "trial_type": "single-audio", "word": "notebook", "stimulus": "/static/audio/wordpool/NOTEBOOK.wav", "conditions": [24, 800, "a", 12000], "internal_node_id": "0.0-149.0", "trial": 5, "time_elapsed": 1384981, "serialpos": 18, "key_press": -1, "wordID": 958, "type": "PRES_AUD", "trial_index": 203}, "uniqueid": "MTK3472:33LKR6A5KFR5323L3JREUB5KC5N1TU", "dateTime": 1520616789720}, {"current_trial": 204, "trialdata": {"rt": -1000, "trial_type": "single-audio", "word": "doughnut", "stimulus": "/static/audio/wordpool/DOUGHNUT.wav", "conditions": [24, 800, "a", 12000], "internal_node_id": "0.0-150.0", "trial": 5, "time_elapsed": 1386722, "serialpos": 19, "key_press": -1, "wordID": 489, "type": "PRES_AUD", "trial_index": 204}, "uniqueid": "MTK3472:33LKR6A5KFR5323L3JREUB5KC5N1TU", "dateTime": 1520616791461}, {"current_trial": 205, "trialdata": {"rt": -1000, "trial_type": "single-audio", "word": "flashlight", "stimulus": "/static/audio/wordpool/FLASHLIGHT.wav", "conditions": [24, 800, "a", 12000], "internal_node_id": "0.0-151.0", "trial": 5, "time_elapsed": 1388384, "serialpos": 20, "key_press": -1, "wordID": 574, "type": "PRES_AUD", "trial_index": 205}, "uniqueid": "MTK3472:33LKR6A5KFR5323L3JREUB5KC5N1TU", "dateTime": 1520616793123}, {"current_trial": 206, "trialdata": {"rt": -1000, "trial_type": "single-audio", "word": "flask", "stimulus": "/static/audio/wordpool/FLASK.wav", "conditions": [24, 800, "a", 12000], "internal_node_id": "0.0-152.0", "trial": 5, "time_elapsed": 1390046, "serialpos": 21, "key_press": -1, "wordID": 575, "type": "PRES_AUD", "trial_index": 206}, "uniqueid": "MTK3472:33LKR6A5KFR5323L3JREUB5KC5N1TU", "dateTime": 1520616794785}, {"current_trial": 207, "trialdata": {"rt": -1000, "trial_type": "single-audio", "word": "lizard", "stimulus": "/static/audio/wordpool/LIZARD.wav", "conditions": [24, 800, "a", 12000], "internal_node_id": "0.0-153.0", "trial": 5, "time_elapsed": 1392004, "serialpos": 22, "key_press": -1, "wordID": 833, "type": "PRES_AUD", "trial_index": 207}, "uniqueid": "MTK3472:33LKR6A5KFR5323L3JREUB5KC5N1TU", "dateTime": 1520616796743}, {"current_trial": 208, "trialdata": {"rt": -1000, "trial_type": "single-audio", "word": "beast", "stimulus": "/static/audio/wordpool/BEAST.wav", "conditions": [24, 800, "a", 12000], "internal_node_id": "0.0-154.0", "trial": 5, "time_elapsed": 1393746, "serialpos": 23, "key_press": -1, "wordID": 107, "type": "PRES_AUD", "trial_index": 208}, "uniqueid": "MTK3472:33LKR6A5KFR5323L3JREUB5KC5N1TU", "dateTime": 1520616798485}, {"current_trial": 209, "trialdata": {"rt": -1, "trial_type": "single-stim", "stimulus": "", "internal_node_id": "0.0-155.0-0.0", "time_elapsed": 1395073, "key_press": -1, "type": "PRE_RECALL_DELAY", "trial_index": 209}, "uniqueid": "MTK3472:33LKR6A5KFR5323L3JREUB5KC5N1TU", "dateTime": 1520616799813}, {"current_trial": 210, "trialdata": {"rt": -1000, "trial_type": "single-audio", "stimulus": "/static/audio/400Hz.wav", "internal_node_id": "0.0-156.0", "time_elapsed": 1395576, "key_press": -1, "type": "PRE_RECALL_ALERT", "trial_index": 210}, "uniqueid": "MTK3472:33LKR6A5KFR5323L3JREUB5KC5N1TU", "dateTime": 1520616800316}, {"current_trial": 211, "trialdata": {"rt": [11687, 14184, 22014, 40612, 44718, 46391], "recwords": ["beast", "lizard", "panther", "concert", "turkey", "onion"], "key_times": [10255, 10484, 10629, 10838, 11063, 11687, 12484, 12688, 12839, 13348, 13694, 13938, 14184, 18948, 19141, 19353, 19444, 19562, 19952, 20145, 20333, 20641, 20830, 21412, 21489, 21552, 22014, 38311, 38529, 38728, 38827, 39082, 39150, 39290, 39452, 39940, 40115, 40293, 40612, 42850, 43044, 43156, 43481, 44146, 44356, 44718, 45119, 45378, 45587, 45756, 46022, 46391], "trial_type": "free-recall", "conditions": [24, 800, "a", 12000], "internal_node_id": "0.0-157.0-0.0", "key_presses": [66, 69, 65, 83, 84, 13, 76, 73, 90, 65, 82, 68, 13, 80, 65, 84, 72, 69, 8, 8, 8, 78, 84, 72, 69, 82, 13, 67, 79, 78, 67, 69, 82, 78, 84, 8, 8, 84, 13, 84, 85, 82, 75, 69, 89, 13, 79, 78, 73, 79, 78, 13], "trial": 5, "time_elapsed": 1455583, "type": "FREE_RECALL", "trial_index": 211}, "uniqueid": "MTK3472:33LKR6A5KFR5323L3JREUB5KC5N1TU", "dateTime": 1520616860331}, {"current_trial": 212, "trialdata": {"rt": 1840, "trial_type": "text", "internal_node_id": "0.0-158.0", "time_elapsed": 1459435, "key_press": 75, "type": "INSTRUCTIONS", "trial_index": 212}, "uniqueid": "MTK3472:33LKR6A5KFR5323L3JREUB5KC5N1TU", "dateTime": 1520616864174}, {"current_trial": 213, "trialdata": {"rt": [3050, 5576, 8437, 10781, 13148, 15737, 18207, 22823], "trial_type": "math-distractor", "key_times": [2133, 2602, 3050, 4727, 5041, 5576, 7304, 8437, 9630, 9972, 10781, 12301, 12669, 13148, 14702, 15030, 15737, 17186, 17438, 18207, 20882, 21453, 22823], "responses": ["16", "12", "9", "10", "19", "19", "11", "16"], "num2": [8, 1, 4, 2, 3, 9, 2, 6, 6], "num3": [1, 5, 2, 1, 8, 2, 8, 3, 6], "conditions": [12, 800, "a", 24000], "internal_node_id": "0.0-159.0", "key_presses": [49, 54, 13, 49, 50, 13, 57, 13, 49, 48, 13, 49, 57, 13, 49, 57, 13, 49, 49, 13, 49, 54, 13], "trial": 6, "time_elapsed": 1485441, "type": "DISTRACTOR", "trial_index": 213, "num1": [7, 6, 3, 7, 8, 8, 1, 7, 9]}, "uniqueid": "MTK3472:33LKR6A5KFR5323L3JREUB5KC5N1TU", "dateTime": 1520616890181}, {"current_trial": 214, "trialdata": {"rt": -1, "trial_type": "single-stim", "stimulus": "<p id=\"stim\">10</p>", "internal_node_id": "0.0-160.0-0.0", "time_elapsed": 1488444, "key_press": -1, "trial_index": 214}, "uniqueid": "MTK3472:33LKR6A5KFR5323L3JREUB5KC5N1TU", "dateTime": 1520616893183}, {"current_trial": 215, "trialdata": {"rt": -1, "trial_type": "single-stim", "stimulus": "<p id=\"stim\">9</p>", "internal_node_id": "0.0-160.0-1.0", "time_elapsed": 1489446, "key_press": -1, "trial_index": 215}, "uniqueid": "MTK3472:33LKR6A5KFR5323L3JREUB5KC5N1TU", "dateTime": 1520616894185}, {"current_trial": 216, "trialdata": {"rt": -1, "trial_type": "single-stim", "stimulus": "<p id=\"stim\">8</p>", "internal_node_id": "0.0-160.0-2.0", "time_elapsed": 1490448, "key_press": -1, "trial_index": 216}, "uniqueid": "MTK3472:33LKR6A5KFR5323L3JREUB5KC5N1TU", "dateTime": 1520616895187}, {"current_trial": 217, "trialdata": {"rt": -1, "trial_type": "single-stim", "stimulus": "<p id=\"stim\">7</p>", "internal_node_id": "0.0-160.0-3.0", "time_elapsed": 1491450, "key_press": -1, "trial_index": 217}, "uniqueid": "MTK3472:33LKR6A5KFR5323L3JREUB5KC5N1TU", "dateTime": 1520616896189}, {"current_trial": 218, "trialdata": {"rt": -1, "trial_type": "single-stim", "stimulus": "<p id=\"stim\">6</p>", "internal_node_id": "0.0-160.0-4.0", "time_elapsed": 1492452, "key_press": -1, "trial_index": 218}, "uniqueid": "MTK3472:33LKR6A5KFR5323L3JREUB5KC5N1TU", "dateTime": 1520616897191}, {"current_trial": 219, "trialdata": {"rt": -1, "trial_type": "single-stim", "stimulus": "<p id=\"stim\">5</p>", "internal_node_id": "0.0-160.0-5.0", "time_elapsed": 1493454, "key_press": -1, "trial_index": 219}, "uniqueid": "MTK3472:33LKR6A5KFR5323L3JREUB5KC5N1TU", "dateTime": 1520616898193}, {"current_trial": 220, "trialdata": {"rt": -1, "trial_type": "single-stim", "stimulus": "<p id=\"stim\">4</p>", "internal_node_id": "0.0-160.0-6.0", "time_elapsed": 1494456, "key_press": -1, "trial_index": 220}, "uniqueid": "MTK3472:33LKR6A5KFR5323L3JREUB5KC5N1TU", "dateTime": 1520616899195}, {"current_trial": 221, "trialdata": {"rt": -1, "trial_type": "single-stim", "stimulus": "<p id=\"stim\">3</p>", "internal_node_id": "0.0-160.0-7.0", "time_elapsed": 1495458, "key_press": -1, "trial_index": 221}, "uniqueid": "MTK3472:33LKR6A5KFR5323L3JREUB5KC5N1TU", "dateTime": 1520616900197}, {"current_trial": 222, "trialdata": {"rt": -1, "trial_type": "single-stim", "stimulus": "<p id=\"stim\">2</p>", "internal_node_id": "0.0-160.0-8.0", "time_elapsed": 1496460, "key_press": -1, "trial_index": 222}, "uniqueid": "MTK3472:33LKR6A5KFR5323L3JREUB5KC5N1TU", "dateTime": 1520616901199}, {"current_trial": 223, "trialdata": {"rt": -1, "trial_type": "single-stim", "stimulus": "<p id=\"stim\">1</p>", "internal_node_id": "0.0-160.0-9.0", "time_elapsed": 1497462, "key_press": -1, "trial_index": 223}, "uniqueid": "MTK3472:33LKR6A5KFR5323L3JREUB5KC5N1TU", "dateTime": 1520616902201}, {"current_trial": 224, "trialdata": {"rt": -1, "trial_type": "single-stim", "stimulus": "<p id=\"stim\">+</p>", "internal_node_id": "0.0-161.0-0.0", "time_elapsed": 1498963, "key_press": -1, "type": "FIXATION", "trial_index": 224}, "uniqueid": "MTK3472:33LKR6A5KFR5323L3JREUB5KC5N1TU", "dateTime": 1520616903703}, {"current_trial": 225, "trialdata": {"rt": -1000, "trial_type": "single-audio", "word": "cashier", "stimulus": "/static/audio/wordpool/CASHIER.wav", "conditions": [12, 800, "a", 24000], "internal_node_id": "0.0-162.0", "trial": 6, "time_elapsed": 1500739, "serialpos": 0, "key_press": -1, "wordID": 253, "type": "PRES_AUD", "trial_index": 225}, "uniqueid": "MTK3472:33LKR6A5KFR5323L3JREUB5KC5N1TU", "dateTime": 1520616905478}, {"current_trial": 226, "trialdata": {"rt": -1000, "trial_type": "single-audio", "word": "beaker", "stimulus": "/static/audio/wordpool/BEAKER.wav", "conditions": [12, 800, "a", 24000], "internal_node_id": "0.0-163.0", "trial": 6, "time_elapsed": 1502638, "serialpos": 1, "key_press": -1, "wordID": 103, "type": "PRES_AUD", "trial_index": 226}, "uniqueid": "MTK3472:33LKR6A5KFR5323L3JREUB5KC5N1TU", "dateTime": 1520616907377}, {"current_trial": 227, "trialdata": {"rt": -1000, "trial_type": "single-audio", "word": "proton", "stimulus": "/static/audio/wordpool/PROTON.wav", "conditions": [12, 800, "a", 24000], "internal_node_id": "0.0-164.0", "trial": 6, "time_elapsed": 1504603, "serialpos": 2, "key_press": -1, "wordID": 1131, "type": "PRES_AUD", "trial_index": 227}, "uniqueid": "MTK3472:33LKR6A5KFR5323L3JREUB5KC5N1TU", "dateTime": 1520616909342}, {"current_trial": 228, "trialdata": {"rt": -1000, "trial_type": "single-audio", "word": "lagoon", "stimulus": "/static/audio/wordpool/LAGOON.wav", "conditions": [12, 800, "a", 24000], "internal_node_id": "0.0-165.0", "trial": 6, "time_elapsed": 1506438, "serialpos": 3, "key_press": -1, "wordID": 794, "type": "PRES_AUD", "trial_index": 228}, "uniqueid": "MTK3472:33LKR6A5KFR5323L3JREUB5KC5N1TU", "dateTime": 1520616911177}, {"current_trial": 229, "trialdata": {"rt": -1000, "trial_type": "single-audio", "word": "spoon", "stimulus": "/static/audio/wordpool/SPOON.wav", "conditions": [12, 800, "a", 24000], "internal_node_id": "0.0-166.0", "trial": 6, "time_elapsed": 1508198, "serialpos": 4, "key_press": -1, "wordID": 1356, "type": "PRES_AUD", "trial_index": 229}, "uniqueid": "MTK3472:33LKR6A5KFR5323L3JREUB5KC5N1TU", "dateTime": 1520616912937}, {"current_trial": 230, "trialdata": {"rt": -1000, "trial_type": "single-audio", "word": "burglar", "stimulus": "/static/audio/wordpool/BURGLAR.wav", "conditions": [12, 800, "a", 24000], "internal_node_id": "0.0-167.0", "trial": 6, "time_elapsed": 1510002, "serialpos": 5, "key_press": -1, "wordID": 199, "type": "PRES_AUD", "trial_index": 230}, "uniqueid": "MTK3472:33LKR6A5KFR5323L3JREUB5KC5N1TU", "dateTime": 1520616914741}, {"current_trial": 231, "trialdata": {"rt": -1000, "trial_type": "single-audio", "word": "river", "stimulus": "/static/audio/wordpool/RIVER.wav", "conditions": [12, 800, "a", 24000], "internal_node_id": "0.0-168.0", "trial": 6, "time_elapsed": 1511979, "serialpos": 6, "key_press": -1, "wordID": 1193, "type": "PRES_AUD", "trial_index": 231}, "uniqueid": "MTK3472:33LKR6A5KFR5323L3JREUB5KC5N1TU", "dateTime": 1520616916718}, {"current_trial": 232, "trialdata": {"rt": -1000, "trial_type": "single-audio", "word": "penguin", "stimulus": "/static/audio/wordpool/PENGUIN.wav", "conditions": [12, 800, "a", 24000], "internal_node_id": "0.0-169.0", "trial": 6, "time_elapsed": 1513655, "serialpos": 7, "key_press": -1, "wordID": 1043, "type": "PRES_AUD", "trial_index": 232}, "uniqueid": "MTK3472:33LKR6A5KFR5323L3JREUB5KC5N1TU", "dateTime": 1520616918394}, {"current_trial": 233, "trialdata": {"rt": -1000, "trial_type": "single-audio", "word": "scallop", "stimulus": "/static/audio/wordpool/SCALLOP.wav", "conditions": [12, 800, "a", 24000], "internal_node_id": "0.0-170.0", "trial": 6, "time_elapsed": 1515438, "serialpos": 8, "key_press": -1, "wordID": 1241, "type": "PRES_AUD", "trial_index": 233}, "uniqueid": "MTK3472:33LKR6A5KFR5323L3JREUB5KC5N1TU", "dateTime": 1520616920177}, {"current_trial": 234, "trialdata": {"rt": -1000, "trial_type": "single-audio", "word": "salmon", "stimulus": "/static/audio/wordpool/SALMON.wav", "conditions": [12, 800, "a", 24000], "internal_node_id": "0.0-171.0", "trial": 6, "time_elapsed": 1517308, "serialpos": 9, "key_press": -1, "wordID": 1226, "type": "PRES_AUD", "trial_index": 234}, "uniqueid": "MTK3472:33LKR6A5KFR5323L3JREUB5KC5N1TU", "dateTime": 1520616922047}, {"current_trial": 235, "trialdata": {"rt": -1000, "trial_type": "single-audio", "word": "monster", "stimulus": "/static/audio/wordpool/MONSTER.wav", "conditions": [12, 800, "a", 24000], "internal_node_id": "0.0-172.0", "trial": 6, "time_elapsed": 1519083, "serialpos": 10, "key_press": -1, "wordID": 911, "type": "PRES_AUD", "trial_index": 235}, "uniqueid": "MTK3472:33LKR6A5KFR5323L3JREUB5KC5N1TU", "dateTime": 1520616923822}, {"current_trial": 236, "trialdata": {"rt": -1000, "trial_type": "single-audio", "word": "ghetto", "stimulus": "/static/audio/wordpool/GHETTO.wav", "conditions": [12, 800, "a", 24000], "internal_node_id": "0.0-173.0", "trial": 6, "time_elapsed": 1521061, "serialpos": 11, "key_press": -1, "wordID": 632, "type": "PRES_AUD", "trial_index": 236}, "uniqueid": "MTK3472:33LKR6A5KFR5323L3JREUB5KC5N1TU", "dateTime": 1520616925800}, {"current_trial": 237, "trialdata": {"rt": -1, "trial_type": "single-stim", "stimulus": "", "internal_node_id": "0.0-174.0-0.0", "time_elapsed": 1522329, "key_press": -1, "type": "PRE_RECALL_DELAY", "trial_index": 237}, "uniqueid": "MTK3472:33LKR6A5KFR5323L3JREUB5KC5N1TU", "dateTime": 1520616927068}, {"current_trial": 238, "trialdata": {"rt": -1000, "trial_type": "single-audio", "stimulus": "/static/audio/400Hz.wav", "internal_node_id": "0.0-175.0", "time_elapsed": 1522832, "key_press": -1, "type": "PRE_RECALL_ALERT", "trial_index": 238}, "uniqueid": "MTK3472:33LKR6A5KFR5323L3JREUB5KC5N1TU", "dateTime": 1520616927576}, {"current_trial": 239, "trialdata": {"rt": [6080, 10940, 13434, 24837], "recwords": ["ghetto", "monster", "salmon", "cashier"], "key_times": [4175, 4468, 4739, 5063, 5238, 5382, 6080, 9133, 9379, 9623, 10134, 10320, 10456, 10539, 10940, 11298, 11541, 11997, 12096, 12280, 12567, 12848, 13063, 13434, 22656, 22871, 23540, 23794, 24059, 24136, 24218, 24837], "trial_type": "free-recall", "conditions": [12, 800, "a", 24000], "internal_node_id": "0.0-176.0-0.0", "key_presses": [71, 72, 69, 84, 84, 79, 13, 77, 79, 78, 83, 84, 69, 82, 13, 83, 76, 8, 65, 76, 77, 79, 78, 13, 67, 65, 83, 72, 73, 69, 82, 13], "trial": 6, "time_elapsed": 1582843, "type": "FREE_RECALL", "trial_index": 239}, "uniqueid": "MTK3472:33LKR6A5KFR5323L3JREUB5KC5N1TU", "dateTime": 1520616987593}, {"current_trial": 240, "trialdata": {"rt": 3189, "trial_type": "text", "internal_node_id": "0.0-177.0", "time_elapsed": 1588044, "key_press": 70, "type": "INSTRUCTIONS", "trial_index": 240}, "uniqueid": "MTK3472:33LKR6A5KFR5323L3JREUB5KC5N1TU", "dateTime": 1520616992784}, {"current_trial": 241, "trialdata": {"rt": [2464, 4814, 6929, 9191, 11292, 14969, 18331], "trial_type": "math-distractor", "key_times": [1648, 1913, 2464, 3773, 4035, 4814, 5994, 6652, 6929, 8615, 8813, 9191, 10267, 10989, 11292, 12849, 13319, 14969, 16855, 17823, 18331, 20228], "responses": ["18", "22", "16", "11", "14", "21", "16"], "num2": [8, 7, 5, 1, 7, 7, 4, 3], "num3": [9, 8, 6, 2, 1, 6, 8, 3], "conditions": [24, 800, "a", 24000], "internal_node_id": "0.0-178.0", "key_presses": [49, 56, 13, 50, 50, 13, 49, 54, 13, 49, 49, 13, 49, 52, 13, 50, 49, 13, 49, 54, 13, 49], "trial": 7, "time_elapsed": 1614059, "type": "DISTRACTOR", "trial_index": 241, "num1": [1, 7, 5, 8, 6, 8, 4, 9]}, "uniqueid": "MTK3472:33LKR6A5KFR5323L3JREUB5KC5N1TU", "dateTime": 1520617018798}, {"current_trial": 242, "trialdata": {"rt": -1, "trial_type": "single-stim", "stimulus": "<p id=\"stim\">10</p>", "internal_node_id": "0.0-179.0-0.0", "time_elapsed": 1617060, "key_press": -1, "trial_index": 242}, "uniqueid": "MTK3472:33LKR6A5KFR5323L3JREUB5KC5N1TU", "dateTime": 1520617021799}, {"current_trial": 243, "trialdata": {"rt": -1, "trial_type": "single-stim", "stimulus": "<p id=\"stim\">9</p>", "internal_node_id": "0.0-179.0-1.0", "time_elapsed": 1618061, "key_press": -1, "trial_index": 243}, "uniqueid": "MTK3472:33LKR6A5KFR5323L3JREUB5KC5N1TU", "dateTime": 1520617022801}, {"current_trial": 244, "trialdata": {"rt": -1, "trial_type": "single-stim", "stimulus": "<p id=\"stim\">8</p>", "internal_node_id": "0.0-179.0-2.0", "time_elapsed": 1619063, "key_press": -1, "trial_index": 244}, "uniqueid": "MTK3472:33LKR6A5KFR5323L3JREUB5KC5N1TU", "dateTime": 1520617023802}, {"current_trial": 245, "trialdata": {"rt": -1, "trial_type": "single-stim", "stimulus": "<p id=\"stim\">7</p>", "internal_node_id": "0.0-179.0-3.0", "time_elapsed": 1620065, "key_press": -1, "trial_index": 245}, "uniqueid": "MTK3472:33LKR6A5KFR5323L3JREUB5KC5N1TU", "dateTime": 1520617024804}, {"current_trial": 246, "trialdata": {"rt": -1, "trial_type": "single-stim", "stimulus": "<p id=\"stim\">6</p>", "internal_node_id": "0.0-179.0-4.0", "time_elapsed": 1621066, "key_press": -1, "trial_index": 246}, "uniqueid": "MTK3472:33LKR6A5KFR5323L3JREUB5KC5N1TU", "dateTime": 1520617025806}, {"current_trial": 247, "trialdata": {"rt": -1, "trial_type": "single-stim", "stimulus": "<p id=\"stim\">5</p>", "internal_node_id": "0.0-179.0-5.0", "time_elapsed": 1622069, "key_press": -1, "trial_index": 247}, "uniqueid": "MTK3472:33LKR6A5KFR5323L3JREUB5KC5N1TU", "dateTime": 1520617026808}, {"current_trial": 248, "trialdata": {"rt": -1, "trial_type": "single-stim", "stimulus": "<p id=\"stim\">4</p>", "internal_node_id": "0.0-179.0-6.0", "time_elapsed": 1623071, "key_press": -1, "trial_index": 248}, "uniqueid": "MTK3472:33LKR6A5KFR5323L3JREUB5KC5N1TU", "dateTime": 1520617027811}, {"current_trial": 249, "trialdata": {"rt": -1, "trial_type": "single-stim", "stimulus": "<p id=\"stim\">3</p>", "internal_node_id": "0.0-179.0-7.0", "time_elapsed": 1624072, "key_press": -1, "trial_index": 249}, "uniqueid": "MTK3472:33LKR6A5KFR5323L3JREUB5KC5N1TU", "dateTime": 1520617028812}, {"current_trial": 250, "trialdata": {"rt": -1, "trial_type": "single-stim", "stimulus": "<p id=\"stim\">2</p>", "internal_node_id": "0.0-179.0-8.0", "time_elapsed": 1625075, "key_press": -1, "trial_index": 250}, "uniqueid": "MTK3472:33LKR6A5KFR5323L3JREUB5KC5N1TU", "dateTime": 1520617029814}, {"current_trial": 251, "trialdata": {"rt": -1, "trial_type": "single-stim", "stimulus": "<p id=\"stim\">1</p>", "internal_node_id": "0.0-179.0-9.0", "time_elapsed": 1626077, "key_press": -1, "trial_index": 251}, "uniqueid": "MTK3472:33LKR6A5KFR5323L3JREUB5KC5N1TU", "dateTime": 1520617030817}, {"current_trial": 252, "trialdata": {"rt": -1, "trial_type": "single-stim", "stimulus": "<p id=\"stim\">+</p>", "internal_node_id": "0.0-180.0-0.0", "time_elapsed": 1627580, "key_press": -1, "type": "FIXATION", "trial_index": 252}, "uniqueid": "MTK3472:33LKR6A5KFR5323L3JREUB5KC5N1TU", "dateTime": 1520617032319}, {"current_trial": 253, "trialdata": {"rt": -1000, "trial_type": "single-audio", "word": "county", "stimulus": "/static/audio/wordpool/COUNTY.wav", "conditions": [24, 800, "a", 24000], "internal_node_id": "0.0-181.0", "trial": 7, "time_elapsed": 1629269, "serialpos": 0, "key_press": -1, "wordID": 388, "type": "PRES_AUD", "trial_index": 253}, "uniqueid": "MTK3472:33LKR6A5KFR5323L3JREUB5KC5N1TU", "dateTime": 1520617034008}, {"current_trial": 254, "trialdata": {"rt": -1000, "trial_type": "single-audio", "word": "europe", "stimulus": "/static/audio/wordpool/EUROPE.wav", "conditions": [24, 800, "a", 24000], "internal_node_id": "0.0-182.0", "trial": 7, "time_elapsed": 1631208, "serialpos": 1, "key_press": -1, "wordID": 540, "type": "PRES_AUD", "trial_index": 254}, "uniqueid": "MTK3472:33LKR6A5KFR5323L3JREUB5KC5N1TU", "dateTime": 1520617035947}, {"current_trial": 255, "trialdata": {"rt": -1000, "trial_type": "single-audio", "word": "lightning", "stimulus": "/static/audio/wordpool/LIGHTNING.wav", "conditions": [24, 800, "a", 24000], "internal_node_id": "0.0-183.0", "trial": 7, "time_elapsed": 1633205, "serialpos": 2, "key_press": -1, "wordID": 819, "type": "PRES_AUD", "trial_index": 255}, "uniqueid": "MTK3472:33LKR6A5KFR5323L3JREUB5KC5N1TU", "dateTime": 1520617037944}, {"current_trial": 256, "trialdata": {"rt": -1000, "trial_type": "single-audio", "word": "item", "stimulus": "/static/audio/wordpool/ITEM.wav", 