{"assignmentId": "3FTOP5WARGVBIAMYV69AE0Z193WJ0U", "workerId": "MTK3356", "questiondata": {"avail_screen_height": 984, "color_depth": 24, "screen_width": 1280, "pixel_depth": 24, "avail_screen_width": 1280, "screen_height": 1024}, "bonus": 0, "hitId": "3K3IX1W4S6Y1IEPKSJ6LBI166LPAPL", "counterbalance": 1815, "useragent": "Mozilla/5.0 (Windows NT 10.0; Win64; x64) AppleWebKit/537.36 (KHTML, like Gecko) Chrome/64.0.3282.186 Safari/537.36", "eventdata": [{"eventtype": "initialized", "interval": 0, "value": null, "timestamp": 1520448858829}, {"eventtype": "window_resize", "interval": 0, "value": [1280, 977], "timestamp": 1520448858829}, {"eventtype": "focus", "interval": 496339, "value": "off", "timestamp": 1520449355168}], "data": [{"current_trial": 0, "trialdata": {"rt": 1915, "trial_type": "text", "internal_node_id": "0.0-0.0", "time_elapsed": 1917, "key_press": 32, "type": "INSTRUCTIONS", "trial_index": 0}, "uniqueid": "MTK3356:3FTOP5WARGVBIAMYV69AE0Z193WJ0U", "dateTime": 1520448861401}, {"current_trial": 1, "trialdata": {"rt": 2284, "trial_type": "text", "internal_node_id": "0.0-1.0", "time_elapsed": 4203, "key_press": 32, "type": "INSTRUCTIONS", "trial_index": 1}, "uniqueid": "MTK3356:3FTOP5WARGVBIAMYV69AE0Z193WJ0U", "dateTime": 1520448863686}, {"current_trial": 2, "trialdata": {"rt": [17456], "trial_type": "audio-test", "responses": ["ocean"], "internal_node_id": "0.0-2.0", "time_elapsed": 21677, "type": "AUDIO_TEST", "trial_index": 2}, "uniqueid": "MTK3356:3FTOP5WARGVBIAMYV69AE0Z193WJ0U", "dateTime": 1520448881160}, {"current_trial": 3, "trialdata": {"rt": [8043], "trial_type": "audio-test", "responses": ["crystal"], "internal_node_id": "0.0-3.0", "time_elapsed": 29725, "type": "AUDIO_TEST", "trial_index": 3}, "uniqueid": "MTK3356:3FTOP5WARGVBIAMYV69AE0Z193WJ0U", "dateTime": 1520448889208}, {"current_trial": 4, "trialdata": {"rt": [4987], "trial_type": "audio-test", "responses": ["spice"], "internal_node_id": "0.0-4.0", "time_elapsed": 34716, "type": "AUDIO_TEST", "trial_index": 4}, "uniqueid": "MTK3356:3FTOP5WARGVBIAMYV69AE0Z193WJ0U", "dateTime": 1520448894199}, {"current_trial": 5, "trialdata": {"rt": 23474, "trial_type": "survey-text", "responses": "{\"Q0\":\"9:30 pm\",\"Q1\":\"6:00 am\",\"Q2\":\"5\"}", "internal_node_id": "0.0-5.0", "time_elapsed": 58942, "type": "SLEEP_SURVEY", "trial_index": 5}, "uniqueid": "MTK3356:3FTOP5WARGVBIAMYV69AE0Z193WJ0U", "dateTime": 1520448918425}, {"current_trial": 6, "trialdata": {"rt": 3701, "trial_type": "text", "internal_node_id": "0.0-6.0", "time_elapsed": 63644, "key_press": 32, "type": "INSTRUCTIONS", "trial_index": 6}, "uniqueid": "MTK3356:3FTOP5WARGVBIAMYV69AE0Z193WJ0U", "dateTime": 1520448923127}, {"current_trial": 7, "trialdata": {"rt": 1515, "trial_type": "text", "internal_node_id": "0.0-7.0", "time_elapsed": 65659, "key_press": 32, "type": "INSTRUCTIONS", "trial_index": 7}, "uniqueid": "MTK3356:3FTOP5WARGVBIAMYV69AE0Z193WJ0U", "dateTime": 1520448925143}, {"current_trial": 8, "trialdata": {"rt": 1539, "trial_type": "text", "internal_node_id": "0.0-8.0", "time_elapsed": 67698, "key_press": 32, "type": "INSTRUCTIONS", "trial_index": 8}, "uniqueid": "MTK3356:3FTOP5WARGVBIAMYV69AE0Z193WJ0U", "dateTime": 1520448927183}, {"current_trial": 9, "trialdata": {"rt": [3812, 6732, 10693, 12797, 15533], "trial_type": "math-distractor", "key_times": [2109, 2293, 3036, 3812, 6100, 6732, 9916, 10108, 10693, 12108, 12317, 12797, 14965, 15533], "responses": ["16 ", "8", "16", "12", "8"], "num2": [6, 3, 4, 7, 2, 9], "num3": [6, 2, 9, 2, 2, 2], "conditions": [18, 1200, "v", 18000], "internal_node_id": "0.0-9.0", "key_presses": [97, 102, 32, 13, 104, 13, 97, 102, 13, 97, 98, 13, 104, 13], "trial": 0, "time_elapsed": 86704, "type": "DISTRACTOR", "trial_index": 9, "num1": [4, 2, 3, 3, 4, 7]}, "uniqueid": "MTK3356:3FTOP5WARGVBIAMYV69AE0Z193WJ0U", "dateTime": 1520448946187}, {"current_trial": 10, "trialdata": {"rt": -1, "trial_type": "single-stim", "stimulus": "<p id=\"stim\">10</p>", "internal_node_id": "0.0-10.0-0.0", "time_elapsed": 89704, "key_press": -1, "trial_index": 10}, "uniqueid": "MTK3356:3FTOP5WARGVBIAMYV69AE0Z193WJ0U", "dateTime": 1520448949188}, {"current_trial": 11, "trialdata": {"rt": -1, "trial_type": "single-stim", "stimulus": "<p id=\"stim\">9</p>", "internal_node_id": "0.0-10.0-1.0", "time_elapsed": 90705, "key_press": -1, "trial_index": 11}, "uniqueid": "MTK3356:3FTOP5WARGVBIAMYV69AE0Z193WJ0U", "dateTime": 1520448950188}, {"current_trial": 12, "trialdata": {"rt": -1, "trial_type": "single-stim", "stimulus": "<p id=\"stim\">8</p>", "internal_node_id": "0.0-10.0-2.0", "time_elapsed": 91706, "key_press": -1, "trial_index": 12}, "uniqueid": "MTK3356:3FTOP5WARGVBIAMYV69AE0Z193WJ0U", "dateTime": 1520448951189}, {"current_trial": 13, "trialdata": {"rt": -1, "trial_type": "single-stim", "stimulus": "<p id=\"stim\">7</p>", "internal_node_id": "0.0-10.0-3.0", "time_elapsed": 92706, "key_press": -1, "trial_index": 13}, "uniqueid": "MTK3356:3FTOP5WARGVBIAMYV69AE0Z193WJ0U", "dateTime": 1520448952189}, {"current_trial": 14, "trialdata": {"rt": -1, "trial_type": "single-stim", "stimulus": "<p id=\"stim\">6</p>", "internal_node_id": "0.0-10.0-4.0", "time_elapsed": 93706, "key_press": -1, "trial_index": 14}, "uniqueid": "MTK3356:3FTOP5WARGVBIAMYV69AE0Z193WJ0U", "dateTime": 1520448953189}, {"current_trial": 15, "trialdata": {"rt": -1, "trial_type": "single-stim", "stimulus": "<p id=\"stim\">5</p>", "internal_node_id": "0.0-10.0-5.0", "time_elapsed": 94707, "key_press": -1, "trial_index": 15}, "uniqueid": "MTK3356:3FTOP5WARGVBIAMYV69AE0Z193WJ0U", "dateTime": 1520448954190}, {"current_trial": 16, "trialdata": {"rt": -1, "trial_type": "single-stim", "stimulus": "<p id=\"stim\">4</p>", "internal_node_id": "0.0-10.0-6.0", "time_elapsed": 95707, "key_press": -1, "trial_index": 16}, "uniqueid": "MTK3356:3FTOP5WARGVBIAMYV69AE0Z193WJ0U", "dateTime": 1520448955190}, {"current_trial": 17, "trialdata": {"rt": -1, "trial_type": "single-stim", "stimulus": "<p id=\"stim\">3</p>", "internal_node_id": "0.0-10.0-7.0", "time_elapsed": 96709, "key_press": -1, "trial_index": 17}, "uniqueid": "MTK3356:3FTOP5WARGVBIAMYV69AE0Z193WJ0U", "dateTime": 1520448956192}, {"current_trial": 18, "trialdata": {"rt": -1, "trial_type": "single-stim", "stimulus": "<p id=\"stim\">2</p>", "internal_node_id": "0.0-10.0-8.0", "time_elapsed": 97710, "key_press": -1, "trial_index": 18}, "uniqueid": "MTK3356:3FTOP5WARGVBIAMYV69AE0Z193WJ0U", "dateTime": 1520448957193}, {"current_trial": 19, "trialdata": {"rt": -1, "trial_type": "single-stim", "stimulus": "<p id=\"stim\">1</p>", "internal_node_id": "0.0-10.0-9.0", "time_elapsed": 98710, "key_press": -1, "trial_index": 19}, "uniqueid": "MTK3356:3FTOP5WARGVBIAMYV69AE0Z193WJ0U", "dateTime": 1520448958193}, {"current_trial": 20, "trialdata": {"rt": -1, "trial_type": "single-stim", "stimulus": "<p id=\"stim\">+</p>", "internal_node_id": "0.0-11.0-0.0", "time_elapsed": 100211, "key_press": -1, "type": "FIXATION", "trial_index": 20}, "uniqueid": "MTK3356:3FTOP5WARGVBIAMYV69AE0Z193WJ0U", "dateTime": 1520448959694}, {"current_trial": 21, "trialdata": {"rt": -1, "trial_type": "single-stim", "word": "seagull", "stimulus": "<p id=\"stim\">SEAGULL</p>", "conditions": [18, 1200, "v", 18000], "internal_node_id": "0.0-12.0", "trial": 0, "time_elapsed": 101413, "serialpos": 0, "key_press": -1, "wordID": 1260, "type": "PRES_VIS", "trial_index": 21}, "uniqueid": "MTK3356:3FTOP5WARGVBIAMYV69AE0Z193WJ0U", "dateTime": 1520448960896}, {"current_trial": 22, "trialdata": {"rt": -1, "trial_type": "single-stim", "word": "cabbage", "stimulus": "<p id=\"stim\">CABBAGE</p>", "conditions": [18, 1200, "v", 18000], "internal_node_id": "0.0-13.0", "trial": 0, "time_elapsed": 103473, "serialpos": 1, "key_press": -1, "wordID": 209, "type": "PRES_VIS", "trial_index": 22}, "uniqueid": "MTK3356:3FTOP5WARGVBIAMYV69AE0Z193WJ0U", "dateTime": 1520448962956}, {"current_trial": 23, "trialdata": {"rt": -1, "trial_type": "single-stim", "word": "temple", "stimulus": "<p id=\"stim\">TEMPLE</p>", "conditions": [18, 1200, "v", 18000], "internal_node_id": "0.0-14.0", "trial": 0, "time_elapsed": 105658, "serialpos": 2, "key_press": -1, "wordID": 1447, "type": "PRES_VIS", "trial_index": 23}, "uniqueid": "MTK3356:3FTOP5WARGVBIAMYV69AE0Z193WJ0U", "dateTime": 1520448965141}, {"current_trial": 24, "trialdata": {"rt": -1, "trial_type": "single-stim", "word": "ox", "stimulus": "<p id=\"stim\">OX</p>", "conditions": [18, 1200, "v", 18000], "internal_node_id": "0.0-15.0", "trial": 0, "time_elapsed": 107887, "serialpos": 3, "key_press": -1, "wordID": 993, "type": "PRES_VIS", "trial_index": 24}, "uniqueid": "MTK3356:3FTOP5WARGVBIAMYV69AE0Z193WJ0U", "dateTime": 1520448967370}, {"current_trial": 25, "trialdata": {"rt": -1, "trial_type": "single-stim", "word": "coin", "stimulus": "<p id=\"stim\">COIN</p>", "conditions": [18, 1200, "v", 18000], "internal_node_id": "0.0-16.0", "trial": 0, "time_elapsed": 110201, "serialpos": 4, "key_press": -1, "wordID": 342, "type": "PRES_VIS", "trial_index": 25}, "uniqueid": "MTK3356:3FTOP5WARGVBIAMYV69AE0Z193WJ0U", "dateTime": 1520448969684}, {"current_trial": 26, "trialdata": {"rt": -1, "trial_type": "single-stim", "word": "burglar", "stimulus": "<p id=\"stim\">BURGLAR</p>", "conditions": [18, 1200, "v", 18000], "internal_node_id": "0.0-17.0", "trial": 0, "time_elapsed": 112223, "serialpos": 5, "key_press": -1, "wordID": 199, "type": "PRES_VIS", "trial_index": 26}, "uniqueid": "MTK3356:3FTOP5WARGVBIAMYV69AE0Z193WJ0U", "dateTime": 1520448971706}, {"current_trial": 27, "trialdata": {"rt": -1, "trial_type": "single-stim", "word": "necklace", "stimulus": "<p id=\"stim\">NECKLACE</p>", "conditions": [18, 1200, "v", 18000], "internal_node_id": "0.0-18.0", "trial": 0, "time_elapsed": 114492, "serialpos": 6, "key_press": -1, "wordID": 939, "type": "PRES_VIS", "trial_index": 27}, "uniqueid": "MTK3356:3FTOP5WARGVBIAMYV69AE0Z193WJ0U", "dateTime": 1520448973975}, {"current_trial": 28, "trialdata": {"rt": -1, "trial_type": "single-stim", "word": "woman", "stimulus": "<p id=\"stim\">WOMAN</p>", "conditions": [18, 1200, "v", 18000], "internal_node_id": "0.0-19.0", "trial": 0, "time_elapsed": 116652, "serialpos": 7, "key_press": -1, "wordID": 1619, "type": "PRES_VIS", "trial_index": 28}, "uniqueid": "MTK3356:3FTOP5WARGVBIAMYV69AE0Z193WJ0U", "dateTime": 1520448976135}, {"current_trial": 29, "trialdata": {"rt": -1, "trial_type": "single-stim", "word": "peach", "stimulus": "<p id=\"stim\">PEACH</p>", "conditions": [18, 1200, "v", 18000], "internal_node_id": "0.0-20.0", "trial": 0, "time_elapsed": 118893, "serialpos": 8, "key_press": -1, "wordID": 1030, "type": "PRES_VIS", "trial_index": 29}, "uniqueid": "MTK3356:3FTOP5WARGVBIAMYV69AE0Z193WJ0U", "dateTime": 1520448978376}, {"current_trial": 30, "trialdata": {"rt": -1, "trial_type": "single-stim", "word": "plaster", "stimulus": "<p id=\"stim\">PLASTER</p>", "conditions": [18, 1200, "v", 18000], "internal_node_id": "0.0-21.0", "trial": 0, "time_elapsed": 121088, "serialpos": 9, "key_press": -1, "wordID": 1084, "type": "PRES_VIS", "trial_index": 30}, "uniqueid": "MTK3356:3FTOP5WARGVBIAMYV69AE0Z193WJ0U", "dateTime": 1520448980571}, {"current_trial": 31, "trialdata": {"rt": -1, "trial_type": "single-stim", "word": "balloon", "stimulus": "<p id=\"stim\">BALLOON</p>", "conditions": [18, 1200, "v", 18000], "internal_node_id": "0.0-22.0", "trial": 0, "time_elapsed": 123191, "serialpos": 10, "key_press": -1, "wordID": 74, "type": "PRES_VIS", "trial_index": 31}, "uniqueid": "MTK3356:3FTOP5WARGVBIAMYV69AE0Z193WJ0U", "dateTime": 1520448982674}, {"current_trial": 32, "trialdata": {"rt": -1, "trial_type": "single-stim", "word": "saddle", "stimulus": "<p id=\"stim\">SADDLE</p>", "conditions": [18, 1200, "v", 18000], "internal_node_id": "0.0-23.0", "trial": 0, "time_elapsed": 125358, "serialpos": 11, "key_press": -1, "wordID": 1220, "type": "PRES_VIS", "trial_index": 32}, "uniqueid": "MTK3356:3FTOP5WARGVBIAMYV69AE0Z193WJ0U", "dateTime": 1520448984841}, {"current_trial": 33, "trialdata": {"rt": -1, "trial_type": "single-stim", "word": "spoon", "stimulus": "<p id=\"stim\">SPOON</p>", "conditions": [18, 1200, "v", 18000], "internal_node_id": "0.0-24.0", "trial": 0, "time_elapsed": 127591, "serialpos": 12, "key_press": -1, "wordID": 1356, "type": "PRES_VIS", "trial_index": 33}, "uniqueid": "MTK3356:3FTOP5WARGVBIAMYV69AE0Z193WJ0U", "dateTime": 1520448987074}, {"current_trial": 34, "trialdata": {"rt": -1, "trial_type": "single-stim", "word": "rug", "stimulus": "<p id=\"stim\">RUG</p>", "conditions": [18, 1200, "v", 18000], "internal_node_id": "0.0-25.0", "trial": 0, "time_elapsed": 129870, "serialpos": 13, "key_press": -1, "wordID": 1214, "type": "PRES_VIS", "trial_index": 34}, "uniqueid": "MTK3356:3FTOP5WARGVBIAMYV69AE0Z193WJ0U", "dateTime": 1520448989353}, {"current_trial": 35, "trialdata": {"rt": -1, "trial_type": "single-stim", "word": "venus", "stimulus": "<p id=\"stim\">VENUS</p>", "conditions": [18, 1200, "v", 18000], "internal_node_id": "0.0-26.0", "trial": 0, "time_elapsed": 132203, "serialpos": 14, "key_press": -1, "wordID": 1556, "type": "PRES_VIS", "trial_index": 35}, "uniqueid": "MTK3356:3FTOP5WARGVBIAMYV69AE0Z193WJ0U", "dateTime": 1520448991686}, {"current_trial": 36, "trialdata": {"rt": -1, "trial_type": "single-stim", "word": "lion", "stimulus": "<p id=\"stim\">LION</p>", "conditions": [18, 1200, "v", 18000], "internal_node_id": "0.0-27.0", "trial": 0, "time_elapsed": 134315, "serialpos": 15, "key_press": -1, "wordID": 826, "type": "PRES_VIS", "trial_index": 36}, "uniqueid": "MTK3356:3FTOP5WARGVBIAMYV69AE0Z193WJ0U", "dateTime": 1520448993798}, {"current_trial": 37, "trialdata": {"rt": -1, "trial_type": "single-stim", "word": "jelly", "stimulus": "<p id=\"stim\">JELLY</p>", "conditions": [18, 1200, "v", 18000], "internal_node_id": "0.0-28.0", "trial": 0, "time_elapsed": 136561, "serialpos": 16, "key_press": -1, "wordID": 754, "type": "PRES_VIS", "trial_index": 37}, "uniqueid": "MTK3356:3FTOP5WARGVBIAMYV69AE0Z193WJ0U", "dateTime": 1520448996044}, {"current_trial": 38, "trialdata": {"rt": -1, "trial_type": "single-stim", "word": "subway", "stimulus": "<p id=\"stim\">SUBWAY</p>", "conditions": [18, 1200, "v", 18000], "internal_node_id": "0.0-29.0", "trial": 0, "time_elapsed": 138819, "serialpos": 17, "key_press": -1, "wordID": 1399, "type": "PRES_VIS", "trial_index": 38}, "uniqueid": "MTK3356:3FTOP5WARGVBIAMYV69AE0Z193WJ0U", "dateTime": 1520448998302}, {"current_trial": 39, "trialdata": {"rt": -1, "trial_type": "single-stim", "stimulus": "", "internal_node_id": "0.0-30.0-0.0", "time_elapsed": 141172, "key_press": -1, "type": "PRE_RECALL_DELAY", "trial_index": 39}, "uniqueid": "MTK3356:3FTOP5WARGVBIAMYV69AE0Z193WJ0U", "dateTime": 1520449000655}, {"current_trial": 40, "trialdata": {"rt": -1000, "trial_type": "single-audio", "stimulus": "/static/audio/400Hz.wav", "internal_node_id": "0.0-31.0", "time_elapsed": 141673, "key_press": -1, "type": "PRE_RECALL_ALERT", "trial_index": 40}, "uniqueid": "MTK3356:3FTOP5WARGVBIAMYV69AE0Z193WJ0U", "dateTime": 1520449001156}, {"current_trial": 41, "trialdata": {"rt": [11865, 14848, 16672, 24216, 43096, 48624, 51776, 55192, 58280], "recwords": ["spice", "seagull", "ox", "queen", "crystal", "ocean", "lake", "beach", "new"], "key_times": [10145, 10528, 10872, 11064, 11232, 11865, 13240, 13432, 13656, 13816, 14144, 14352, 14536, 14848, 15712, 16360, 16672, 23072, 23344, 23552, 23784, 23912, 24216, 41273, 41736, 41912, 42160, 42368, 42552, 42657, 43096, 47424, 47640, 47872, 48112, 48280, 48624, 51032, 51168, 51360, 51504, 51776, 54136, 54344, 54535, 54776, 54944, 55192, 57728, 57856, 58016, 58280], "trial_type": "free-recall", "conditions": [18, 1200, "v", 18000], "internal_node_id": "0.0-32.0-0.0", "key_presses": [83, 80, 73, 67, 69, 13, 83, 69, 65, 71, 85, 76, 76, 13, 79, 88, 13, 81, 85, 69, 69, 78, 13, 67, 82, 89, 83, 84, 65, 76, 13, 79, 67, 69, 65, 78, 13, 76, 65, 75, 69, 13, 66, 69, 65, 67, 72, 13, 78, 69, 87, 13], "trial": 0, "time_elapsed": 201676, "type": "FREE_RECALL", "trial_index": 41}, "uniqueid": "MTK3356:3FTOP5WARGVBIAMYV69AE0Z193WJ0U", "dateTime": 1520449061161}, {"current_trial": 42, "trialdata": {"rt": 1781, "trial_type": "text", "internal_node_id": "0.0-33.0", "time_elapsed": 205459, "key_press": 32, "type": "INSTRUCTIONS", "trial_index": 42}, "uniqueid": "MTK3356:3FTOP5WARGVBIAMYV69AE0Z193WJ0U", "dateTime": 1520449064942}, {"current_trial": 43, "trialdata": {"rt": [3334, 6326, 9294, 12734, 15222, 17438], "trial_type": "math-distractor", "key_times": [2406, 2941, 3334, 5830, 6006, 6326, 8550, 8894, 9294, 12406, 12566, 12734, 14790, 15062, 15222, 17142, 17293, 17438], "responses": ["18", "20", "18", "14", "10", "11"], "num2": [6, 9, 6, 8, 2, 3, 1], "num3": [5, 8, 5, 2, 2, 1, 5], "conditions": [18, 1200, "v", 18000], "internal_node_id": "0.0-34.0", "key_presses": [97, 104, 13, 98, 96, 13, 97, 104, 13, 97, 100, 13, 97, 96, 13, 97, 97, 13], "trial": 1, "time_elapsed": 225461, "type": "DISTRACTOR", "trial_index": 43, "num1": [7, 3, 7, 4, 6, 7, 2]}, "uniqueid": "MTK3356:3FTOP5WARGVBIAMYV69AE0Z193WJ0U", "dateTime": 1520449084944}, {"current_trial": 44, "trialdata": {"rt": -1, "trial_type": "single-stim", "stimulus": "<p id=\"stim\">10</p>", "internal_node_id": "0.0-35.0-0.0", "time_elapsed": 228463, "key_press": -1, "trial_index": 44}, "uniqueid": "MTK3356:3FTOP5WARGVBIAMYV69AE0Z193WJ0U", "dateTime": 1520449087946}, {"current_trial": 45, "trialdata": {"rt": -1, "trial_type": "single-stim", "stimulus": "<p id=\"stim\">9</p>", "internal_node_id": "0.0-35.0-1.0", "time_elapsed": 229464, "key_press": -1, "trial_index": 45}, "uniqueid": "MTK3356:3FTOP5WARGVBIAMYV69AE0Z193WJ0U", "dateTime": 1520449088947}, {"current_trial": 46, "trialdata": {"rt": -1, "trial_type": "single-stim", "stimulus": "<p id=\"stim\">8</p>", "internal_node_id": "0.0-35.0-2.0", "time_elapsed": 230464, "key_press": -1, "trial_index": 46}, "uniqueid": "MTK3356:3FTOP5WARGVBIAMYV69AE0Z193WJ0U", "dateTime": 1520449089947}, {"current_trial": 47, "trialdata": {"rt": -1, "trial_type": "single-stim", "stimulus": "<p id=\"stim\">7</p>", "internal_node_id": "0.0-35.0-3.0", "time_elapsed": 231463, "key_press": -1, "trial_index": 47}, "uniqueid": "MTK3356:3FTOP5WARGVBIAMYV69AE0Z193WJ0U", "dateTime": 1520449090946}, {"current_trial": 48, "trialdata": {"rt": -1, "trial_type": "single-stim", "stimulus": "<p id=\"stim\">6</p>", "internal_node_id": "0.0-35.0-4.0", "time_elapsed": 232463, "key_press": -1, "trial_index": 48}, "uniqueid": "MTK3356:3FTOP5WARGVBIAMYV69AE0Z193WJ0U", "dateTime": 1520449091946}, {"current_trial": 49, "trialdata": {"rt": -1, "trial_type": "single-stim", "stimulus": "<p id=\"stim\">5</p>", "internal_node_id": "0.0-35.0-5.0", "time_elapsed": 233464, "key_press": -1, "trial_index": 49}, "uniqueid": "MTK3356:3FTOP5WARGVBIAMYV69AE0Z193WJ0U", "dateTime": 1520449092947}, {"current_trial": 50, "trialdata": {"rt": -1, "trial_type": "single-stim", "stimulus": "<p id=\"stim\">4</p>", "internal_node_id": "0.0-35.0-6.0", "time_elapsed": 234468, "key_press": -1, "trial_index": 50}, "uniqueid": "MTK3356:3FTOP5WARGVBIAMYV69AE0Z193WJ0U", "dateTime": 1520449093951}, {"current_trial": 51, "trialdata": {"rt": -1, "trial_type": "single-stim", "stimulus": "<p id=\"stim\">3</p>", "internal_node_id": "0.0-35.0-7.0", "time_elapsed": 235468, "key_press": -1, "trial_index": 51}, "uniqueid": "MTK3356:3FTOP5WARGVBIAMYV69AE0Z193WJ0U", "dateTime": 1520449094951}, {"current_trial": 52, "trialdata": {"rt": -1, "trial_type": "single-stim", "stimulus": "<p id=\"stim\">2</p>", "internal_node_id": "0.0-35.0-8.0", "time_elapsed": 236468, "key_press": -1, "trial_index": 52}, "uniqueid": "MTK3356:3FTOP5WARGVBIAMYV69AE0Z193WJ0U", "dateTime": 1520449095951}, {"current_trial": 53, "trialdata": {"rt": -1, "trial_type": "single-stim", "stimulus": "<p id=\"stim\">1</p>", "internal_node_id": "0.0-35.0-9.0", "time_elapsed": 237467, "key_press": -1, "trial_index": 53}, "uniqueid": "MTK3356:3FTOP5WARGVBIAMYV69AE0Z193WJ0U", "dateTime": 1520449096950}, {"current_trial": 54, "trialdata": {"rt": -1, "trial_type": "single-stim", "stimulus": "<p id=\"stim\">+</p>", "internal_node_id": "0.0-36.0-0.0", "time_elapsed": 238968, "key_press": -1, "type": "FIXATION", "trial_index": 54}, "uniqueid": "MTK3356:3FTOP5WARGVBIAMYV69AE0Z193WJ0U", "dateTime": 1520449098451}, {"current_trial": 55, "trialdata": {"rt": -1, "trial_type": "single-stim", "word": "gymnast", "stimulus": "<p id=\"stim\">GYMNAST</p>", "conditions": [18, 1200, "v", 18000], "internal_node_id": "0.0-37.0", "trial": 1, "time_elapsed": 240169, "serialpos": 0, "key_press": -1, "wordID": 674, "type": "PRES_VIS", "trial_index": 55}, "uniqueid": "MTK3356:3FTOP5WARGVBIAMYV69AE0Z193WJ0U", "dateTime": 1520449099652}, {"current_trial": 56, "trialdata": {"rt": -1, "trial_type": "single-stim", "word": "bathtub", "stimulus": "<p id=\"stim\">BATHTUB</p>", "conditions": [18, 1200, "v", 18000], "internal_node_id": "0.0-38.0", "trial": 1, "time_elapsed": 242415, "serialpos": 1, "key_press": -1, "wordID": 99, "type": "PRES_VIS", "trial_index": 56}, "uniqueid": "MTK3356:3FTOP5WARGVBIAMYV69AE0Z193WJ0U", "dateTime": 1520449101898}, {"current_trial": 57, "trialdata": {"rt": -1, "trial_type": "single-stim", "word": "smog", "stimulus": "<p id=\"stim\">SMOG</p>", "conditions": [18, 1200, "v", 18000], "internal_node_id": "0.0-39.0", "trial": 1, "time_elapsed": 244770, "serialpos": 2, "key_press": -1, "wordID": 1329, "type": "PRES_VIS", "trial_index": 57}, "uniqueid": "MTK3356:3FTOP5WARGVBIAMYV69AE0Z193WJ0U", "dateTime": 1520449104253}, {"current_trial": 58, "trialdata": {"rt": -1, "trial_type": "single-stim", "word": "rebel", "stimulus": "<p id=\"stim\">REBEL</p>", "conditions": [18, 1200, "v", 18000], "internal_node_id": "0.0-40.0", "trial": 1, "time_elapsed": 246776, "serialpos": 3, "key_press": -1, "wordID": 1171, "type": "PRES_VIS", "trial_index": 58}, "uniqueid": "MTK3356:3FTOP5WARGVBIAMYV69AE0Z193WJ0U", "dateTime": 1520449106259}, {"current_trial": 59, "trialdata": {"rt": -1, "trial_type": "single-stim", "word": "fragrance", "stimulus": "<p id=\"stim\">FRAGRANCE</p>", "conditions": [18, 1200, "v", 18000], "internal_node_id": "0.0-41.0", "trial": 1, "time_elapsed": 248892, "serialpos": 4, "key_press": -1, "wordID": 598, "type": "PRES_VIS", "trial_index": 59}, "uniqueid": "MTK3356:3FTOP5WARGVBIAMYV69AE0Z193WJ0U", "dateTime": 1520449108375}, {"current_trial": 60, "trialdata": {"rt": -1, "trial_type": "single-stim", "word": "pudding", "stimulus": "<p id=\"stim\">PUDDING</p>", "conditions": [18, 1200, "v", 18000], "internal_node_id": "0.0-42.0", "trial": 1, "time_elapsed": 251231, "serialpos": 5, "key_press": -1, "wordID": 1138, "type": "PRES_VIS", "trial_index": 60}, "uniqueid": "MTK3356:3FTOP5WARGVBIAMYV69AE0Z193WJ0U", "dateTime": 1520449110714}, {"current_trial": 61, "trialdata": {"rt": -1, "trial_type": "single-stim", "word": "judge", "stimulus": "<p id=\"stim\">JUDGE</p>", "conditions": [18, 1200, "v", 18000], "internal_node_id": "0.0-43.0", "trial": 1, "time_elapsed": 253335, "serialpos": 6, "key_press": -1, "wordID": 760, "type": "PRES_VIS", "trial_index": 61}, "uniqueid": "MTK3356:3FTOP5WARGVBIAMYV69AE0Z193WJ0U", "dateTime": 1520449112818}, {"current_trial": 62, "trialdata": {"rt": -1, "trial_type": "single-stim", "word": "dorm", "stimulus": "<p id=\"stim\">DORM</p>", "conditions": [18, 1200, "v", 18000], "internal_node_id": "0.0-44.0", "trial": 1, "time_elapsed": 255501, "serialpos": 7, "key_press": -1, "wordID": 487, "type": "PRES_VIS", "trial_index": 62}, "uniqueid": "MTK3356:3FTOP5WARGVBIAMYV69AE0Z193WJ0U", "dateTime": 1520449114984}, {"current_trial": 63, "trialdata": {"rt": -1, "trial_type": "single-stim", "word": "driver", "stimulus": "<p id=\"stim\">DRIVER</p>", "conditions": [18, 1200, "v", 18000], "internal_node_id": "0.0-45.0", "trial": 1, "time_elapsed": 257676, "serialpos": 8, "key_press": -1, "wordID": 498, "type": "PRES_VIS", "trial_index": 63}, "uniqueid": "MTK3356:3FTOP5WARGVBIAMYV69AE0Z193WJ0U", "dateTime": 1520449117159}, {"current_trial": 64, "trialdata": {"rt": -1, "trial_type": "single-stim", "word": "shortcake", "stimulus": "<p id=\"stim\">SHORTCAKE</p>", "conditions": [18, 1200, "v", 18000], "internal_node_id": "0.0-46.0", "trial": 1, "time_elapsed": 259988, "serialpos": 9, "key_press": -1, "wordID": 1291, "type": "PRES_VIS", "trial_index": 64}, "uniqueid": "MTK3356:3FTOP5WARGVBIAMYV69AE0Z193WJ0U", "dateTime": 1520449119471}, {"current_trial": 65, "trialdata": {"rt": -1, "trial_type": "single-stim", "word": "napkin", "stimulus": "<p id=\"stim\">NAPKIN</p>", "conditions": [18, 1200, "v", 18000], "internal_node_id": "0.0-47.0", "trial": 1, "time_elapsed": 262096, "serialpos": 10, "key_press": -1, "wordID": 936, "type": "PRES_VIS", "trial_index": 65}, "uniqueid": "MTK3356:3FTOP5WARGVBIAMYV69AE0Z193WJ0U", "dateTime": 1520449121579}, {"current_trial": 66, "trialdata": {"rt": -1, "trial_type": "single-stim", "word": "slope", "stimulus": "<p id=\"stim\">SLOPE</p>", "conditions": [18, 1200, "v", 18000], "internal_node_id": "0.0-48.0", "trial": 1, "time_elapsed": 264456, "serialpos": 11, "key_press": -1, "wordID": 1327, "type": "PRES_VIS", "trial_index": 66}, "uniqueid": "MTK3356:3FTOP5WARGVBIAMYV69AE0Z193WJ0U", "dateTime": 1520449123939}, {"current_trial": 67, "trialdata": {"rt": -1, "trial_type": "single-stim", "word": "ulcer", "stimulus": "<p id=\"stim\">ULCER</p>", "conditions": [18, 1200, "v", 18000], "internal_node_id": "0.0-49.0", "trial": 1, "time_elapsed": 266800, "serialpos": 12, "key_press": -1, "wordID": 1532, "type": "PRES_VIS", "trial_index": 67}, "uniqueid": "MTK3356:3FTOP5WARGVBIAMYV69AE0Z193WJ0U", "dateTime": 1520449126283}, {"current_trial": 68, "trialdata": {"rt": -1, "trial_type": "single-stim", "word": "summit", "stimulus": "<p id=\"stim\">SUMMIT</p>", "conditions": [18, 1200, "v", 18000], "internal_node_id": "0.0-50.0", "trial": 1, "time_elapsed": 268958, "serialpos": 13, "key_press": -1, "wordID": 1404, "type": "PRES_VIS", "trial_index": 68}, "uniqueid": "MTK3356:3FTOP5WARGVBIAMYV69AE0Z193WJ0U", "dateTime": 1520449128443}, {"current_trial": 69, "trialdata": {"rt": -1, "trial_type": "single-stim", "word": "scribble", "stimulus": "<p id=\"stim\">SCRIBBLE</p>", "conditions": [18, 1200, "v", 18000], "internal_node_id": "0.0-51.0", "trial": 1, "time_elapsed": 271175, "serialpos": 14, "key_press": -1, "wordID": 1255, "type": "PRES_VIS", "trial_index": 69}, "uniqueid": "MTK3356:3FTOP5WARGVBIAMYV69AE0Z193WJ0U", "dateTime": 1520449130658}, {"current_trial": 70, "trialdata": {"rt": -1, "trial_type": "single-stim", "word": "table", "stimulus": "<p id=\"stim\">TABLE</p>", "conditions": [18, 1200, "v", 18000], "internal_node_id": "0.0-52.0", "trial": 1, "time_elapsed": 273277, "serialpos": 15, "key_press": -1, "wordID": 1425, "type": "PRES_VIS", "trial_index": 70}, "uniqueid": "MTK3356:3FTOP5WARGVBIAMYV69AE0Z193WJ0U", "dateTime": 1520449132760}, {"current_trial": 71, "trialdata": {"rt": -1, "trial_type": "single-stim", "word": "luggage", "stimulus": "<p id=\"stim\">LUGGAGE</p>", "conditions": [18, 1200, "v", 18000], "internal_node_id": "0.0-53.0", "trial": 1, "time_elapsed": 275535, "serialpos": 16, "key_press": -1, "wordID": 846, "type": "PRES_VIS", "trial_index": 71}, "uniqueid": "MTK3356:3FTOP5WARGVBIAMYV69AE0Z193WJ0U", "dateTime": 1520449135018}, {"current_trial": 72, "trialdata": {"rt": -1, "trial_type": "single-stim", "word": "umpire", "stimulus": "<p id=\"stim\">UMPIRE</p>", "conditions": [18, 1200, "v", 18000], "internal_node_id": "0.0-54.0", "trial": 1, "time_elapsed": 277807, "serialpos": 17, "key_press": -1, "wordID": 1534, "type": "PRES_VIS", "trial_index": 72}, "uniqueid": "MTK3356:3FTOP5WARGVBIAMYV69AE0Z193WJ0U", "dateTime": 1520449137290}, {"current_trial": 73, "trialdata": {"rt": -1, "trial_type": "single-stim", "stimulus": "", "internal_node_id": "0.0-55.0-0.0", "time_elapsed": 280115, "key_press": -1, "type": "PRE_RECALL_DELAY", "trial_index": 73}, "uniqueid": "MTK3356:3FTOP5WARGVBIAMYV69AE0Z193WJ0U", "dateTime": 1520449139598}, {"current_trial": 74, "trialdata": {"rt": -1000, "trial_type": "single-audio", "stimulus": "/static/audio/400Hz.wav", "internal_node_id": "0.0-56.0", "time_elapsed": 280617, "key_press": -1, "type": "PRE_RECALL_ALERT", "trial_index": 74}, "uniqueid": "MTK3356:3FTOP5WARGVBIAMYV69AE0Z193WJ0U", "dateTime": 1520449140100}, {"current_trial": 75, "trialdata": {"rt": [2513, 4721, 8096, 9585, 12849, 16713, 21561, 24577, 46752, 51760], "recwords": ["umpire", "luggage", "bathroom", "dorm", "scribble", "napkin", "table", "room", "bathtub", "door"], "key_times": [537, 849, 1505, 1721, 1921, 2032, 2513, 3040, 3297, 3634, 3753, 3921, 4113, 4369, 4721, 6505, 6696, 6889, 7009, 7201, 7352, 7489, 7873, 8096, 8760, 8880, 9016, 9328, 9585, 10641, 11592, 11816, 11977, 12185, 12377, 12489, 12601, 12849, 15313, 15433, 15865, 16112, 16313, 16465, 16713, 20672, 20849, 21009, 21153, 21241, 21561, 23209, 23369, 23552, 24272, 24577, 45177, 45417, 45608, 45784, 46152, 46408, 46559, 46752, 50864, 51049, 51296, 51592, 51760], "trial_type": "free-recall", "conditions": [18, 1200, "v", 18000], "internal_node_id": "0.0-57.0-0.0", "key_presses": [85, 77, 80, 73, 82, 69, 13, 76, 85, 71, 71, 65, 71, 69, 13, 66, 65, 84, 72, 82, 79, 79, 77, 13, 68, 79, 82, 77, 13, 83, 67, 82, 73, 66, 66, 76, 69, 13, 78, 65, 80, 75, 73, 78, 13, 84, 65, 66, 76, 69, 13, 82, 79, 79, 77, 13, 66, 65, 84, 72, 84, 85, 66, 13, 68, 79, 79, 82, 13], "trial": 1, "time_elapsed": 340618, "type": "FREE_RECALL", "trial_index": 75}, "uniqueid": "MTK3356:3FTOP5WARGVBIAMYV69AE0Z193WJ0U", "dateTime": 1520449200103}, {"current_trial": 76, "trialdata": {"rt": 1615, "trial_type": "text", "internal_node_id": "0.0-58.0", "time_elapsed": 344235, "key_press": 32, "type": "INSTRUCTIONS", "trial_index": 76}, "uniqueid": "MTK3356:3FTOP5WARGVBIAMYV69AE0Z193WJ0U", "dateTime": 1520449203718}, {"current_trial": 77, "trialdata": {"rt": [2469, 5798, 8605, 10157, 12005, 16709, 18597, 20901, 22894], "trial_type": "math-distractor", "key_times": [1813, 1972, 2469, 5053, 5341, 5798, 8101, 8317, 8605, 9910, 10157, 11566, 11758, 12005, 16213, 16397, 16709, 18268, 18597, 20342, 20541, 20901, 22430, 22598, 22894], "responses": ["18", "18", "18", "3", "12", "18", "6", "19", "12"], "num2": [6, 9, 8, 1, 2, 6, 1, 4, 2, 5], "num3": [8, 6, 8, 1, 7, 3, 4, 7, 6, 6], "conditions": [24, 800, "v", 24000], "internal_node_id": "0.0-59.0", "key_presses": [97, 104, 13, 97, 104, 13, 97, 104, 13, 99, 13, 97, 98, 13, 97, 104, 13, 102, 13, 97, 105, 13, 97, 98, 13], "trial": 2, "time_elapsed": 369237, "type": "DISTRACTOR", "trial_index": 77, "num1": [4, 3, 2, 1, 3, 9, 1, 8, 4, 2]}, "uniqueid": "MTK3356:3FTOP5WARGVBIAMYV69AE0Z193WJ0U", "dateTime": 1520449228720}, {"current_trial": 78, "trialdata": {"rt": -1, "trial_type": "single-stim", "stimulus": "<p id=\"stim\">10</p>", "internal_node_id": "0.0-60.0-0.0", "time_elapsed": 372236, "key_press": -1, "trial_index": 78}, "uniqueid": "MTK3356:3FTOP5WARGVBIAMYV69AE0Z193WJ0U", "dateTime": 1520449231720}, {"current_trial": 79, "trialdata": {"rt": -1, "trial_type": "single-stim", "stimulus": "<p id=\"stim\">9</p>", "internal_node_id": "0.0-60.0-1.0", "time_elapsed": 373237, "key_press": -1, "trial_index": 79}, "uniqueid": "MTK3356:3FTOP5WARGVBIAMYV69AE0Z193WJ0U", "dateTime": 1520449232720}, {"current_trial": 80, "trialdata": {"rt": -1, "trial_type": "single-stim", "stimulus": "<p id=\"stim\">8</p>", "internal_node_id": "0.0-60.0-2.0", "time_elapsed": 374239, "key_press": -1, "trial_index": 80}, "uniqueid": "MTK3356:3FTOP5WARGVBIAMYV69AE0Z193WJ0U", "dateTime": 1520449233722}, {"current_trial": 81, "trialdata": {"rt": -1, "trial_type": "single-stim", "stimulus": "<p id=\"stim\">7</p>", "internal_node_id": "0.0-60.0-3.0", "time_elapsed": 375241, "key_press": -1, "trial_index": 81}, "uniqueid": "MTK3356:3FTOP5WARGVBIAMYV69AE0Z193WJ0U", "dateTime": 1520449234724}, {"current_trial": 82, "trialdata": {"rt": -1, "trial_type": "single-stim", "stimulus": "<p id=\"stim\">6</p>", "internal_node_id": "0.0-60.0-4.0", "time_elapsed": 376241, "key_press": -1, "trial_index": 82}, "uniqueid": "MTK3356:3FTOP5WARGVBIAMYV69AE0Z193WJ0U", "dateTime": 1520449235724}, {"current_trial": 83, "trialdata": {"rt": -1, "trial_type": "single-stim", "stimulus": "<p id=\"stim\">5</p>", "internal_node_id": "0.0-60.0-5.0", "time_elapsed": 377241, "key_press": -1, "trial_index": 83}, "uniqueid": "MTK3356:3FTOP5WARGVBIAMYV69AE0Z193WJ0U", "dateTime": 1520449236724}, {"current_trial": 84, "trialdata": {"rt": -1, "trial_type": "single-stim", "stimulus": "<p id=\"stim\">4</p>", "internal_node_id": "0.0-60.0-6.0", "time_elapsed": 378242, "key_press": -1, "trial_index": 84}, "uniqueid": "MTK3356:3FTOP5WARGVBIAMYV69AE0Z193WJ0U", "dateTime": 1520449237725}, {"current_trial": 85, "trialdata": {"rt": -1, "trial_type": "single-stim", "stimulus": "<p id=\"stim\">3</p>", "internal_node_id": "0.0-60.0-7.0", "time_elapsed": 379242, "key_press": -1, "trial_index": 85}, "uniqueid": "MTK3356:3FTOP5WARGVBIAMYV69AE0Z193WJ0U", "dateTime": 1520449238725}, {"current_trial": 86, "trialdata": {"rt": -1, "trial_type": "single-stim", "stimulus": "<p id=\"stim\">2</p>", "internal_node_id": "0.0-60.0-8.0", "time_elapsed": 380242, "key_press": -1, "trial_index": 86}, "uniqueid": "MTK3356:3FTOP5WARGVBIAMYV69AE0Z193WJ0U", "dateTime": 1520449239725}, {"current_trial": 87, "trialdata": {"rt": -1, "trial_type": "single-stim", "stimulus": "<p id=\"stim\">1</p>", "internal_node_id": "0.0-60.0-9.0", "time_elapsed": 381242, "key_press": -1, "trial_index": 87}, "uniqueid": "MTK3356:3FTOP5WARGVBIAMYV69AE0Z193WJ0U", "dateTime": 1520449240725}, {"current_trial": 88, "trialdata": {"rt": -1, "trial_type": "single-stim", "stimulus": "<p id=\"stim\">+</p>", "internal_node_id": "0.0-61.0-0.0", "time_elapsed": 382743, "key_press": -1, "type": "FIXATION", "trial_index": 88}, "uniqueid": "MTK3356:3FTOP5WARGVBIAMYV69AE0Z193WJ0U", "dateTime": 1520449242226}, {"current_trial": 89, "trialdata": {"rt": -1, "trial_type": "single-stim", "word": "primate", "stimulus": "<p id=\"stim\">PRIMATE</p>", "conditions": [24, 800, "v", 24000], "internal_node_id": "0.0-62.0", "trial": 2, "time_elapsed": 383543, "serialpos": 0, "key_press": -1, "wordID": 1122, "type": "PRES_VIS", "trial_index": 89}, "uniqueid": "MTK3356:3FTOP5WARGVBIAMYV69AE0Z193WJ0U", "dateTime": 1520449243026}, {"current_trial": 90, "trialdata": {"rt": -1, "trial_type": "single-stim", "word": "report", "stimulus": "<p id=\"stim\">REPORT</p>", "conditions": [24, 800, "v", 24000], "internal_node_id": "0.0-63.0", "trial": 2, "time_elapsed": 385473, "serialpos": 1, "key_press": -1, "wordID": 1183, "type": "PRES_VIS", "trial_index": 90}, "uniqueid": "MTK3356:3FTOP5WARGVBIAMYV69AE0Z193WJ0U", "dateTime": 1520449244956}, {"current_trial": 91, "trialdata": {"rt": -1, "trial_type": "single-stim", "word": "sandwich", "stimulus": "<p id=\"stim\">SANDWICH</p>", "conditions": [24, 800, "v", 24000], "internal_node_id": "0.0-64.0", "trial": 2, "time_elapsed": 387141, "serialpos": 2, "key_press": -1, "wordID": 1231, "type": "PRES_VIS", "trial_index": 91}, "uniqueid": "MTK3356:3FTOP5WARGVBIAMYV69AE0Z193WJ0U", "dateTime": 1520449246624}, {"current_trial": 92, "trialdata": {"rt": -1, "trial_type": "single-stim", "word": "cabin", "stimulus": "<p id=\"stim\">CABIN</p>", "conditions": [24, 800, "v", 24000], "internal_node_id": "0.0-65.0", "trial": 2, "time_elapsed": 389064, "serialpos": 3, "key_press": -1, "wordID": 210, "type": "PRES_VIS", "trial_index": 92}, "uniqueid": "MTK3356:3FTOP5WARGVBIAMYV69AE0Z193WJ0U", "dateTime": 1520449248547}, {"current_trial": 93, "trialdata": {"rt": -1, "trial_type": "single-stim", "word": "buggy", "stimulus": "<p id=\"stim\">BUGGY</p>", "conditions": [24, 800, "v", 24000], "internal_node_id": "0.0-66.0", "trial": 2, "time_elapsed": 391024, "serialpos": 4, "key_press": -1, "wordID": 187, "type": "PRES_VIS", "trial_index": 93}, "uniqueid": "MTK3356:3FTOP5WARGVBIAMYV69AE0Z193WJ0U", "dateTime": 1520449250507}, {"current_trial": 94, "trialdata": {"rt": -1, "trial_type": "single-stim", "word": "globe", "stimulus": "<p id=\"stim\">GLOBE</p>", "conditions": [24, 800, "v", 24000], "internal_node_id": "0.0-67.0", "trial": 2, "time_elapsed": 392918, "serialpos": 5, "key_press": -1, "wordID": 640, "type": "PRES_VIS", "trial_index": 94}, "uniqueid": "MTK3356:3FTOP5WARGVBIAMYV69AE0Z193WJ0U", "dateTime": 1520449252401}, {"current_trial": 95, "trialdata": {"rt": -1, "trial_type": "single-stim", "word": "world", "stimulus": "<p id=\"stim\">WORLD</p>", "conditions": [24, 800, "v", 24000], "internal_node_id": "0.0-68.0", "trial": 2, "time_elapsed": 394655, "serialpos": 6, "key_press": -1, "wordID": 1621, "type": "PRES_VIS", "trial_index": 95}, "uniqueid": "MTK3356:3FTOP5WARGVBIAMYV69AE0Z193WJ0U", "dateTime": 1520449254138}, {"current_trial": 96, "trialdata": {"rt": -1, "trial_type": "single-stim", "word": "survey", "stimulus": "<p id=\"stim\">SURVEY</p>", "conditions": [24, 800, "v", 24000], "internal_node_id": "0.0-69.0", "trial": 2, "time_elapsed": 396427, "serialpos": 7, "key_press": -1, "wordID": 1413, "type": "PRES_VIS", "trial_index": 96}, "uniqueid": "MTK3356:3FTOP5WARGVBIAMYV69AE0Z193WJ0U", "dateTime": 1520449255910}, {"current_trial": 97, "trialdata": {"rt": -1, "trial_type": "single-stim", "word": "sheriff", "stimulus": "<p id=\"stim\">SHERIFF</p>", "conditions": [24, 800, "v", 24000], "internal_node_id": "0.0-70.0", "trial": 2, "time_elapsed": 398361, "serialpos": 8, "key_press": -1, "wordID": 1283, "type": "PRES_VIS", "trial_index": 97}, "uniqueid": "MTK3356:3FTOP5WARGVBIAMYV69AE0Z193WJ0U", "dateTime": 1520449257844}, {"current_trial": 98, "trialdata": {"rt": -1, "trial_type": "single-stim", "word": "body", "stimulus": "<p id=\"stim\">BODY</p>", "conditions": [24, 800, "v", 24000], "internal_node_id": "0.0-71.0", "trial": 2, "time_elapsed": 400088, "serialpos": 9, "key_press": -1, "wordID": 144, "type": "PRES_VIS", "trial_index": 98}, "uniqueid": "MTK3356:3FTOP5WARGVBIAMYV69AE0Z193WJ0U", "dateTime": 1520449259571}, {"current_trial": 99, "trialdata": {"rt": -1, "trial_type": "single-stim", "word": "termite", "stimulus": "<p id=\"stim\">TERMITE</p>", "conditions": [24, 800, "v", 24000], "internal_node_id": "0.0-72.0", "trial": 2, "time_elapsed": 401954, "serialpos": 10, "key_press": -1, "wordID": 1450, "type": "PRES_VIS", "trial_index": 99}, "uniqueid": "MTK3356:3FTOP5WARGVBIAMYV69AE0Z193WJ0U", "dateTime": 1520449261437}, {"current_trial": 100, "trialdata": {"rt": -1, "trial_type": "single-stim", "word": "husband", "stimulus": "<p id=\"stim\">HUSBAND</p>", "conditions": [24, 800, "v", 24000], "internal_node_id": "0.0-73.0", "trial": 2, "time_elapsed": 403738, "serialpos": 11, "key_press": -1, "wordID": 727, "type": "PRES_VIS", "trial_index": 100}, "uniqueid": "MTK3356:3FTOP5WARGVBIAMYV69AE0Z193WJ0U", "dateTime": 1520449263221}, {"current_trial": 101, "trialdata": {"rt": -1, "trial_type": "single-stim", "word": "lady", "stimulus": "<p id=\"stim\">LADY</p>", "conditions": [24, 800, "v", 24000], "internal_node_id": "0.0-74.0", "trial": 2, "time_elapsed": 405428, "serialpos": 12, "key_press": -1, "wordID": 793, "type": "PRES_VIS", "trial_index": 101}, "uniqueid": "MTK3356:3FTOP5WARGVBIAMYV69AE0Z193WJ0U", "dateTime": 1520449264911}, {"current_trial": 102, "trialdata": {"rt": -1, "trial_type": "single-stim", "word": "wardrobe", "stimulus": "<p id=\"stim\">WARDROBE</p>", "conditions": [24, 800, "v", 24000], "internal_node_id": "0.0-75.0", "trial": 2, "time_elapsed": 407164, "serialpos": 13, "key_press": -1, "wordID": 1586, "type": "PRES_VIS", "trial_index": 102}, "uniqueid": "MTK3356:3FTOP5WARGVBIAMYV69AE0Z193WJ0U", "dateTime": 1520449266647}, {"current_trial": 103, "trialdata": {"rt": -1, "trial_type": "single-stim", "word": "waiter", "stimulus": "<p id=\"stim\">WAITER</p>", "conditions": [24, 800, "v", 24000], "internal_node_id": "0.0-76.0", "trial": 2, "time_elapsed": 409039, "serialpos": 14, "key_press": -1, "wordID": 1579, "type": "PRES_VIS", "trial_index": 103}, "uniqueid": "MTK3356:3FTOP5WARGVBIAMYV69AE0Z193WJ0U", "dateTime": 1520449268522}, {"current_trial": 104, "trialdata": {"rt": -1, "trial_type": "single-stim", "word": "mailman", "stimulus": "<p id=\"stim\">MAILMAN</p>", "conditions": [24, 800, "v", 24000], "internal_node_id": "0.0-77.0", "trial": 2, "time_elapsed": 411021, "serialpos": 15, "key_press": -1, "wordID": 857, "type": "PRES_VIS", "trial_index": 104}, "uniqueid": "MTK3356:3FTOP5WARGVBIAMYV69AE0Z193WJ0U", "dateTime": 1520449270504}, {"current_trial": 105, "trialdata": {"rt": -1, "trial_type": "single-stim", "word": "crib", "stimulus": "<p id=\"stim\">CRIB</p>", "conditions": [24, 800, "v", 24000], "internal_node_id": "0.0-78.0", "trial": 2, "time_elapsed": 412738, "serialpos": 16, "key_press": -1, "wordID": 406, "type": "PRES_VIS", "trial_index": 105}, "uniqueid": "MTK3356:3FTOP5WARGVBIAMYV69AE0Z193WJ0U", "dateTime": 1520449272221}, {"current_trial": 106, "trialdata": {"rt": -1, "trial_type": "single-stim", "word": "church", "stimulus": "<p id=\"stim\">CHURCH</p>", "conditions": [24, 800, "v", 24000], "internal_node_id": "0.0-79.0", "trial": 2, "time_elapsed": 414640, "serialpos": 17, "key_press": -1, "wordID": 306, "type": "PRES_VIS", "trial_index": 106}, "uniqueid": "MTK3356:3FTOP5WARGVBIAMYV69AE0Z193WJ0U", "dateTime": 1520449274123}, {"current_trial": 107, "trialdata": {"rt": -1, "trial_type": "single-stim", "word": "chapel", "stimulus": "<p id=\"stim\">CHAPEL</p>", "conditions": [24, 800, "v", 24000], "internal_node_id": "0.0-80.0", "trial": 2, "time_elapsed": 416561, "serialpos": 18, "key_press": -1, "wordID": 279, "type": "PRES_VIS", "trial_index": 107}, "uniqueid": "MTK3356:3FTOP5WARGVBIAMYV69AE0Z193WJ0U", "dateTime": 1520449276044}, {"current_trial": 108, "trialdata": {"rt": -1, "trial_type": "single-stim", "word": "blouse", "stimulus": "<p id=\"stim\">BLOUSE</p>", "conditions": [24, 800, "v", 24000], "internal_node_id": "0.0-81.0", "trial": 2, "time_elapsed": 418468, "serialpos": 19, "key_press": -1, "wordID": 138, "type": "PRES_VIS", "trial_index": 108}, "uniqueid": "MTK3356:3FTOP5WARGVBIAMYV69AE0Z193WJ0U", "dateTime": 1520449277951}, {"current_trial": 109, "trialdata": {"rt": -1, "trial_type": "single-stim", "word": "kleenex", "stimulus": "<p id=\"stim\">KLEENEX</p>", "conditions": [24, 800, "v", 24000], "internal_node_id": "0.0-82.0", "trial": 2, "time_elapsed": 420463, "serialpos": 20, "key_press": -1, "wordID": 781, "type": "PRES_VIS", "trial_index": 109}, "uniqueid": "MTK3356:3FTOP5WARGVBIAMYV69AE0Z193WJ0U", "dateTime": 1520449279946}, {"current_trial": 110, "trialdata": {"rt": -1, "trial_type": "single-stim", "word": "package", "stimulus": "<p id=\"stim\">PACKAGE</p>", "conditions": [24, 800, "v", 24000], "internal_node_id": "0.0-83.0", "trial": 2, "time_elapsed": 422191, "serialpos": 21, "key_press": -1, "wordID": 996, "type": "PRES_VIS", "trial_index": 110}, "uniqueid": "MTK3356:3FTOP5WARGVBIAMYV69AE0Z193WJ0U", "dateTime": 1520449281674}, {"current_trial": 111, "trialdata": {"rt": -1, "trial_type": "single-stim", "word": "mattress", "stimulus": "<p id=\"stim\">MATTRESS</p>", "conditions": [24, 800, "v", 24000], "internal_node_id": "0.0-84.0", "trial": 2, "time_elapsed": 424123, "serialpos": 22, "key_press": -1, "wordID": 878, "type": "PRES_VIS", "trial_index": 111}, "uniqueid": "MTK3356:3FTOP5WARGVBIAMYV69AE0Z193WJ0U", "dateTime": 1520449283606}, {"current_trial": 112, "trialdata": {"rt": -1, "trial_type": "single-stim", "word": "glove", "stimulus": "<p id=\"stim\">GLOVE</p>", "conditions": [24, 800, "v", 24000], "internal_node_id": "0.0-85.0", "trial": 2, "time_elapsed": 425839, "serialpos": 23, "key_press": -1, "wordID": 641, "type": "PRES_VIS", "trial_index": 112}, "uniqueid": "MTK3356:3FTOP5WARGVBIAMYV69AE0Z193WJ0U", "dateTime": 1520449285322}, {"current_trial": 113, "trialdata": {"rt": -1, "trial_type": "single-stim", "stimulus": "", "internal_node_id": "0.0-86.0-0.0", "time_elapsed": 428095, "key_press": -1, "type": "PRE_RECALL_DELAY", "trial_index": 113}, "uniqueid": "MTK3356:3FTOP5WARGVBIAMYV69AE0Z193WJ0U", "dateTime": 1520449287578}, {"current_trial": 114, "trialdata": {"rt": -1000, "trial_type": "single-audio", "stimulus": "/static/audio/400Hz.wav", "internal_node_id": "0.0-87.0", "time_elapsed": 428596, "key_press": -1, "type": "PRE_RECALL_ALERT", "trial_index": 114}, "uniqueid": "MTK3356:3FTOP5WARGVBIAMYV69AE0Z193WJ0U", "dateTime": 1520449288079}, {"current_trial": 115, "trialdata": {"rt": [3310, 6566, 8638, 11110, 15134, 19022, 21542, 23685, 27461, 31300, 33037, 38421, 40886, 43237, 46524, 50812], "recwords": ["globe", "cabin", "buggy", "blouse", "church", "survey", "crib", "mailman", "package", "husband", "lady", "waiter", "gloave", "body", "buggy", "church"], "key_times": [2318, 2558, 2766, 2887, 3118, 3310, 5614, 5758, 6022, 6198, 6358, 6566, 7126, 7326, 7558, 7718, 7815, 8638, 9910, 10118, 10326, 10470, 10694, 10838, 11110, 11478, 11646, 11862, 11990, 12326, 12422, 14022, 15134, 15821, 15989, 16069, 16614, 16813, 16965, 19022, 20645, 20910, 21045, 21230, 21542, 22117, 22261, 22365, 22525, 23005, 23093, 23213, 23685, 25333, 25502, 25933, 26102, 26261, 27077, 27301, 27461, 29693, 29893, 30078, 30501, 30661, 30790, 30974, 31300, 32085, 32214, 32445, 32605, 33037, 33413, 33701, 34397, 34589, 35285, 35461, 35814, 36117, 36597, 36757, 36925, 37101, 38421, 39837, 39958, 40157, 40261, 40469, 40629, 40886, 42349, 42501, 42749, 42949, 43237, 45420, 45605, 45940, 46102, 46180, 46524, 49212, 49501, 49804, 50020, 50332, 50452, 50812], "trial_type": "free-recall", "conditions": [24, 800, "v", 24000], "internal_node_id": "0.0-88.0-0.0", "key_presses": [71, 76, 79, 66, 69, 13, 67, 65, 66, 73, 78, 32, 66, 85, 71, 71, 89, 13, 66, 76, 79, 85, 83, 69, 13, 67, 72, 85, 82, 67, 72, 46, 13, 83, 85, 82, 86, 69, 89, 13, 67, 82, 73, 66, 13, 77, 65, 73, 76, 77, 65, 78, 13, 80, 65, 67, 75, 65, 71, 69, 13, 72, 85, 83, 66, 65, 78, 68, 13, 76, 65, 68, 89, 13, 87, 73, 187, 65, 8, 8, 8, 65, 73, 84, 69, 82, 13, 71, 76, 79, 65, 86, 69, 13, 66, 79, 68, 89, 13, 66, 85, 71, 71, 89, 13, 67, 72, 85, 82, 67, 72, 13], "trial": 2, "time_elapsed": 488598, "type": "FREE_RECALL", "trial_index": 115}, "uniqueid": "MTK3356:3FTOP5WARGVBIAMYV69AE0Z193WJ0U", "dateTime": 1520449348084}, {"current_trial": 116, "trialdata": {"rt": 1458, "trial_type": "text", "internal_node_id": "0.0-89.0", "time_elapsed": 492058, "key_press": 32, "type": "INSTRUCTIONS", "trial_index": 116}, "uniqueid": "MTK3356:3FTOP5WARGVBIAMYV69AE0Z193WJ0U", "dateTime": 1520449351541}, {"current_trial": 117, "trialdata": {"rt": [], "trial_type": "math-distractor", "key_times": [], "responses": [], "num2": [8], "num3": [5], "conditions": [24, 800, "v", 12000], "internal_node_id": "0.0-90.0", "key_presses": [], "trial": 3, "time_elapsed": 506893, "type": "DISTRACTOR", "trial_index": 117, "num1": [1]}, "uniqueid": "MTK3356:3FTOP5WARGVBIAMYV69AE0Z193WJ0U", "dateTime": 1520449366378}, {"current_trial": 118, "trialdata": {"rt": -1, "trial_type": "single-stim", "stimulus": "<p id=\"stim\">10</p>", "internal_node_id": "0.0-91.0-0.0", "time_elapsed": 511895, "key_press": -1, "trial_index": 118}, "uniqueid": "MTK3356:3FTOP5WARGVBIAMYV69AE0Z193WJ0U", "dateTime": 1520449371378}, {"current_trial": 119, "trialdata": {"rt": -1, "trial_type": "single-stim", "stimulus": "<p id=\"stim\">9</p>", "internal_node_id": "0.0-91.0-1.0", "time_elapsed": 513894, "key_press": -1, "trial_index": 119}, "uniqueid": "MTK3356:3FTOP5WARGVBIAMYV69AE0Z193WJ0U", "dateTime": 1520449373377}, {"current_trial": 120, "trialdata": {"rt": -1, "trial_type": "single-stim", "stimulus": "<p id=\"stim\">8</p>", "internal_node_id": "0.0-91.0-2.0", "time_elapsed": 515894, "key_press": -1, "trial_index": 120}, "uniqueid": "MTK3356:3FTOP5WARGVBIAMYV69AE0Z193WJ0U", "dateTime": 1520449375377}, {"current_trial": 121, "trialdata": {"rt": -1, "trial_type": "single-stim", "stimulus": "<p id=\"stim\">7</p>", "internal_node_id": "0.0-91.0-3.0", "time_elapsed": 517894, "key_press": -1, "trial_index": 121}, "uniqueid": "MTK3356:3FTOP5WARGVBIAMYV69AE0Z193WJ0U", "dateTime": 1520449377377}, {"current_trial": 122, "trialdata": {"rt": -1, "trial_type": "single-stim", "stimulus": "<p id=\"stim\">6</p>", "internal_node_id": "0.0-91.0-4.0", "time_elapsed": 519894, "key_press": -1, "trial_index": 122}, "uniqueid": "MTK3356:3FTOP5WARGVBIAMYV69AE0Z193WJ0U", "dateTime": 1520449379377}, {"current_trial": 123, "trialdata": {"rt": -1, "trial_type": "single-stim", "stimulus": "<p id=\"stim\">5</p>", "internal_node_id": "0.0-91.0-5.0", "time_elapsed": 521894, "key_press": -1, "trial_index": 123}, "uniqueid": "MTK3356:3FTOP5WARGVBIAMYV69AE0Z193WJ0U", "dateTime": 1520449381377}, {"current_trial": 124, "trialdata": {"rt": -1, "trial_type": "single-stim", "stimulus": "<p id=\"stim\">4</p>", "internal_node_id": "0.0-91.0-6.0", "time_elapsed": 523895, "key_press": -1, "trial_index": 124}, "uniqueid": "MTK3356:3FTOP5WARGVBIAMYV69AE0Z193WJ0U", "dateTime": 1520449383378}, {"current_trial": 125, "trialdata": {"rt": -1, "trial_type": "single-stim", "stimulus": "<p id=\"stim\">3</p>", "internal_node_id": "0.0-91.0-7.0", "time_elapsed": 525894, "key_press": -1, "trial_index": 125}, "uniqueid": "MTK3356:3FTOP5WARGVBIAMYV69AE0Z193WJ0U", "dateTime": 1520449385377}, {"current_trial": 126, "trialdata": {"rt": -1, "trial_type": "single-stim", "stimulus": "<p id=\"stim\">2</p>", "internal_node_id": "0.0-91.0-8.0", "time_elapsed": 527894, "key_press": -1, "trial_index": 126}, "uniqueid": "MTK3356:3FTOP5WARGVBIAMYV69AE0Z193WJ0U", "dateTime": 1520449387377}, {"current_trial": 127, "trialdata": {"rt": -1, "trial_type": "single-stim", "stimulus": "<p id=\"stim\">1</p>", "internal_node_id": "0.0-91.0-9.0", "time_elapsed": 529893, "key_press": -1, "trial_index": 127}, "uniqueid": "MTK3356:3FTOP5WARGVBIAMYV69AE0Z193WJ0U", "dateTime": 1520449389376}, {"current_trial": 128, "trialdata": {"rt": -1, "trial_type": "single-stim", "stimulus": "<p id=\"stim\">+</p>", "internal_node_id": "0.0-92.0-0.0", "time_elapsed": 531895, "key_press": -1, "type": "FIXATION", "trial_index": 128}, "uniqueid": "MTK3356:3FTOP5WARGVBIAMYV69AE0Z193WJ0U", "dateTime": 1520449391378}, {"current_trial": 129, "trialdata": {"rt": -1, "trial_type": "single-stim", "word": "daughter", "stimulus": "<p id=\"stim\">DAUGHTER</p>", "conditions": [24, 800, "v", 12000], "internal_node_id": "0.0-93.0", "trial": 3, "time_elapsed": 532894, "serialpos": 0, "key_press": -1, "wordID": 441, "type": "PRES_VIS", "trial_index": 129}, "uniqueid": "MTK3356:3FTOP5WARGVBIAMYV69AE0Z193WJ0U", "dateTime": 1520449392377}, {"current_trial": 130, "trialdata": {"rt": -1, "trial_type": "single-stim", "word": "champagne", "stimulus": "<p id=\"stim\">CHAMPAGNE</p>", "conditions": [24, 800, "v", 12000], "internal_node_id": "0.0-94.0", "trial": 3, "time_elapsed": 535894, "serialpos": 1, "key_press": -1, "wordID": 277, "type": "PRES_VIS", "trial_index": 130}, "uniqueid": "MTK3356:3FTOP5WARGVBIAMYV69AE0Z193WJ0U", "dateTime": 1520449395377}, {"current_trial": 131, "trialdata": {"rt": -1, "trial_type": "single-stim", "word": "beaker", "stimulus": "<p id=\"stim\">BEAKER</p>", "conditions": [24, 800, "v", 12000], "internal_node_id": "0.0-95.0", "trial": 3, "time_elapsed": 537895, "serialpos": 2, "key_press": -1, "wordID": 103, "type": "PRES_VIS", "trial_index": 131}, "uniqueid": "MTK3356:3FTOP5WARGVBIAMYV69AE0Z193WJ0U", "dateTime": 1520449397378}, {"current_trial": 132, "trialdata": {"rt": -1, "trial_type": "single-stim", "word": "boyfriend", "stimulus": "<p id=\"stim\">BOYFRIEND</p>", "conditions": [24, 800, "v", 12000], "internal_node_id": "0.0-96.0", "trial": 3, "time_elapsed": 539894, "serialpos": 3, "key_press": -1, "wordID": 161, "type": "PRES_VIS", "trial_index": 132}, "uniqueid": "MTK3356:3FTOP5WARGVBIAMYV69AE0Z193WJ0U", "dateTime": 1520449399377}, {"current_trial": 133, "trialdata": {"rt": -1, "trial_type": "single-stim", "word": "lake", "stimulus": "<p id=\"stim\">LAKE</p>", "conditions": [24, 800, "v", 12000], "internal_node_id": "0.0-97.0", "trial": 3, "time_elapsed": 542894, "serialpos": 4, "key_press": -1, "wordID": 795, "type": "PRES_VIS", "trial_index": 133}, "uniqueid": "MTK3356:3FTOP5WARGVBIAMYV69AE0Z193WJ0U", "dateTime": 1520449402377}, {"current_trial": 134, "trialdata": {"rt": -1, "trial_type": "single-stim", "word": "river", "stimulus": "<p id=\"stim\">RIVER</p>", "conditions": [24, 800, "v", 12000], "internal_node_id": "0.0-98.0", "trial": 3, "time_elapsed": 544894, "serialpos": 5, "key_press": -1, "wordID": 1193, "type": "PRES_VIS", "trial_index": 134}, "uniqueid": "MTK3356:3FTOP5WARGVBIAMYV69AE0Z193WJ0U", "dateTime": 1520449404377}, {"current_trial": 135, "trialdata": {"rt": -1, "trial_type": "single-stim", "word": "washer", "stimulus": "<p id=\"stim\">WASHER</p>", "conditions": [24, 800, "v", 12000], "internal_node_id": "0.0-99.0", "trial": 3, "time_elapsed": 546894, "serialpos": 6, "key_press": -1, "wordID": 1591, "type": "PRES_VIS", "trial_index": 135}, "uniqueid": "MTK3356:3FTOP5WARGVBIAMYV69AE0Z193WJ0U", "dateTime": 1520449406379}, {"current_trial": 136, "trialdata": {"rt": -1, "trial_type": "single-stim", "word": "carriage", "stimulus": "<p id=\"stim\">CARRIAGE</p>", "conditions": [24, 800, "v", 12000], "internal_node_id": "0.0-100.0", "trial": 3, "time_elapsed": 548894, "serialpos": 7, "key_press": -1, "wordID": 247, "type": "PRES_VIS", "trial_index": 136}, "uniqueid": "MTK3356:3FTOP5WARGVBIAMYV69AE0Z193WJ0U", "dateTime": 1520449408377}, {"current_trial": 137, "trialdata": {"rt": -1, "trial_type": "single-stim", "word": "teacher", "stimulus": "<p id=\"stim\">TEACHER</p>", "conditions": [24, 800, "v", 12000], "internal_node_id": "0.0-101.0", "trial": 3, "time_elapsed": 550893, "serialpos": 8, "key_press": -1, "wordID": 1439, "type": "PRES_VIS", "trial_index": 137}, "uniqueid": "MTK3356:3FTOP5WARGVBIAMYV69AE0Z193WJ0U", "dateTime": 1520449410376}, {"current_trial": 138, "trialdata": {"rt": -1, "trial_type": "single-stim", "word": "lace", "stimulus": "<p id=\"stim\">LACE</p>", "conditions": [24, 800, "v", 12000], "internal_node_id": "0.0-102.0", "trial": 3, "time_elapsed": 552894, "serialpos": 9, "key_press": -1, "wordID": 791, "type": "PRES_VIS", "trial_index": 138}, "uniqueid": "MTK3356:3FTOP5WARGVBIAMYV69AE0Z193WJ0U", "dateTime": 1520449412377}, {"current_trial": 139, "trialdata": {"rt": -1, "trial_type": "single-stim", "word": "sparrow", "stimulus": "<p id=\"stim\">SPARROW</p>", "conditions": [24, 800, "v", 12000], "internal_node_id": "0.0-103.0", "trial": 3, "time_elapsed": 555894, "serialpos": 10, "key_press": -1, "wordID": 1346, "type": "PRES_VIS", "trial_index": 139}, "uniqueid": "MTK3356:3FTOP5WARGVBIAMYV69AE0Z193WJ0U", "dateTime": 1520449415377}, {"current_trial": 140, "trialdata": {"rt": -1, "trial_type": "single-stim", "word": "paddle", "stimulus": "<p id=\"stim\">PADDLE</p>", "conditions": [24, 800, "v", 12000], "internal_node_id": "0.0-104.0", "trial": 3, "time_elapsed": 558894, "serialpos": 11, "key_press": -1, "wordID": 999, "type": "PRES_VIS", "trial_index": 140}, "uniqueid": "MTK3356:3FTOP5WARGVBIAMYV69AE0Z193WJ0U", "dateTime": 1520449418377}, {"current_trial": 141, "trialdata": {"rt": -1, "trial_type": "single-stim", "word": "county", "stimulus": "<p id=\"stim\">COUNTY</p>", "conditions": [24, 800, "v", 12000], "internal_node_id": "0.0-105.0", "trial": 3, "time_elapsed": 560894, "serialpos": 12, "key_press": -1, "wordID": 388, "type": "PRES_VIS", "trial_index": 141}, "uniqueid": "MTK3356:3FTOP5WARGVBIAMYV69AE0Z193WJ0U", "dateTime": 1520449420377}, {"current_trial": 142, "trialdata": {"rt": -1, "trial_type": "single-stim", "word": "witness", "stimulus": "<p id=\"stim\">WITNESS</p>", "conditions": [24, 800, "v", 12000], "internal_node_id": "0.0-106.0", "trial": 3, "time_elapsed": 562894, "serialpos": 13, "key_press": -1, "wordID": 1617, "type": "PRES_VIS", "trial_index": 142}, "uniqueid": "MTK3356:3FTOP5WARGVBIAMYV69AE0Z193WJ0U", "dateTime": 1520449422377}, {"current_trial": 143, "trialdata": {"rt": -1, "trial_type": "single-stim", "word": "citrus", "stimulus": "<p id=\"stim\">CITRUS</p>", "conditions": [24, 800, "v", 12000], "internal_node_id": "0.0-107.0", "trial": 3, "time_elapsed": 565893, "serialpos": 14, "key_press": -1, "wordID": 312, "type": "PRES_VIS", "trial_index": 143}, "uniqueid": "MTK3356:3FTOP5WARGVBIAMYV69AE0Z193WJ0U", "dateTime": 1520449425376}, {"current_trial": 144, "trialdata": {"rt": -1, "trial_type": "single-stim", "word": "wasp", "stimulus": "<p id=\"stim\">WASP</p>", "conditions": [24, 800, "v", 12000], "internal_node_id": "0.0-108.0", "trial": 3, "time_elapsed": 568894, "serialpos": 15, "key_press": -1, "wordID": 1592, "type": "PRES_VIS", "trial_index": 144}, "uniqueid": "MTK3356:3FTOP5WARGVBIAMYV69AE0Z193WJ0U", "dateTime": 1520449428377}, {"current_trial": 145, "trialdata": {"rt": -1, "trial_type": "single-stim", "word": "crayon", "stimulus": "<p id=\"stim\">CRAYON</p>", "conditions": [24, 800, "v", 12000], "internal_node_id": "0.0-109.0", "trial": 3, "time_elapsed": 571895, "serialpos": 16, "key_press": -1, "wordID": 400, "type": "PRES_VIS", "trial_index": 145}, "uniqueid": "MTK3356:3FTOP5WARGVBIAMYV69AE0Z193WJ0U", "dateTime": 1520449431378}, {"current_trial": 146, "trialdata": {"rt": -1, "trial_type": "single-stim", "word": "dime", "stimulus": "<p id=\"stim\">DIME</p>", "conditions": [24, 800, "v", 12000], "internal_node_id": "0.0-110.0", "trial": 3, "time_elapsed": 574894, "serialpos": 17, "key_press": -1, "wordID": 465, "type": "PRES_VIS", "trial_index": 146}, "uniqueid": "MTK3356:3FTOP5WARGVBIAMYV69AE0Z193WJ0U", "dateTime": 1520449434377}, {"current_trial": 147, "trialdata": {"rt": -1, "trial_type": "single-stim", "word": "item", "stimulus": "<p id=\"stim\">ITEM</p>", "conditions": [24, 800, "v", 12000], "internal_node_id": "0.0-111.0", "trial": 3, "time_elapsed": 577894, "serialpos": 18, "key_press": -1, "wordID": 745, "type": "PRES_VIS", "trial_index": 147}, "uniqueid": "MTK3356:3FTOP5WARGVBIAMYV69AE0Z193WJ0U", "dateTime": 1520449437377}, {"current_trial": 148, "trialdata": {"rt": -1, "trial_type": "single-stim", "word": "slime", "stimulus": "<p id=\"stim\">SLIME</p>", "conditions": [24, 800, "v", 12000], "internal_node_id": "0.0-112.0", "trial": 3, "time_elapsed": 579894, "serialpos": 19, "key_press": -1, "wordID": 1326, "type": "PRES_VIS", "trial_index": 148}, "uniqueid": "MTK3356:3FTOP5WARGVBIAMYV69AE0Z193WJ0U", "dateTime": 1520449439377}, {"current_trial": 149, "trialdata": {"rt": -1, "trial_type": "single-stim", "word": "drawing", "stimulus": "<p id=\"stim\">DRAWING</p>", "conditions": [24, 800, "v", 12000], "internal_node_id": "0.0-113.0", "trial": 3, "time_elapsed": 581894, "serialpos": 20, "key_press": -1, "wordID": 493, "type": "PRES_VIS", "trial_index": 149}, "uniqueid": "MTK3356:3FTOP5WARGVBIAMYV69AE0Z193WJ0U", "dateTime": 1520449441377}, {"current_trial": 150, "trialdata": {"rt": -1, "trial_type": "single-stim", "word": "snack", "stimulus": "<p id=\"stim\">SNACK</p>", "conditions": [24, 800, "v", 12000], "internal_node_id": "0.0-114.0", "trial": 3, "time_elapsed": 583894, "serialpos": 21, "key_press": -1, "wordID": 1330, "type": "PRES_VIS", "trial_index": 150}, "uniqueid": "MTK3356:3FTOP5WARGVBIAMYV69AE0Z193WJ0U", "dateTime": 1520449443377}, {"current_trial": 151, "trialdata": {"rt": -1, "trial_type": "single-stim", "word": "muffin", "stimulus": "<p id=\"stim\">MUFFIN</p>", "conditions": [24, 800, "v", 12000], "internal_node_id": "0.0-115.0", "trial": 3, "time_elapsed": 586894, "serialpos": 22, "key_press": -1, "wordID": 928, "type": "PRES_VIS", "trial_index": 151}, "uniqueid": "MTK3356:3FTOP5WARGVBIAMYV69AE0Z193WJ0U", "dateTime": 1520449446377}, {"current_trial": 152, "trialdata": {"rt": -1, "trial_type": "single-stim", "word": "hornet", "stimulus": "<p id=\"stim\">HORNET</p>", "conditions": [24, 800, "v", 12000], "internal_node_id": "0.0-116.0", "trial": 3, "time_elapsed": 588894, "serialpos": 23, "key_press": -1, "wordID": 717, "type": "PRES_VIS", "trial_index": 152}, "uniqueid": "MTK3356:3FTOP5WARGVBIAMYV69AE0Z193WJ0U", "dateTime": 1520449448377}, {"current_trial": 153, "trialdata": {"rt": -1, "trial_type": "single-stim", "stimulus": "", "internal_node_id": "0.0-117.0-0.0", "time_elapsed": 591894, "key_press": -1, "type": "PRE_RECALL_DELAY", "trial_index": 153}, "uniqueid": "MTK3356:3FTOP5WARGVBIAMYV69AE0Z193WJ0U", "dateTime": 1520449451377}, {"current_trial": 154, "trialdata": {"rt": -1000, "trial_type": "single-audio", "stimulus": "/static/audio/400Hz.wav", "internal_node_id": "0.0-118.0", "time_elapsed": 592394, "key_press": -1, "type": "PRE_RECALL_ALERT", "trial_index": 154}, "uniqueid": "MTK3356:3FTOP5WARGVBIAMYV69AE0Z193WJ0U", "dateTime": 1520449451878}], "currenttrial": 155, "condition": 0, "mode": "live"}