{"assignmentId": "3H8DHMCCWAI0SETAP3XHUMJXIHAKDS", "workerId": "MTK3365", "questiondata": {"avail_screen_height": 860, "color_depth": 24, "screen_width": 1600, "pixel_depth": 24, "avail_screen_width": 1600, "screen_height": 900}, "bonus": 0, "hitId": "3OYHVNTV5T5P9RM5PA6VGWZC1SLKOR", "counterbalance": 1475, "useragent": "Mozilla/5.0 (Windows NT 10.0; Win64; x64) AppleWebKit/537.36 (KHTML, like Gecko) Chrome/58.0.3029.110 Safari/537.36 Edge/16.16299", "eventdata": [{"eventtype": "initialized", "interval": 0, "value": null, "timestamp": 1520449668101}, {"eventtype": "window_resize", "interval": 1, "value": [1600, 783], "timestamp": 1520449668102}, {"eventtype": "focus", "interval": 349, "value": "on", "timestamp": 1520449668451}, {"eventtype": "focus", "interval": 178438, "value": "off", "timestamp": 1520449846889}, {"eventtype": "focus", "interval": 6975, "value": "on", "timestamp": 1520449853864}, {"eventtype": "focus", "interval": 15187, "value": "off", "timestamp": 1520449869051}, {"eventtype": "focus", "interval": 7490, "value": "on", "timestamp": 1520449876541}], "data": [{"current_trial": 0, "trialdata": {"rt": 13829, "trial_type": "text", "internal_node_id": "0.0-0.0", "time_elapsed": 13833, "key_press": 16, "type": "INSTRUCTIONS", "trial_index": 0}, "uniqueid": "MTK3365:3H8DHMCCWAI0SETAP3XHUMJXIHAKDS", "dateTime": 1520449682788}, {"current_trial": 1, "trialdata": {"rt": 39523, "trial_type": "text", "internal_node_id": "0.0-1.0", "time_elapsed": 53360, "key_press": 13, "type": "INSTRUCTIONS", "trial_index": 1}, "uniqueid": "MTK3365:3H8DHMCCWAI0SETAP3XHUMJXIHAKDS", "dateTime": 1520449722314}, {"current_trial": 2, "trialdata": {"rt": [124483, 146670, 488024], "trial_type": "audio-test", "responses": ["ocion", "osion", "ocean"], "internal_node_id": "0.0-2.0", "time_elapsed": 541439, "type": "AUDIO_TEST", "trial_index": 2}, "uniqueid": "MTK3365:3H8DHMCCWAI0SETAP3XHUMJXIHAKDS", "dateTime": 1520450210393}, {"current_trial": 3, "trialdata": {"rt": [16530], "trial_type": "audio-test", "responses": ["crystal"], "internal_node_id": "0.0-3.0", "time_elapsed": 557983, "type": "AUDIO_TEST", "trial_index": 3}, "uniqueid": "MTK3365:3H8DHMCCWAI0SETAP3XHUMJXIHAKDS", "dateTime": 1520450226938}, {"current_trial": 4, "trialdata": {"rt": [22196], "trial_type": "audio-test", "responses": ["spice"], "internal_node_id": "0.0-4.0", "time_elapsed": 580211, "type": "AUDIO_TEST", "trial_index": 4}, "uniqueid": "MTK3365:3H8DHMCCWAI0SETAP3XHUMJXIHAKDS", "dateTime": 1520450249165}, {"current_trial": 5, "trialdata": {"rt": 79818, "trial_type": "survey-text", "responses": "{\"Q0\":\"11 pm\",\"Q1\":\"6am\",\"Q2\":\"6\"}", "internal_node_id": "0.0-5.0", "time_elapsed": 660795, "type": "SLEEP_SURVEY", "trial_index": 5}, "uniqueid": "MTK3365:3H8DHMCCWAI0SETAP3XHUMJXIHAKDS", "dateTime": 1520450329749}, {"current_trial": 6, "trialdata": {"rt": 228493, "trial_type": "text", "internal_node_id": "0.0-6.0", "time_elapsed": 890304, "key_press": 32, "type": "INSTRUCTIONS", "trial_index": 6}, "uniqueid": "MTK3365:3H8DHMCCWAI0SETAP3XHUMJXIHAKDS", "dateTime": 1520450559258}, {"current_trial": 7, "trialdata": {"rt": 42522, "trial_type": "text", "internal_node_id": "0.0-7.0", "time_elapsed": 933338, "key_press": 32, "type": "INSTRUCTIONS", "trial_index": 7}, "uniqueid": "MTK3365:3H8DHMCCWAI0SETAP3XHUMJXIHAKDS", "dateTime": 1520450602292}, {"current_trial": 8, "trialdata": {"rt": 19415, "trial_type": "text", "internal_node_id": "0.0-8.0", "time_elapsed": 953259, "key_press": 32, "type": "INSTRUCTIONS", "trial_index": 8}, "uniqueid": "MTK3365:3H8DHMCCWAI0SETAP3XHUMJXIHAKDS", "dateTime": 1520450622213}, {"current_trial": 9, "trialdata": {"rt": [15799], "trial_type": "math-distractor", "key_times": [12401, 13085, 15799], "responses": ["13"], "num2": [2, 6], "num3": [9, 6], "conditions": [18, 1200, "v", 18000], "internal_node_id": "0.0-9.0", "key_presses": [49, 51, 13], "trial": 0, "time_elapsed": 972282, "type": "DISTRACTOR", "trial_index": 9, "num1": [2, 3]}, "uniqueid": "MTK3365:3H8DHMCCWAI0SETAP3XHUMJXIHAKDS", "dateTime": 1520450641237}, {"current_trial": 10, "trialdata": {"rt": -1, "trial_type": "single-stim", "stimulus": "<p id=\"stim\">10</p>", "internal_node_id": "0.0-10.0-0.0", "time_elapsed": 975304, "key_press": -1, "trial_index": 10}, "uniqueid": "MTK3365:3H8DHMCCWAI0SETAP3XHUMJXIHAKDS", "dateTime": 1520450644259}, {"current_trial": 11, "trialdata": {"rt": -1, "trial_type": "single-stim", "stimulus": "<p id=\"stim\">9</p>", "internal_node_id": "0.0-10.0-1.0", "time_elapsed": 976306, "key_press": -1, "trial_index": 11}, "uniqueid": "MTK3365:3H8DHMCCWAI0SETAP3XHUMJXIHAKDS", "dateTime": 1520450645260}, {"current_trial": 12, "trialdata": {"rt": -1, "trial_type": "single-stim", "stimulus": "<p id=\"stim\">8</p>", "internal_node_id": "0.0-10.0-2.0", "time_elapsed": 977313, "key_press": -1, "trial_index": 12}, "uniqueid": "MTK3365:3H8DHMCCWAI0SETAP3XHUMJXIHAKDS", "dateTime": 1520450646267}, {"current_trial": 13, "trialdata": {"rt": -1, "trial_type": "single-stim", "stimulus": "<p id=\"stim\">7</p>", "internal_node_id": "0.0-10.0-3.0", "time_elapsed": 978303, "key_press": -1, "trial_index": 13}, "uniqueid": "MTK3365:3H8DHMCCWAI0SETAP3XHUMJXIHAKDS", "dateTime": 1520450647257}, {"current_trial": 14, "trialdata": {"rt": -1, "trial_type": "single-stim", "stimulus": "<p id=\"stim\">6</p>", "internal_node_id": "0.0-10.0-4.0", "time_elapsed": 979302, "key_press": -1, "trial_index": 14}, "uniqueid": "MTK3365:3H8DHMCCWAI0SETAP3XHUMJXIHAKDS", "dateTime": 1520450648256}, {"current_trial": 15, "trialdata": {"rt": -1, "trial_type": "single-stim", "stimulus": "<p id=\"stim\">5</p>", "internal_node_id": "0.0-10.0-5.0", "time_elapsed": 980302, "key_press": -1, "trial_index": 15}, "uniqueid": "MTK3365:3H8DHMCCWAI0SETAP3XHUMJXIHAKDS", "dateTime": 1520450649256}, {"current_trial": 16, "trialdata": {"rt": -1, "trial_type": "single-stim", "stimulus": "<p id=\"stim\">4</p>", "internal_node_id": "0.0-10.0-6.0", "time_elapsed": 981315, "key_press": -1, "trial_index": 16}, "uniqueid": "MTK3365:3H8DHMCCWAI0SETAP3XHUMJXIHAKDS", "dateTime": 1520450650270}, {"current_trial": 17, "trialdata": {"rt": -1, "trial_type": "single-stim", "stimulus": "<p id=\"stim\">3</p>", "internal_node_id": "0.0-10.0-7.0", "time_elapsed": 982330, "key_press": -1, "trial_index": 17}, "uniqueid": "MTK3365:3H8DHMCCWAI0SETAP3XHUMJXIHAKDS", "dateTime": 1520450651284}, {"current_trial": 18, "trialdata": {"rt": -1, "trial_type": "single-stim", "stimulus": "<p id=\"stim\">2</p>", "internal_node_id": "0.0-10.0-8.0", "time_elapsed": 983314, "key_press": -1, "trial_index": 18}, "uniqueid": "MTK3365:3H8DHMCCWAI0SETAP3XHUMJXIHAKDS", "dateTime": 1520450652268}, {"current_trial": 19, "trialdata": {"rt": -1, "trial_type": "single-stim", "stimulus": "<p id=\"stim\">1</p>", "internal_node_id": "0.0-10.0-9.0", "time_elapsed": 984304, "key_press": -1, "trial_index": 19}, "uniqueid": "MTK3365:3H8DHMCCWAI0SETAP3XHUMJXIHAKDS", "dateTime": 1520450653258}, {"current_trial": 20, "trialdata": {"rt": -1, "trial_type": "single-stim", "stimulus": "<p id=\"stim\">+</p>", "internal_node_id": "0.0-11.0-0.0", "time_elapsed": 985807, "key_press": -1, "type": "FIXATION", "trial_index": 20}, "uniqueid": "MTK3365:3H8DHMCCWAI0SETAP3XHUMJXIHAKDS", "dateTime": 1520450654761}, {"current_trial": 21, "trialdata": {"rt": -1, "trial_type": "single-stim", "word": "sister", "stimulus": "<p id=\"stim\">SISTER</p>", "conditions": [18, 1200, "v", 18000], "internal_node_id": "0.0-12.0", "trial": 0, "time_elapsed": 987019, "serialpos": 0, "key_press": -1, "wordID": 1311, "type": "PRES_VIS", "trial_index": 21}, "uniqueid": "MTK3365:3H8DHMCCWAI0SETAP3XHUMJXIHAKDS", "dateTime": 1520450655973}, {"current_trial": 22, "trialdata": {"rt": -1, "trial_type": "single-stim", "word": "cottage", "stimulus": "<p id=\"stim\">COTTAGE</p>", "conditions": [18, 1200, "v", 18000], "internal_node_id": "0.0-13.0", "trial": 0, "time_elapsed": 989350, "serialpos": 1, "key_press": -1, "wordID": 383, "type": "PRES_VIS", "trial_index": 22}, "uniqueid": "MTK3365:3H8DHMCCWAI0SETAP3XHUMJXIHAKDS", "dateTime": 1520450658304}, {"current_trial": 23, "trialdata": {"rt": -1, "trial_type": "single-stim", "word": "iceberg", "stimulus": "<p id=\"stim\">ICEBERG</p>", "conditions": [18, 1200, "v", 18000], "internal_node_id": "0.0-14.0", "trial": 0, "time_elapsed": 991769, "serialpos": 2, "key_press": -1, "wordID": 730, "type": "PRES_VIS", "trial_index": 23}, "uniqueid": "MTK3365:3H8DHMCCWAI0SETAP3XHUMJXIHAKDS", "dateTime": 1520450660723}, {"current_trial": 24, "trialdata": {"rt": -1, "trial_type": "single-stim", "word": "shorts", "stimulus": "<p id=\"stim\">SHORTS</p>", "conditions": [18, 1200, "v", 18000], "internal_node_id": "0.0-15.0", "trial": 0, "time_elapsed": 994070, "serialpos": 3, "key_press": -1, "wordID": 1292, "type": "PRES_VIS", "trial_index": 24}, "uniqueid": "MTK3365:3H8DHMCCWAI0SETAP3XHUMJXIHAKDS", "dateTime": 1520450663024}, {"current_trial": 25, "trialdata": {"rt": -1, "trial_type": "single-stim", "word": "supper", "stimulus": "<p id=\"stim\">SUPPER</p>", "conditions": [18, 1200, "v", 18000], "internal_node_id": "0.0-16.0", "trial": 0, "time_elapsed": 996365, "serialpos": 4, "key_press": -1, "wordID": 1410, "type": "PRES_VIS", "trial_index": 25}, "uniqueid": "MTK3365:3H8DHMCCWAI0SETAP3XHUMJXIHAKDS", "dateTime": 1520450665320}, {"current_trial": 26, "trialdata": {"rt": -1, "trial_type": "single-stim", "word": "patient", "stimulus": "<p id=\"stim\">PATIENT</p>", "conditions": [18, 1200, "v", 18000], "internal_node_id": "0.0-17.0", "trial": 0, "time_elapsed": 998720, "serialpos": 5, "key_press": -1, "wordID": 1023, "type": "PRES_VIS", "trial_index": 26}, "uniqueid": "MTK3365:3H8DHMCCWAI0SETAP3XHUMJXIHAKDS", "dateTime": 1520450667674}, {"current_trial": 27, "trialdata": {"rt": -1, "trial_type": "single-stim", "word": "flute", "stimulus": "<p id=\"stim\">FLUTE</p>", "conditions": [18, 1200, "v", 18000], "internal_node_id": "0.0-18.0", "trial": 0, "time_elapsed": 1000758, "serialpos": 6, "key_press": -1, "wordID": 584, "type": "PRES_VIS", "trial_index": 27}, "uniqueid": "MTK3365:3H8DHMCCWAI0SETAP3XHUMJXIHAKDS", "dateTime": 1520450669713}, {"current_trial": 28, "trialdata": {"rt": -1, "trial_type": "single-stim", "word": "canyon", "stimulus": "<p id=\"stim\">CANYON</p>", "conditions": [18, 1200, "v", 18000], "internal_node_id": "0.0-19.0", "trial": 0, "time_elapsed": 1002810, "serialpos": 7, "key_press": -1, "wordID": 234, "type": "PRES_VIS", "trial_index": 28}, "uniqueid": "MTK3365:3H8DHMCCWAI0SETAP3XHUMJXIHAKDS", "dateTime": 1520450671764}, {"current_trial": 29, "trialdata": {"rt": -1, "trial_type": "single-stim", "word": "oyster", "stimulus": "<p id=\"stim\">OYSTER</p>", "conditions": [18, 1200, "v", 18000], "internal_node_id": "0.0-20.0", "trial": 0, "time_elapsed": 1005217, "serialpos": 8, "key_press": -1, "wordID": 994, "type": "PRES_VIS", "trial_index": 29}, "uniqueid": "MTK3365:3H8DHMCCWAI0SETAP3XHUMJXIHAKDS", "dateTime": 1520450674172}, {"current_trial": 30, "trialdata": {"rt": -1, "trial_type": "single-stim", "word": "glove", "stimulus": "<p id=\"stim\">GLOVE</p>", "conditions": [18, 1200, "v", 18000], "internal_node_id": "0.0-21.0", "trial": 0, "time_elapsed": 1007359, "serialpos": 9, "key_press": -1, "wordID": 641, "type": "PRES_VIS", "trial_index": 30}, "uniqueid": "MTK3365:3H8DHMCCWAI0SETAP3XHUMJXIHAKDS", "dateTime": 1520450676313}, {"current_trial": 31, "trialdata": {"rt": -1, "trial_type": "single-stim", "word": "jury", "stimulus": "<p id=\"stim\">JURY</p>", "conditions": [18, 1200, "v", 18000], "internal_node_id": "0.0-22.0", "trial": 0, "time_elapsed": 1009559, "serialpos": 10, "key_press": -1, "wordID": 765, "type": "PRES_VIS", "trial_index": 31}, "uniqueid": "MTK3365:3H8DHMCCWAI0SETAP3XHUMJXIHAKDS", "dateTime": 1520450678514}, {"current_trial": 32, "trialdata": {"rt": -1, "trial_type": "single-stim", "word": "forest", "stimulus": "<p id=\"stim\">FOREST</p>", "conditions": [18, 1200, "v", 18000], "internal_node_id": "0.0-23.0", "trial": 0, "time_elapsed": 1011773, "serialpos": 11, "key_press": -1, "wordID": 592, "type": "PRES_VIS", "trial_index": 32}, "uniqueid": "MTK3365:3H8DHMCCWAI0SETAP3XHUMJXIHAKDS", "dateTime": 1520450680727}, {"current_trial": 33, "trialdata": {"rt": -1, "trial_type": "single-stim", "word": "worker", "stimulus": "<p id=\"stim\">WORKER</p>", "conditions": [18, 1200, "v", 18000], "internal_node_id": "0.0-24.0", "trial": 0, "time_elapsed": 1014085, "serialpos": 12, "key_press": -1, "wordID": 1620, "type": "PRES_VIS", "trial_index": 33}, "uniqueid": "MTK3365:3H8DHMCCWAI0SETAP3XHUMJXIHAKDS", "dateTime": 1520450683039}, {"current_trial": 34, "trialdata": {"rt": -1, "trial_type": "single-stim", "word": "crayon", "stimulus": "<p id=\"stim\">CRAYON</p>", "conditions": [18, 1200, "v", 18000], "internal_node_id": "0.0-25.0", "trial": 0, "time_elapsed": 1016179, "serialpos": 13, "key_press": -1, "wordID": 400, "type": "PRES_VIS", "trial_index": 34}, "uniqueid": "MTK3365:3H8DHMCCWAI0SETAP3XHUMJXIHAKDS", "dateTime": 1520450685134}, {"current_trial": 35, "trialdata": {"rt": -1, "trial_type": "single-stim", "word": "spoon", "stimulus": "<p id=\"stim\">SPOON</p>", "conditions": [18, 1200, "v", 18000], "internal_node_id": "0.0-26.0", "trial": 0, "time_elapsed": 1018195, "serialpos": 14, "key_press": -1, "wordID": 1356, "type": "PRES_VIS", "trial_index": 35}, "uniqueid": "MTK3365:3H8DHMCCWAI0SETAP3XHUMJXIHAKDS", "dateTime": 1520450687149}, {"current_trial": 36, "trialdata": {"rt": -1, "trial_type": "single-stim", "word": "eagle", "stimulus": "<p id=\"stim\">EAGLE</p>", "conditions": [18, 1200, "v", 18000], "internal_node_id": "0.0-27.0", "trial": 0, "time_elapsed": 1020319, "serialpos": 15, "key_press": -1, "wordID": 511, "type": "PRES_VIS", "trial_index": 36}, "uniqueid": "MTK3365:3H8DHMCCWAI0SETAP3XHUMJXIHAKDS", "dateTime": 1520450689274}, {"current_trial": 37, "trialdata": {"rt": -1, "trial_type": "single-stim", "word": "scallop", "stimulus": "<p id=\"stim\">SCALLOP</p>", "conditions": [18, 1200, "v", 18000], "internal_node_id": "0.0-28.0", "trial": 0, "time_elapsed": 1022449, "serialpos": 16, "key_press": -1, "wordID": 1241, "type": "PRES_VIS", "trial_index": 37}, "uniqueid": "MTK3365:3H8DHMCCWAI0SETAP3XHUMJXIHAKDS", "dateTime": 1520450691403}, {"current_trial": 38, "trialdata": {"rt": -1, "trial_type": "single-stim", "word": "finger", "stimulus": "<p id=\"stim\">FINGER</p>", "conditions": [18, 1200, "v", 18000], "internal_node_id": "0.0-29.0", "trial": 0, "time_elapsed": 1024793, "serialpos": 17, "key_press": -1, "wordID": 566, "type": "PRES_VIS", "trial_index": 38}, "uniqueid": "MTK3365:3H8DHMCCWAI0SETAP3XHUMJXIHAKDS", "dateTime": 1520450693747}, {"current_trial": 39, "trialdata": {"rt": -1, "trial_type": "single-stim", "stimulus": "", "internal_node_id": "0.0-30.0-0.0", "time_elapsed": 1026949, "key_press": -1, "type": "PRE_RECALL_DELAY", "trial_index": 39}, "uniqueid": "MTK3365:3H8DHMCCWAI0SETAP3XHUMJXIHAKDS", "dateTime": 1520450695903}, {"current_trial": 40, "trialdata": {"rt": -1000, "trial_type": "single-audio", "stimulus": "/static/audio/400Hz.wav", "internal_node_id": "0.0-31.0", "time_elapsed": 1027572, "key_press": -1, "type": "PRE_RECALL_ALERT", "trial_index": 40}, "uniqueid": "MTK3365:3H8DHMCCWAI0SETAP3XHUMJXIHAKDS", "dateTime": 1520450696526}, {"current_trial": 41, "trialdata": {"rt": [6897, 13154, 20554, 22995, 31826, 32674, 40505, 47025], "recwords": ["finger", "scalop", "worker", "", "worker", "", "shelf", "spoon"], "key_times": [3291, 4224, 4744, 5344, 6145, 6536, 6897, 7489, 8064, 8696, 9666, 10025, 10297, 13154, 16083, 17090, 17673, 18515, 19657, 20025, 20554, 22995, 26500, 28002, 28588, 29745, 30417, 30987, 31826, 32674, 34356, 35457, 36082, 36659, 38754, 40505, 43723, 44490, 44818, 45867, 46411, 47025], "trial_type": "free-recall", "conditions": [18, 1200, "v", 18000], "internal_node_id": "0.0-32.0-0.0", "key_presses": [70, 73, 78, 71, 69, 82, 32, 83, 67, 65, 76, 79, 80, 13, 87, 79, 82, 75, 69, 82, 32, 13, 87, 79, 82, 75, 69, 82, 13, 32, 83, 72, 69, 76, 70, 13, 83, 80, 79, 79, 78, 13], "trial": 0, "time_elapsed": 1087591, "type": "FREE_RECALL", "trial_index": 41}, "uniqueid": "MTK3365:3H8DHMCCWAI0SETAP3XHUMJXIHAKDS", "dateTime": 1520450756551}, {"current_trial": 42, "trialdata": {"rt": 535, "trial_type": "text", "internal_node_id": "0.0-33.0", "time_elapsed": 1090150, "key_press": 79, "type": "INSTRUCTIONS", "trial_index": 42}, "uniqueid": "MTK3365:3H8DHMCCWAI0SETAP3XHUMJXIHAKDS", "dateTime": 1520450759104}, {"current_trial": 43, "trialdata": {"rt": [860, 13188], "trial_type": "math-distractor", "key_times": [860, 11164, 11379, 13188], "responses": ["", "22"], "num2": [4, 8, 8], "num3": [4, 9, 6], "conditions": [18, 1200, "v", 18000], "internal_node_id": "0.0-34.0", "key_presses": [13, 50, 50, 13], "trial": 1, "time_elapsed": 1110190, "type": "DISTRACTOR", "trial_index": 43, "num1": [2, 5, 8]}, "uniqueid": "MTK3365:3H8DHMCCWAI0SETAP3XHUMJXIHAKDS", "dateTime": 1520450779144}, {"current_trial": 44, "trialdata": {"rt": -1, "trial_type": "single-stim", "stimulus": "<p id=\"stim\">10</p>", "internal_node_id": "0.0-35.0-0.0", "time_elapsed": 1113222, "key_press": -1, "trial_index": 44}, "uniqueid": "MTK3365:3H8DHMCCWAI0SETAP3XHUMJXIHAKDS", "dateTime": 1520450782176}, {"current_trial": 45, "trialdata": {"rt": -1, "trial_type": "single-stim", "stimulus": "<p id=\"stim\">9</p>", "internal_node_id": "0.0-35.0-1.0", "time_elapsed": 1114212, "key_press": -1, "trial_index": 45}, "uniqueid": "MTK3365:3H8DHMCCWAI0SETAP3XHUMJXIHAKDS", "dateTime": 1520450783167}, {"current_trial": 46, "trialdata": {"rt": -1, "trial_type": "single-stim", "stimulus": "<p id=\"stim\">8</p>", "internal_node_id": "0.0-35.0-2.0", "time_elapsed": 1115217, "key_press": -1, "trial_index": 46}, "uniqueid": "MTK3365:3H8DHMCCWAI0SETAP3XHUMJXIHAKDS", "dateTime": 1520450784171}, {"current_trial": 47, "trialdata": {"rt": -1, "trial_type": "single-stim", "stimulus": "<p id=\"stim\">7</p>", "internal_node_id": "0.0-35.0-3.0", "time_elapsed": 1116231, "key_press": -1, "trial_index": 47}, "uniqueid": "MTK3365:3H8DHMCCWAI0SETAP3XHUMJXIHAKDS", "dateTime": 1520450785186}, {"current_trial": 48, "trialdata": {"rt": -1, "trial_type": "single-stim", "stimulus": "<p id=\"stim\">6</p>", "internal_node_id": "0.0-35.0-4.0", "time_elapsed": 1117228, "key_press": -1, "trial_index": 48}, "uniqueid": "MTK3365:3H8DHMCCWAI0SETAP3XHUMJXIHAKDS", "dateTime": 1520450786183}, {"current_trial": 49, "trialdata": {"rt": -1, "trial_type": "single-stim", "stimulus": "<p id=\"stim\">5</p>", "internal_node_id": "0.0-35.0-5.0", "time_elapsed": 1118221, "key_press": -1, "trial_index": 49}, "uniqueid": "MTK3365:3H8DHMCCWAI0SETAP3XHUMJXIHAKDS", "dateTime": 1520450787176}, {"current_trial": 50, "trialdata": {"rt": -1, "trial_type": "single-stim", "stimulus": "<p id=\"stim\">4</p>", "internal_node_id": "0.0-35.0-6.0", "time_elapsed": 1119205, "key_press": -1, "trial_index": 50}, "uniqueid": "MTK3365:3H8DHMCCWAI0SETAP3XHUMJXIHAKDS", "dateTime": 1520450788160}, {"current_trial": 51, "trialdata": {"rt": -1, "trial_type": "single-stim", "stimulus": "<p id=\"stim\">3</p>", "internal_node_id": "0.0-35.0-7.0", "time_elapsed": 1120212, "key_press": -1, "trial_index": 51}, "uniqueid": "MTK3365:3H8DHMCCWAI0SETAP3XHUMJXIHAKDS", "dateTime": 1520450789166}, {"current_trial": 52, "trialdata": {"rt": -1, "trial_type": "single-stim", "stimulus": "<p id=\"stim\">2</p>", "internal_node_id": "0.0-35.0-8.0", "time_elapsed": 1121217, "key_press": -1, "trial_index": 52}, "uniqueid": "MTK3365:3H8DHMCCWAI0SETAP3XHUMJXIHAKDS", "dateTime": 1520450790172}, {"current_trial": 53, "trialdata": {"rt": -1, "trial_type": "single-stim", "stimulus": "<p id=\"stim\">1</p>", "internal_node_id": "0.0-35.0-9.0", "time_elapsed": 1122226, "key_press": -1, "trial_index": 53}, "uniqueid": "MTK3365:3H8DHMCCWAI0SETAP3XHUMJXIHAKDS", "dateTime": 1520450791180}, {"current_trial": 54, "trialdata": {"rt": -1, "trial_type": "single-stim", "stimulus": "<p id=\"stim\">+</p>", "internal_node_id": "0.0-36.0-0.0", "time_elapsed": 1123755, "key_press": -1, "type": "FIXATION", "trial_index": 54}, "uniqueid": "MTK3365:3H8DHMCCWAI0SETAP3XHUMJXIHAKDS", "dateTime": 1520450792710}, {"current_trial": 55, "trialdata": {"rt": -1, "trial_type": "single-stim", "word": "braces", "stimulus": "<p id=\"stim\">BRACES</p>", "conditions": [18, 1200, "v", 18000], "internal_node_id": "0.0-37.0", "trial": 1, "time_elapsed": 1124979, "serialpos": 0, "key_press": -1, "wordID": 163, "type": "PRES_VIS", "trial_index": 55}, "uniqueid": "MTK3365:3H8DHMCCWAI0SETAP3XHUMJXIHAKDS", "dateTime": 1520450793934}, {"current_trial": 56, "trialdata": {"rt": -1, "trial_type": "single-stim", "word": "mildew", "stimulus": "<p id=\"stim\">MILDEW</p>", "conditions": [18, 1200, "v", 18000], "internal_node_id": "0.0-38.0", "trial": 1, "time_elapsed": 1127361, "serialpos": 1, "key_press": -1, "wordID": 892, "type": "PRES_VIS", "trial_index": 56}, "uniqueid": "MTK3365:3H8DHMCCWAI0SETAP3XHUMJXIHAKDS", "dateTime": 1520450796316}, {"current_trial": 57, "trialdata": {"rt": -1, "trial_type": "single-stim", "word": "gallon", "stimulus": "<p id=\"stim\">GALLON</p>", "conditions": [18, 1200, "v", 18000], "internal_node_id": "0.0-39.0", "trial": 1, "time_elapsed": 1129469, "serialpos": 2, "key_press": -1, "wordID": 617, "type": "PRES_VIS", "trial_index": 57}, "uniqueid": "MTK3365:3H8DHMCCWAI0SETAP3XHUMJXIHAKDS", "dateTime": 1520450798424}, {"current_trial": 58, "trialdata": {"rt": -1, "trial_type": "single-stim", "word": "drawing", "stimulus": "<p id=\"stim\">DRAWING</p>", "conditions": [18, 1200, "v", 18000], "internal_node_id": "0.0-40.0", "trial": 1, "time_elapsed": 1131851, "serialpos": 3, "key_press": -1, "wordID": 493, "type": "PRES_VIS", "trial_index": 58}, "uniqueid": "MTK3365:3H8DHMCCWAI0SETAP3XHUMJXIHAKDS", "dateTime": 1520450800805}, {"current_trial": 59, "trialdata": {"rt": -1, "trial_type": "single-stim", "word": "quarter", "stimulus": "<p id=\"stim\">QUARTER</p>", "conditions": [18, 1200, "v", 18000], "internal_node_id": "0.0-41.0", "trial": 1, "time_elapsed": 1133979, "serialpos": 4, "key_press": -1, "wordID": 1147, "type": "PRES_VIS", "trial_index": 59}, "uniqueid": "MTK3365:3H8DHMCCWAI0SETAP3XHUMJXIHAKDS", "dateTime": 1520450802933}, {"current_trial": 60, "trialdata": {"rt": -1, "trial_type": "single-stim", "word": "blender", "stimulus": "<p id=\"stim\">BLENDER</p>", "conditions": [18, 1200, "v", 18000], "internal_node_id": "0.0-42.0", "trial": 1, "time_elapsed": 1136122, "serialpos": 5, "key_press": -1, "wordID": 135, "type": "PRES_VIS", "trial_index": 60}, "uniqueid": "MTK3365:3H8DHMCCWAI0SETAP3XHUMJXIHAKDS", "dateTime": 1520450805076}, {"current_trial": 61, "trialdata": {"rt": -1, "trial_type": "single-stim", "word": "mister", "stimulus": "<p id=\"stim\">MISTER</p>", "conditions": [18, 1200, "v", 18000], "internal_node_id": "0.0-43.0", "trial": 1, "time_elapsed": 1138528, "serialpos": 6, "key_press": -1, "wordID": 900, "type": "PRES_VIS", "trial_index": 61}, "uniqueid": "MTK3365:3H8DHMCCWAI0SETAP3XHUMJXIHAKDS", "dateTime": 1520450807483}, {"current_trial": 62, "trialdata": {"rt": -1, "trial_type": "single-stim", "word": "salmon", "stimulus": "<p id=\"stim\">SALMON</p>", "conditions": [18, 1200, "v", 18000], "internal_node_id": "0.0-44.0", "trial": 1, "time_elapsed": 1140842, "serialpos": 7, "key_press": -1, "wordID": 1226, "type": "PRES_VIS", "trial_index": 62}, "uniqueid": "MTK3365:3H8DHMCCWAI0SETAP3XHUMJXIHAKDS", "dateTime": 1520450809796}, {"current_trial": 63, "trialdata": {"rt": -1, "trial_type": "single-stim", "word": "dustpan", "stimulus": "<p id=\"stim\">DUSTPAN</p>", "conditions": [18, 1200, "v", 18000], "internal_node_id": "0.0-45.0", "trial": 1, "time_elapsed": 1143122, "serialpos": 8, "key_press": -1, "wordID": 508, "type": "PRES_VIS", "trial_index": 63}, "uniqueid": "MTK3365:3H8DHMCCWAI0SETAP3XHUMJXIHAKDS", "dateTime": 1520450812077}, {"current_trial": 64, "trialdata": {"rt": -1, "trial_type": "single-stim", "word": "lightning", "stimulus": "<p id=\"stim\">LIGHTNING</p>", "conditions": [18, 1200, "v", 18000], "internal_node_id": "0.0-46.0", "trial": 1, "time_elapsed": 1145198, "serialpos": 9, "key_press": -1, "wordID": 819, "type": "PRES_VIS", "trial_index": 64}, "uniqueid": "MTK3365:3H8DHMCCWAI0SETAP3XHUMJXIHAKDS", "dateTime": 1520450814153}, {"current_trial": 65, "trialdata": {"rt": -1, "trial_type": "single-stim", "word": "whistle", "stimulus": "<p id=\"stim\">WHISTLE</p>", "conditions": [18, 1200, "v", 18000], "internal_node_id": "0.0-47.0", "trial": 1, "time_elapsed": 1147326, "serialpos": 10, "key_press": -1, "wordID": 1605, "type": "PRES_VIS", "trial_index": 65}, "uniqueid": "MTK3365:3H8DHMCCWAI0SETAP3XHUMJXIHAKDS", "dateTime": 1520450816281}, {"current_trial": 66, "trialdata": {"rt": -1, "trial_type": "single-stim", "word": "pistol", "stimulus": "<p id=\"stim\">PISTOL</p>", "conditions": [18, 1200, "v", 18000], "internal_node_id": "0.0-48.0", "trial": 1, "time_elapsed": 1149432, "serialpos": 11, "key_press": -1, "wordID": 1074, "type": "PRES_VIS", "trial_index": 66}, "uniqueid": "MTK3365:3H8DHMCCWAI0SETAP3XHUMJXIHAKDS", "dateTime": 1520450818386}, {"current_trial": 67, "trialdata": {"rt": -1, "trial_type": "single-stim", "word": "proton", "stimulus": "<p id=\"stim\">PROTON</p>", "conditions": [18, 1200, "v", 18000], "internal_node_id": "0.0-49.0", "trial": 1, "time_elapsed": 1151802, "serialpos": 12, "key_press": -1, "wordID": 1131, "type": "PRES_VIS", "trial_index": 67}, "uniqueid": "MTK3365:3H8DHMCCWAI0SETAP3XHUMJXIHAKDS", "dateTime": 1520450820756}, {"current_trial": 68, "trialdata": {"rt": -1, "trial_type": "single-stim", "word": "valve", "stimulus": "<p id=\"stim\">VALVE</p>", "conditions": [18, 1200, "v", 18000], "internal_node_id": "0.0-50.0", "trial": 1, "time_elapsed": 1154130, "serialpos": 13, "key_press": -1, "wordID": 1545, "type": "PRES_VIS", "trial_index": 68}, "uniqueid": "MTK3365:3H8DHMCCWAI0SETAP3XHUMJXIHAKDS", "dateTime": 1520450823084}, {"current_trial": 69, "trialdata": {"rt": -1, "trial_type": "single-stim", "word": "dress", "stimulus": "<p id=\"stim\">DRESS</p>", "conditions": [18, 1200, "v", 18000], "internal_node_id": "0.0-51.0", "trial": 1, "time_elapsed": 1156557, "serialpos": 14, "key_press": -1, "wordID": 494, "type": "PRES_VIS", "trial_index": 69}, "uniqueid": "MTK3365:3H8DHMCCWAI0SETAP3XHUMJXIHAKDS", "dateTime": 1520450825512}, {"current_trial": 70, "trialdata": {"rt": -1, "trial_type": "single-stim", "word": "truck", "stimulus": "<p id=\"stim\">TRUCK</p>", "conditions": [18, 1200, "v", 18000], "internal_node_id": "0.0-52.0", "trial": 1, "time_elapsed": 1158598, "serialpos": 15, "key_press": -1, "wordID": 1511, "type": "PRES_VIS", "trial_index": 70}, "uniqueid": "MTK3365:3H8DHMCCWAI0SETAP3XHUMJXIHAKDS", "dateTime": 1520450827552}, {"current_trial": 71, "trialdata": {"rt": -1, "trial_type": "single-stim", "word": "parrot", "stimulus": "<p id=\"stim\">PARROT</p>", "conditions": [18, 1200, "v", 18000], "internal_node_id": "0.0-53.0", "trial": 1, "time_elapsed": 1160647, "serialpos": 16, "key_press": -1, "wordID": 1014, "type": "PRES_VIS", "trial_index": 71}, "uniqueid": "MTK3365:3H8DHMCCWAI0SETAP3XHUMJXIHAKDS", "dateTime": 1520450829601}, {"current_trial": 72, "trialdata": {"rt": -1, "trial_type": "single-stim", "word": "toaster", "stimulus": "<p id=\"stim\">TOASTER</p>", "conditions": [18, 1200, "v", 18000], "internal_node_id": "0.0-54.0", "trial": 1, "time_elapsed": 1162772, "serialpos": 17, "key_press": -1, "wordID": 1471, "type": "PRES_VIS", "trial_index": 72}, "uniqueid": "MTK3365:3H8DHMCCWAI0SETAP3XHUMJXIHAKDS", "dateTime": 1520450831727}, {"current_trial": 73, "trialdata": {"rt": -1, "trial_type": "single-stim", "stimulus": "", "internal_node_id": "0.0-55.0-0.0", "time_elapsed": 1165311, "key_press": -1, "type": "PRE_RECALL_DELAY", "trial_index": 73}, "uniqueid": "MTK3365:3H8DHMCCWAI0SETAP3XHUMJXIHAKDS", "dateTime": 1520450834266}, {"current_trial": 74, "trialdata": {"rt": -1000, "trial_type": "single-audio", "stimulus": "/static/audio/400Hz.wav", "internal_node_id": "0.0-56.0", "time_elapsed": 1165811, "key_press": -1, "type": "PRE_RECALL_ALERT", "trial_index": 74}, "uniqueid": "MTK3365:3H8DHMCCWAI0SETAP3XHUMJXIHAKDS", "dateTime": 1520450834766}, {"current_trial": 75, "trialdata": {"rt": [6688, 7079, 16404, 28411, 39322, 46458, 52443], "recwords": ["brace", "", "gallon", "samon", "pistal", "value", "dress"], "key_times": [3469, 4137, 4888, 5602, 6136, 6688, 7079, 10578, 11888, 13369, 13605, 14099, 14872, 16404, 24892, 25331, 26155, 26522, 27035, 28411, 34206, 34676, 36170, 36683, 37298, 38646, 39322, 41236, 41906, 43178, 44027, 44881, 46458, 49156, 49772, 50211, 50986, 51277, 52443, 59062], "trial_type": "free-recall", "conditions": [18, 1200, "v", 18000], "internal_node_id": "0.0-57.0-0.0", "key_presses": [66, 82, 65, 67, 69, 13, 13, 71, 65, 76, 76, 79, 78, 13, 83, 65, 77, 79, 78, 13, 80, 73, 83, 84, 65, 76, 13, 86, 65, 76, 85, 69, 13, 68, 82, 69, 83, 83, 13, 84], "trial": 1, "time_elapsed": 1225843, "type": "FREE_RECALL", "trial_index": 75}, "uniqueid": "MTK3365:3H8DHMCCWAI0SETAP3XHUMJXIHAKDS", "dateTime": 1520450894814}, {"current_trial": 76, "trialdata": {"rt": 220, "trial_type": "text", "internal_node_id": "0.0-58.0", "time_elapsed": 1228100, "key_press": 73, "type": "INSTRUCTIONS", "trial_index": 76}, "uniqueid": "MTK3365:3H8DHMCCWAI0SETAP3XHUMJXIHAKDS", "dateTime": 1520450897055}, {"current_trial": 77, "trialdata": {"rt": [2050, 10758], "trial_type": "math-distractor", "key_times": [1068, 2050, 4309, 5042, 6555, 8412, 9287, 10758], "responses": ["k", "parot"], "num2": [1, 2, 7], "num3": [4, 3, 8], "conditions": [24, 800, "v", 24000], "internal_node_id": "0.0-59.0", "key_presses": [75, 13, 80, 65, 82, 79, 84, 13], "trial": 2, "time_elapsed": 1253114, "type": "DISTRACTOR", "trial_index": 77, "num1": [8, 4, 6]}, "uniqueid": "MTK3365:3H8DHMCCWAI0SETAP3XHUMJXIHAKDS", "dateTime": 1520450922069}, {"current_trial": 78, "trialdata": {"rt": -1, "trial_type": "single-stim", "stimulus": "<p id=\"stim\">10</p>", "internal_node_id": "0.0-60.0-0.0", "time_elapsed": 1256159, "key_press": -1, "trial_index": 78}, "uniqueid": "MTK3365:3H8DHMCCWAI0SETAP3XHUMJXIHAKDS", "dateTime": 1520450925113}, {"current_trial": 79, "trialdata": {"rt": -1, "trial_type": "single-stim", "stimulus": "<p id=\"stim\">9</p>", "internal_node_id": "0.0-60.0-1.0", "time_elapsed": 1257152, "key_press": -1, "trial_index": 79}, "uniqueid": "MTK3365:3H8DHMCCWAI0SETAP3XHUMJXIHAKDS", "dateTime": 1520450926106}, {"current_trial": 80, "trialdata": {"rt": -1, "trial_type": "single-stim", "stimulus": "<p id=\"stim\">8</p>", "internal_node_id": "0.0-60.0-2.0", "time_elapsed": 1258152, "key_press": -1, "trial_index": 80}, "uniqueid": "MTK3365:3H8DHMCCWAI0SETAP3XHUMJXIHAKDS", "dateTime": 1520450927107}, {"current_trial": 81, "trialdata": {"rt": -1, "trial_type": "single-stim", "stimulus": "<p id=\"stim\">7</p>", "internal_node_id": "0.0-60.0-3.0", "time_elapsed": 1259153, "key_press": -1, "trial_index": 81}, "uniqueid": "MTK3365:3H8DHMCCWAI0SETAP3XHUMJXIHAKDS", "dateTime": 1520450928108}, {"current_trial": 82, "trialdata": {"rt": -1, "trial_type": "single-stim", "stimulus": "<p id=\"stim\">6</p>", "internal_node_id": "0.0-60.0-4.0", "time_elapsed": 1260162, "key_press": -1, "trial_index": 82}, "uniqueid": "MTK3365:3H8DHMCCWAI0SETAP3XHUMJXIHAKDS", "dateTime": 1520450929117}, {"current_trial": 83, "trialdata": {"rt": -1, "trial_type": "single-stim", "stimulus": "<p id=\"stim\">5</p>", "internal_node_id": "0.0-60.0-5.0", "time_elapsed": 1261144, "key_press": -1, "trial_index": 83}, "uniqueid": "MTK3365:3H8DHMCCWAI0SETAP3XHUMJXIHAKDS", "dateTime": 1520450930099}, {"current_trial": 84, "trialdata": {"rt": -1, "trial_type": "single-stim", "stimulus": "<p id=\"stim\">4</p>", "internal_node_id": "0.0-60.0-6.0", "time_elapsed": 1262151, "key_press": -1, "trial_index": 84}, "uniqueid": "MTK3365:3H8DHMCCWAI0SETAP3XHUMJXIHAKDS", "dateTime": 1520450931105}, {"current_trial": 85, "trialdata": {"rt": -1, "trial_type": "single-stim", "stimulus": "<p id=\"stim\">3</p>", "internal_node_id": "0.0-60.0-7.0", "time_elapsed": 1263163, "key_press": -1, "trial_index": 85}, "uniqueid": "MTK3365:3H8DHMCCWAI0SETAP3XHUMJXIHAKDS", "dateTime": 1520450932117}, {"current_trial": 86, "trialdata": {"rt": -1, "trial_type": "single-stim", "stimulus": "<p id=\"stim\">2</p>", "internal_node_id": "0.0-60.0-8.0", "time_elapsed": 1264154, "key_press": -1, "trial_index": 86}, "uniqueid": "MTK3365:3H8DHMCCWAI0SETAP3XHUMJXIHAKDS", "dateTime": 1520450933109}, {"current_trial": 87, "trialdata": {"rt": -1, "trial_type": "single-stim", "stimulus": "<p id=\"stim\">1</p>", "internal_node_id": "0.0-60.0-9.0", "time_elapsed": 1265172, "key_press": -1, "trial_index": 87}, "uniqueid": "MTK3365:3H8DHMCCWAI0SETAP3XHUMJXIHAKDS", "dateTime": 1520450934126}, {"current_trial": 88, "trialdata": {"rt": -1, "trial_type": "single-stim", "stimulus": "<p id=\"stim\">+</p>", "internal_node_id": "0.0-61.0-0.0", "time_elapsed": 1266682, "key_press": -1, "type": "FIXATION", "trial_index": 88}, "uniqueid": "MTK3365:3H8DHMCCWAI0SETAP3XHUMJXIHAKDS", "dateTime": 1520450935638}, {"current_trial": 89, "trialdata": {"rt": -1, "trial_type": "single-stim", "word": "hand", "stimulus": "<p id=\"stim\">HAND</p>", "conditions": [24, 800, "v", 24000], "internal_node_id": "0.0-62.0", "trial": 2, "time_elapsed": 1267493, "serialpos": 0, "key_press": -1, "wordID": 682, "type": "PRES_VIS", "trial_index": 89}, "uniqueid": "MTK3365:3H8DHMCCWAI0SETAP3XHUMJXIHAKDS", "dateTime": 1520450936448}, {"current_trial": 90, "trialdata": {"rt": -1, "trial_type": "single-stim", "word": "rod", "stimulus": "<p id=\"stim\">ROD</p>", "conditions": [24, 800, "v", 24000], "internal_node_id": "0.0-63.0", "trial": 2, "time_elapsed": 1269277, "serialpos": 1, "key_press": -1, "wordID": 1202, "type": "PRES_VIS", "trial_index": 90}, "uniqueid": "MTK3365:3H8DHMCCWAI0SETAP3XHUMJXIHAKDS", "dateTime": 1520450938231}, {"current_trial": 91, "trialdata": {"rt": -1, "trial_type": "single-stim", "word": "swimmer", "stimulus": "<p id=\"stim\">SWIMMER</p>", "conditions": [24, 800, "v", 24000], "internal_node_id": "0.0-64.0", "trial": 2, "time_elapsed": 1270959, "serialpos": 2, "key_press": -1, "wordID": 1419, "type": "PRES_VIS", "trial_index": 91}, "uniqueid": "MTK3365:3H8DHMCCWAI0SETAP3XHUMJXIHAKDS", "dateTime": 1520450939915}, {"current_trial": 92, "trialdata": {"rt": -1, "trial_type": "single-stim", "word": "neutron", "stimulus": "<p id=\"stim\">NEUTRON</p>", "conditions": [24, 800, "v", 24000], "internal_node_id": "0.0-65.0", "trial": 2, "time_elapsed": 1272626, "serialpos": 3, "key_press": -1, "wordID": 946, "type": "PRES_VIS", "trial_index": 92}, "uniqueid": "MTK3365:3H8DHMCCWAI0SETAP3XHUMJXIHAKDS", "dateTime": 1520450941581}, {"current_trial": 93, "trialdata": {"rt": -1, "trial_type": "single-stim", "word": "slope", "stimulus": "<p id=\"stim\">SLOPE</p>", "conditions": [24, 800, "v", 24000], "internal_node_id": "0.0-66.0", "trial": 2, "time_elapsed": 1274508, "serialpos": 4, "key_press": -1, "wordID": 1327, "type": "PRES_VIS", "trial_index": 93}, "uniqueid": "MTK3365:3H8DHMCCWAI0SETAP3XHUMJXIHAKDS", "dateTime": 1520450943462}, {"current_trial": 94, "trialdata": {"rt": -1, "trial_type": "single-stim", "word": "headband", "stimulus": "<p id=\"stim\">HEADBAND</p>", "conditions": [24, 800, "v", 24000], "internal_node_id": "0.0-67.0", "trial": 2, "time_elapsed": 1276541, "serialpos": 5, "key_press": -1, "wordID": 695, "type": "PRES_VIS", "trial_index": 94}, "uniqueid": "MTK3365:3H8DHMCCWAI0SETAP3XHUMJXIHAKDS", "dateTime": 1520450945496}, {"current_trial": 95, "trialdata": {"rt": -1, "trial_type": "single-stim", "word": "bullet", "stimulus": "<p id=\"stim\">BULLET</p>", "conditions": [24, 800, "v", 24000], "internal_node_id": "0.0-68.0", "trial": 2, "time_elapsed": 1278428, "serialpos": 6, "key_press": -1, "wordID": 193, "type": "PRES_VIS", "trial_index": 95}, "uniqueid": "MTK3365:3H8DHMCCWAI0SETAP3XHUMJXIHAKDS", "dateTime": 1520450947382}, {"current_trial": 96, "trialdata": {"rt": -1, "trial_type": "single-stim", "word": "venus", "stimulus": "<p id=\"stim\">VENUS</p>", "conditions": [24, 800, "v", 24000], "internal_node_id": "0.0-69.0", "trial": 2, "time_elapsed": 1280173, "serialpos": 7, "key_press": -1, "wordID": 1556, "type": "PRES_VIS", "trial_index": 96}, "uniqueid": "MTK3365:3H8DHMCCWAI0SETAP3XHUMJXIHAKDS", "dateTime": 1520450949127}, {"current_trial": 97, "trialdata": {"rt": -1, "trial_type": "single-stim", "word": "beast", "stimulus": "<p id=\"stim\">BEAST</p>", "conditions": [24, 800, "v", 24000], "internal_node_id": "0.0-70.0", "trial": 2, "time_elapsed": 1282174, "serialpos": 8, "key_press": -1, "wordID": 107, "type": "PRES_VIS", "trial_index": 97}, "uniqueid": "MTK3365:3H8DHMCCWAI0SETAP3XHUMJXIHAKDS", "dateTime": 1520450951129}, {"current_trial": 98, "trialdata": {"rt": -1, "trial_type": "single-stim", "word": "monster", "stimulus": "<p id=\"stim\">MONSTER</p>", "conditions": [24, 800, "v", 24000], "internal_node_id": "0.0-71.0", "trial": 2, "time_elapsed": 1283939, "serialpos": 9, "key_press": -1, "wordID": 911, "type": "PRES_VIS", "trial_index": 98}, "uniqueid": "MTK3365:3H8DHMCCWAI0SETAP3XHUMJXIHAKDS", "dateTime": 1520450952893}, {"current_trial": 99, "trialdata": {"rt": -1, "trial_type": "single-stim", "word": "orchid", "stimulus": "<p id=\"stim\">ORCHID</p>", "conditions": [24, 800, "v", 24000], "internal_node_id": "0.0-72.0", "trial": 2, "time_elapsed": 1285941, "serialpos": 10, "key_press": -1, "wordID": 981, "type": "PRES_VIS", "trial_index": 99}, "uniqueid": "MTK3365:3H8DHMCCWAI0SETAP3XHUMJXIHAKDS", "dateTime": 1520450954896}, {"current_trial": 100, "trialdata": {"rt": -1, "trial_type": "single-stim", "word": "gymnast", "stimulus": "<p id=\"stim\">GYMNAST</p>", "conditions": [24, 800, "v", 24000], "internal_node_id": "0.0-73.0", "trial": 2, "time_elapsed": 1287681, "serialpos": 11, "key_press": -1, "wordID": 674, "type": "PRES_VIS", "trial_index": 100}, "uniqueid": "MTK3365:3H8DHMCCWAI0SETAP3XHUMJXIHAKDS", "dateTime": 1520450956636}, {"current_trial": 101, "trialdata": {"rt": -1, "trial_type": "single-stim", "word": "beaker", "stimulus": "<p id=\"stim\">BEAKER</p>", "conditions": [24, 800, "v", 24000], "internal_node_id": "0.0-74.0", "trial": 2, "time_elapsed": 1289636, "serialpos": 12, "key_press": -1, "wordID": 103, "type": "PRES_VIS", "trial_index": 101}, "uniqueid": "MTK3365:3H8DHMCCWAI0SETAP3XHUMJXIHAKDS", "dateTime": 1520450958591}, {"current_trial": 102, "trialdata": {"rt": -1, "trial_type": "single-stim", "word": "lava", "stimulus": "<p id=\"stim\">LAVA</p>", "conditions": [24, 800, "v", 24000], "internal_node_id": "0.0-75.0", "trial": 2, "time_elapsed": 1291556, "serialpos": 13, "key_press": -1, "wordID": 803, "type": "PRES_VIS", "trial_index": 102}, "uniqueid": "MTK3365:3H8DHMCCWAI0SETAP3XHUMJXIHAKDS", "dateTime": 1520450960510}, {"current_trial": 103, "trialdata": {"rt": -1, "trial_type": "single-stim", "word": "grill", "stimulus": "<p id=\"stim\">GRILL</p>", "conditions": [24, 800, "v", 24000], "internal_node_id": "0.0-76.0", "trial": 2, "time_elapsed": 1293304, "serialpos": 14, "key_press": -1, "wordID": 660, "type": "PRES_VIS", "trial_index": 103}, "uniqueid": "MTK3365:3H8DHMCCWAI0SETAP3XHUMJXIHAKDS", "dateTime": 1520450962259}, {"current_trial": 104, "trialdata": {"rt": -1, "trial_type": "single-stim", "word": "atlas", "stimulus": "<p id=\"stim\">ATLAS</p>", "conditions": [24, 800, "v", 24000], "internal_node_id": "0.0-77.0", "trial": 2, "time_elapsed": 1295159, "serialpos": 15, "key_press": -1, "wordID": 52, "type": "PRES_VIS", "trial_index": 104}, "uniqueid": "MTK3365:3H8DHMCCWAI0SETAP3XHUMJXIHAKDS", "dateTime": 1520450964115}, {"current_trial": 105, "trialdata": {"rt": -1, "trial_type": "single-stim", "word": "snack", "stimulus": "<p id=\"stim\">SNACK</p>", "conditions": [24, 800, "v", 24000], "internal_node_id": "0.0-78.0", "trial": 2, "time_elapsed": 1296884, "serialpos": 16, "key_press": -1, "wordID": 1330, "type": "PRES_VIS", "trial_index": 105}, "uniqueid": "MTK3365:3H8DHMCCWAI0SETAP3XHUMJXIHAKDS", "dateTime": 1520450965838}, {"current_trial": 106, "trialdata": {"rt": -1, "trial_type": "single-stim", "word": "sculpture", "stimulus": "<p id=\"stim\">SCULPTURE</p>", "conditions": [24, 800, "v", 24000], "internal_node_id": "0.0-79.0", "trial": 2, "time_elapsed": 1298804, "serialpos": 17, "key_press": -1, "wordID": 1257, "type": "PRES_VIS", "trial_index": 106}, "uniqueid": "MTK3365:3H8DHMCCWAI0SETAP3XHUMJXIHAKDS", "dateTime": 1520450967758}, {"current_trial": 107, "trialdata": {"rt": -1, "trial_type": "single-stim", "word": "loft", "stimulus": "<p id=\"stim\">LOFT</p>", "conditions": [24, 800, "v", 24000], "internal_node_id": "0.0-80.0", "trial": 2, "time_elapsed": 1300717, "serialpos": 18, "key_press": -1, "wordID": 839, "type": "PRES_VIS", "trial_index": 107}, "uniqueid": "MTK3365:3H8DHMCCWAI0SETAP3XHUMJXIHAKDS", "dateTime": 1520450969672}, {"current_trial": 108, "trialdata": {"rt": -1, "trial_type": "single-stim", "word": "picnic", "stimulus": "<p id=\"stim\">PICNIC</p>", "conditions": [24, 800, "v", 24000], "internal_node_id": "0.0-81.0", "trial": 2, "time_elapsed": 1302646, "serialpos": 19, "key_press": -1, "wordID": 1059, "type": "PRES_VIS", "trial_index": 108}, "uniqueid": "MTK3365:3H8DHMCCWAI0SETAP3XHUMJXIHAKDS", "dateTime": 1520450971601}, {"current_trial": 109, "trialdata": {"rt": -1, "trial_type": "single-stim", "word": "radish", "stimulus": "<p id=\"stim\">RADISH</p>", "conditions": [24, 800, "v", 24000], "internal_node_id": "0.0-82.0", "trial": 2, "time_elapsed": 1304512, "serialpos": 20, "key_press": -1, "wordID": 1157, "type": "PRES_VIS", "trial_index": 109}, "uniqueid": "MTK3365:3H8DHMCCWAI0SETAP3XHUMJXIHAKDS", "dateTime": 1520450973467}, {"current_trial": 110, "trialdata": {"rt": -1, "trial_type": "single-stim", "word": "cabbage", "stimulus": "<p id=\"stim\">CABBAGE</p>", "conditions": [24, 800, "v", 24000], "internal_node_id": "0.0-83.0", "trial": 2, "time_elapsed": 1306262, "serialpos": 21, "key_press": -1, "wordID": 209, "type": "PRES_VIS", "trial_index": 110}, "uniqueid": "MTK3365:3H8DHMCCWAI0SETAP3XHUMJXIHAKDS", "dateTime": 1520450975217}, {"current_trial": 111, "trialdata": {"rt": -1, "trial_type": "single-stim", "word": "crater", "stimulus": "<p id=\"stim\">CRATER</p>", "conditions": [24, 800, "v", 24000], "internal_node_id": "0.0-84.0", "trial": 2, "time_elapsed": 1308048, "serialpos": 22, "key_press": -1, "wordID": 399, "type": "PRES_VIS", "trial_index": 111}, "uniqueid": "MTK3365:3H8DHMCCWAI0SETAP3XHUMJXIHAKDS", "dateTime": 1520450977002}, {"current_trial": 112, "trialdata": {"rt": -1, "trial_type": "single-stim", "word": "summit", "stimulus": "<p id=\"stim\">SUMMIT</p>", "conditions": [24, 800, "v", 24000], "internal_node_id": "0.0-85.0", "trial": 2, "time_elapsed": 1309696, "serialpos": 23, "key_press": -1, "wordID": 1404, "type": "PRES_VIS", "trial_index": 112}, "uniqueid": "MTK3365:3H8DHMCCWAI0SETAP3XHUMJXIHAKDS", "dateTime": 1520450978650}, {"current_trial": 113, "trialdata": {"rt": -1, "trial_type": "single-stim", "stimulus": "", "internal_node_id": "0.0-86.0-0.0", "time_elapsed": 1311771, "key_press": -1, "type": "PRE_RECALL_DELAY", "trial_index": 113}, "uniqueid": "MTK3365:3H8DHMCCWAI0SETAP3XHUMJXIHAKDS", "dateTime": 1520450980726}, {"current_trial": 114, "trialdata": {"rt": -1000, "trial_type": "single-audio", "stimulus": "/static/audio/400Hz.wav", "internal_node_id": "0.0-87.0", "time_elapsed": 1312281, "key_press": -1, "type": "PRE_RECALL_ALERT", "trial_index": 114}, "uniqueid": "MTK3365:3H8DHMCCWAI0SETAP3XHUMJXIHAKDS", "dateTime": 1520450981235}, {"current_trial": 115, "trialdata": {"rt": [12294, 19182, 35992, 43038, 50434], "recwords": ["swimmer", "slope", "blute", "beast", "monster"], "key_times": [6966, 7813, 9342, 10046, 10254, 11039, 11397, 12294, 16168, 17085, 17501, 17790, 18545, 19182, 27705, 30560, 33281, 33855, 34494, 35992, 39047, 40426, 41153, 41663, 42176, 43038, 45944, 46607, 47143, 48250, 48728, 49305, 49704, 50434, 54232, 55496, 56417, 57690, 58512, 59411, 59809], "trial_type": "free-recall", "conditions": [24, 800, "v", 24000], "internal_node_id": "0.0-88.0-0.0", "key_presses": [83, 87, 73, 77, 77, 69, 82, 13, 83, 76, 79, 80, 69, 13, 66, 76, 85, 84, 69, 13, 66, 69, 65, 83, 84, 13, 77, 79, 78, 83, 84, 69, 82, 13, 79, 85, 8, 82, 67, 72, 65], "trial": 2, "time_elapsed": 1372315, "type": "FREE_RECALL", "trial_index": 115}, "uniqueid": "MTK3365:3H8DHMCCWAI0SETAP3XHUMJXIHAKDS", "dateTime": 1520451041290}, {"current_trial": 116, "trialdata": {"rt": 389, "trial_type": "text", "internal_node_id": "0.0-89.0", "time_elapsed": 1374745, "key_press": 13, "type": "INSTRUCTIONS", "trial_index": 116}, "uniqueid": "MTK3365:3H8DHMCCWAI0SETAP3XHUMJXIHAKDS", "dateTime": 1520451043700}, {"current_trial": 117, "trialdata": {"rt": [4704, 21117], "trial_type": "math-distractor", "key_times": [1237, 1801, 2697, 3293, 3675, 4704, 13925, 14778, 21117], "responses": ["grill", "14"], "num2": [8, 4, 8], "num3": [5, 8, 8], "conditions": [12, 800, "v", 24000], "internal_node_id": "0.0-90.0", "key_presses": [71, 82, 73, 76, 76, 13, 49, 52, 13], "trial": 3, "time_elapsed": 1400799, "type": "DISTRACTOR", "trial_index": 117, "num1": [1, 2, 3]}, "uniqueid": "MTK3365:3H8DHMCCWAI0SETAP3XHUMJXIHAKDS", "dateTime": 1520451069754}, {"current_trial": 118, "trialdata": {"rt": 509, "trial_type": "single-stim", "stimulus": "<p id=\"stim\">10</p>", "internal_node_id": "0.0-91.0-0.0", "time_elapsed": 1403834, "key_press": 57, "trial_index": 118}, "uniqueid": "MTK3365:3H8DHMCCWAI0SETAP3XHUMJXIHAKDS", "dateTime": 1520451072789}, {"current_trial": 119, "trialdata": {"rt": 109, "trial_type": "single-stim", "stimulus": "<p id=\"stim\">9</p>", "internal_node_id": "0.0-91.0-1.0", "time_elapsed": 1404833, "key_press": 13, "trial_index": 119}, "uniqueid": "MTK3365:3H8DHMCCWAI0SETAP3XHUMJXIHAKDS", "dateTime": 1520451073788}, {"current_trial": 120, "trialdata": {"rt": -1, "trial_type": "single-stim", "stimulus": "<p id=\"stim\">8</p>", "internal_node_id": "0.0-91.0-2.0", "time_elapsed": 1405850, "key_press": -1, "trial_index": 120}, "uniqueid": "MTK3365:3H8DHMCCWAI0SETAP3XHUMJXIHAKDS", "dateTime": 1520451074805}, {"current_trial": 121, "trialdata": {"rt": -1, "trial_type": "single-stim", "stimulus": "<p id=\"stim\">7</p>", "internal_node_id": "0.0-91.0-3.0", "time_elapsed": 1406839, "key_press": -1, "trial_index": 121}, "uniqueid": "MTK3365:3H8DHMCCWAI0SETAP3XHUMJXIHAKDS", "dateTime": 1520451075794}, {"current_trial": 122, "trialdata": {"rt": -1, "trial_type": "single-stim", "stimulus": "<p id=\"stim\">6</p>", "internal_node_id": "0.0-91.0-4.0", "time_elapsed": 1407843, "key_press": -1, "trial_index": 122}, "uniqueid": "MTK3365:3H8DHMCCWAI0SETAP3XHUMJXIHAKDS", "dateTime": 1520451076798}, {"current_trial": 123, "trialdata": {"rt": -1, "trial_type": "single-stim", "stimulus": "<p id=\"stim\">5</p>", "internal_node_id": "0.0-91.0-5.0", "time_elapsed": 1408834, "key_press": -1, "trial_index": 123}, "uniqueid": "MTK3365:3H8DHMCCWAI0SETAP3XHUMJXIHAKDS", "dateTime": 1520451077789}, {"current_trial": 124, "trialdata": {"rt": -1, "trial_type": "single-stim", "stimulus": "<p id=\"stim\">4</p>", "internal_node_id": "0.0-91.0-6.0", "time_elapsed": 1409834, "key_press": -1, "trial_index": 124}, "uniqueid": "MTK3365:3H8DHMCCWAI0SETAP3XHUMJXIHAKDS", "dateTime": 1520451078789}, {"current_trial": 125, "trialdata": {"rt": -1, "trial_type": "single-stim", "stimulus": "<p id=\"stim\">3</p>", "internal_node_id": "0.0-91.0-7.0", "time_elapsed": 1410825, "key_press": -1, "trial_index": 125}, "uniqueid": "MTK3365:3H8DHMCCWAI0SETAP3XHUMJXIHAKDS", "dateTime": 1520451079780}, {"current_trial": 126, "trialdata": {"rt": -1, "trial_type": "single-stim", "stimulus": "<p id=\"stim\">2</p>", "internal_node_id": "0.0-91.0-8.0", "time_elapsed": 1411841, "key_press": -1, "trial_index": 126}, "uniqueid": "MTK3365:3H8DHMCCWAI0SETAP3XHUMJXIHAKDS", "dateTime": 1520451080795}, {"current_trial": 127, "trialdata": {"rt": -1, "trial_type": "single-stim", "stimulus": "<p id=\"stim\">1</p>", "internal_node_id": "0.0-91.0-9.0", "time_elapsed": 1412832, "key_press": -1, "trial_index": 127}, "uniqueid": "MTK3365:3H8DHMCCWAI0SETAP3XHUMJXIHAKDS", "dateTime": 1520451081786}, {"current_trial": 128, "trialdata": {"rt": -1, "trial_type": "single-stim", "stimulus": "<p id=\"stim\">+</p>", "internal_node_id": "0.0-92.0-0.0", "time_elapsed": 1414344, "key_press": -1, "type": "FIXATION", "trial_index": 128}, "uniqueid": "MTK3365:3H8DHMCCWAI0SETAP3XHUMJXIHAKDS", "dateTime": 1520451083300}, {"current_trial": 129, "trialdata": {"rt": -1, "trial_type": "single-stim", "word": "sheriff", "stimulus": "<p id=\"stim\">SHERIFF</p>", "conditions": [12, 800, "v", 24000], "internal_node_id": "0.0-93.0", "trial": 3, "time_elapsed": 1415164, "serialpos": 0, "key_press": -1, "wordID": 1283, "type": "PRES_VIS", "trial_index": 129}, "uniqueid": "MTK3365:3H8DHMCCWAI0SETAP3XHUMJXIHAKDS", "dateTime": 1520451084119}, {"current_trial": 130, "trialdata": {"rt": -1, "trial_type": "single-stim", "word": "onion", "stimulus": "<p id=\"stim\">ONION</p>", "conditions": [12, 800, "v", 24000], "internal_node_id": "0.0-94.0", "trial": 3, "time_elapsed": 1417083, "serialpos": 1, "key_press": -1, "wordID": 976, "type": "PRES_VIS", "trial_index": 130}, "uniqueid": "MTK3365:3H8DHMCCWAI0SETAP3XHUMJXIHAKDS", "dateTime": 1520451086038}, {"current_trial": 131, "trialdata": {"rt": -1, "trial_type": "single-stim", "word": "dresser", "stimulus": "<p id=\"stim\">DRESSER</p>", "conditions": [12, 800, "v", 24000], "internal_node_id": "0.0-95.0", "trial": 3, "time_elapsed": 1418792, "serialpos": 2, "key_press": -1, "wordID": 495, "type": "PRES_VIS", "trial_index": 131}, "uniqueid": "MTK3365:3H8DHMCCWAI0SETAP3XHUMJXIHAKDS", "dateTime": 1520451087747}, {"current_trial": 132, "trialdata": {"rt": -1, "trial_type": "single-stim", "word": "cupboard", "stimulus": "<p id=\"stim\">CUPBOARD</p>", "conditions": [12, 800, "v", 24000], "internal_node_id": "0.0-96.0", "trial": 3, "time_elapsed": 1420464, "serialpos": 3, "key_press": -1, "wordID": 424, "type": "PRES_VIS", "trial_index": 132}, "uniqueid": "MTK3365:3H8DHMCCWAI0SETAP3XHUMJXIHAKDS", "dateTime": 1520451089419}, {"current_trial": 133, "trialdata": {"rt": -1, "trial_type": "single-stim", "word": "contract", "stimulus": "<p id=\"stim\">CONTRACT</p>", "conditions": [12, 800, "v", 24000], "internal_node_id": "0.0-97.0", "trial": 3, "time_elapsed": 1422454, "serialpos": 4, "key_press": -1, "wordID": 367, "type": "PRES_VIS", "trial_index": 133}, "uniqueid": "MTK3365:3H8DHMCCWAI0SETAP3XHUMJXIHAKDS", "dateTime": 1520451091409}, {"current_trial": 134, "trialdata": {"rt": -1, "trial_type": "single-stim", "word": "treat", "stimulus": "<p id=\"stim\">TREAT</p>", "conditions": [12, 800, "v", 24000], "internal_node_id": "0.0-98.0", "trial": 3, "time_elapsed": 1424317, "serialpos": 5, "key_press": -1, "wordID": 1500, "type": "PRES_VIS", "trial_index": 134}, "uniqueid": "MTK3365:3H8DHMCCWAI0SETAP3XHUMJXIHAKDS", "dateTime": 1520451093271}, {"current_trial": 135, "trialdata": {"rt": -1, "trial_type": "single-stim", "word": "scalpel", "stimulus": "<p id=\"stim\">SCALPEL</p>", "conditions": [12, 800, "v", 24000], "internal_node_id": "0.0-99.0", "trial": 3, "time_elapsed": 1426097, "serialpos": 6, "key_press": -1, "wordID": 1242, "type": "PRES_VIS", "trial_index": 135}, "uniqueid": "MTK3365:3H8DHMCCWAI0SETAP3XHUMJXIHAKDS", "dateTime": 1520451095052}, {"current_trial": 136, "trialdata": {"rt": -1, "trial_type": "single-stim", "word": "husband", "stimulus": "<p id=\"stim\">HUSBAND</p>", "conditions": [12, 800, "v", 24000], "internal_node_id": "0.0-100.0", "trial": 3, "time_elapsed": 1427779, "serialpos": 7, "key_press": -1, "wordID": 727, "type": "PRES_VIS", "trial_index": 136}, "uniqueid": "MTK3365:3H8DHMCCWAI0SETAP3XHUMJXIHAKDS", "dateTime": 1520451096734}, {"current_trial": 137, "trialdata": {"rt": -1, "trial_type": "single-stim", "word": "lady", "stimulus": "<p id=\"stim\">LADY</p>", "conditions": [12, 800, "v", 24000], "internal_node_id": "0.0-101.0", "trial": 3, "time_elapsed": 1429579, "serialpos": 8, "key_press": -1, "wordID": 793, "type": "PRES_VIS", "trial_index": 137}, "uniqueid": "MTK3365:3H8DHMCCWAI0SETAP3XHUMJXIHAKDS", "dateTime": 1520451098534}, {"current_trial": 138, "trialdata": {"rt": -1, "trial_type": "single-stim", "word": "fleet", "stimulus": "<p id=\"stim\">FLEET</p>", "conditions": [12, 800, "v", 24000], "internal_node_id": "0.0-102.0", "trial": 3, "time_elapsed": 1431596, "serialpos": 9, "key_press": -1, "wordID": 577, "type": "PRES_VIS", "trial_index": 138}, "uniqueid": "MTK3365:3H8DHMCCWAI0SETAP3XHUMJXIHAKDS", "dateTime": 1520451100550}, {"current_trial": 139, "trialdata": {"rt": -1, "trial_type": "single-stim", "word": "friend", "stimulus": "<p id=\"stim\">FRIEND</p>", "conditions": [12, 800, "v", 24000], "internal_node_id": "0.0-103.0", "trial": 3, "time_elapsed": 1433478, "serialpos": 10, "key_press": -1, "wordID": 605, "type": "PRES_VIS", "trial_index": 139}, "uniqueid": "MTK3365:3H8DHMCCWAI0SETAP3XHUMJXIHAKDS", "dateTime": 1520451102433}, {"current_trial": 140, "trialdata": {"rt": -1, "trial_type": "single-stim", "word": "peach", "stimulus": "<p id=\"stim\">PEACH</p>", "conditions": [12, 800, "v", 24000], "internal_node_id": "0.0-104.0", "trial": 3, "time_elapsed": 1435271, "serialpos": 11, "key_press": -1, "wordID": 1030, "type": "PRES_VIS", "trial_index": 140}, "uniqueid": "MTK3365:3H8DHMCCWAI0SETAP3XHUMJXIHAKDS", "dateTime": 1520451104226}, {"current_trial": 141, "trialdata": {"rt": -1, "trial_type": "single-stim", "stimulus": "", "internal_node_id": "0.0-105.0-0.0", "time_elapsed": 1437538, "key_press": -1, "type": "PRE_RECALL_DELAY", "trial_index": 141}, "uniqueid": "MTK3365:3H8DHMCCWAI0SETAP3XHUMJXIHAKDS", "dateTime": 1520451106492}, {"current_trial": 142, "trialdata": {"rt": -1000, "trial_type": "single-audio", "stimulus": "/static/audio/400Hz.wav", "internal_node_id": "0.0-106.0", "time_elapsed": 1438066, "key_press": -1, "type": "PRE_RECALL_ALERT", "trial_index": 142}, "uniqueid": "MTK3365:3H8DHMCCWAI0SETAP3XHUMJXIHAKDS", "dateTime": 1520451107020}, {"current_trial": 143, "trialdata": {"rt": [7169, 17049, 24425, 31244], "recwords": ["onion", "cubbert", "husban", "friend"], "key_times": [3340, 3986, 4528, 4832, 6097, 7169, 10056, 11416, 12624, 15018, 15609, 16025, 16393, 17049, 19514, 20273, 21057, 21934, 22721, 23488, 24425, 26746, 27225, 27918, 28446, 29758, 30259, 31244], "trial_type": "free-recall", "conditions": [12, 800, "v", 24000], "internal_node_id": "0.0-107.0-0.0", "key_presses": [79, 78, 73, 79, 78, 13, 67, 85, 66, 66, 69, 82, 84, 13, 72, 85, 83, 66, 65, 78, 13, 70, 82, 73, 69, 78, 68, 13], "trial": 3, "time_elapsed": 1498086, "type": "FREE_RECALL", "trial_index": 143}, "uniqueid": "MTK3365:3H8DHMCCWAI0SETAP3XHUMJXIHAKDS", "dateTime": 1520451167047}, {"current_trial": 144, "trialdata": {"rt": 5010, "trial_type": "text", "internal_node_id": "0.0-108.0", "time_elapsed": 1505127, "key_press": 32, "type": "INSTRUCTIONS", "trial_index": 144}, "uniqueid": "MTK3365:3H8DHMCCWAI0SETAP3XHUMJXIHAKDS", "dateTime": 1520451174082}, {"current_trial": 145, "trialdata": {"rt": [10164, 15892], "trial_type": "math-distractor", "key_times": [8427, 9203, 10164, 14201, 14796, 15892], "responses": ["15", "17"], "num2": [2, 7, 8], "num3": [4, 1, 5], "conditions": [24, 800, "v", 24000], "internal_node_id": "0.0-109.0", "key_presses": [49, 53, 13, 49, 55, 13], "trial": 4, "time_elapsed": 1531155, "type": "DISTRACTOR", "trial_index": 145, "num1": [9, 9, 7]}, "uniqueid": "MTK3365:3H8DHMCCWAI0SETAP3XHUMJXIHAKDS", "dateTime": 1520451200109}, {"current_trial": 146, "trialdata": {"rt": -1, "trial_type": "single-stim", "stimulus": "<p id=\"stim\">10</p>", "internal_node_id": "0.0-110.0-0.0", "time_elapsed": 1534193, "key_press": -1, "trial_index": 146}, "uniqueid": "MTK3365:3H8DHMCCWAI0SETAP3XHUMJXIHAKDS", "dateTime": 1520451203148}, {"current_trial": 147, "trialdata": {"rt": -1, "trial_type": "single-stim", "stimulus": "<p id=\"stim\">9</p>", "internal_node_id": "0.0-110.0-1.0", "time_elapsed": 1535181, "key_press": -1, "trial_index": 147}, "uniqueid": "MTK3365:3H8DHMCCWAI0SETAP3XHUMJXIHAKDS", "dateTime": 1520451204135}, {"current_trial": 148, "trialdata": {"rt": -1, "trial_type": "single-stim", "stimulus": "<p id=\"stim\">8</p>", "internal_node_id": "0.0-110.0-2.0", "time_elapsed": 1536185, "key_press": -1, "trial_index": 148}, "uniqueid": "MTK3365:3H8DHMCCWAI0SETAP3XHUMJXIHAKDS", "dateTime": 1520451205139}, {"current_trial": 149, "trialdata": {"rt": -1, "trial_type": "single-stim", "stimulus": "<p id=\"stim\">7</p>", "internal_node_id": "0.0-110.0-3.0", "time_elapsed": 1537189, "key_press": -1, "trial_index": 149}, "uniqueid": "MTK3365:3H8DHMCCWAI0SETAP3XHUMJXIHAKDS", "dateTime": 1520451206143}, {"current_trial": 150, "trialdata": {"rt": -1, "trial_type": "single-stim", "stimulus": "<p id=\"stim\">6</p>", "internal_node_id": "0.0-110.0-4.0", "time_elapsed": 1538192, "key_press": -1, "trial_index": 150}, "uniqueid": "MTK3365:3H8DHMCCWAI0SETAP3XHUMJXIHAKDS", "dateTime": 1520451207147}, {"current_trial": 151, "trialdata": {"rt": -1, "trial_type": "single-stim", "stimulus": "<p id=\"stim\">5</p>", "internal_node_id": "0.0-110.0-5.0", "time_elapsed": 1539181, "key_press": -1, "trial_index": 151}, "uniqueid": "MTK3365:3H8DHMCCWAI0SETAP3XHUMJXIHAKDS", "dateTime": 1520451208135}, {"current_trial": 152, "trialdata": {"rt": -1, "trial_type": "single-stim", "stimulus": "<p id=\"stim\">4</p>", "internal_node_id": "0.0-110.0-6.0", "time_elapsed": 1540179, "key_press": -1, "trial_index": 152}, "uniqueid": "MTK3365:3H8DHMCCWAI0SETAP3XHUMJXIHAKDS", "dateTime": 1520451209133}, {"current_trial": 153, "trialdata": {"rt": -1, "trial_type": "single-stim", "stimulus": "<p id=\"stim\">3</p>", "internal_node_id": "0.0-110.0-7.0", "time_elapsed": 1541181, "key_press": -1, "trial_index": 153}, "uniqueid": "MTK3365:3H8DHMCCWAI0SETAP3XHUMJXIHAKDS", "dateTime": 1520451210135}, {"current_trial": 154, "trialdata": {"rt": -1, "trial_type": "single-stim", "stimulus": "<p id=\"stim\">2</p>", "internal_node_id": "0.0-110.0-8.0", "time_elapsed": 1542193, "key_press": -1, "trial_index": 154}, "uniqueid": "MTK3365:3H8DHMCCWAI0SETAP3XHUMJXIHAKDS", "dateTime": 1520451211149}, {"current_trial": 155, "trialdata": {"rt": -1, "trial_type": "single-stim", "stimulus": "<p id=\"stim\">1</p>", "internal_node_id": "0.0-110.0-9.0", "time_elapsed": 1543185, "key_press": -1, "trial_index": 155}, "uniqueid": "MTK3365:3H8DHMCCWAI0SETAP3XHUMJXIHAKDS", "dateTime": 1520451212140}, {"current_trial": 156, "trialdata": {"rt": -1, "trial_type": "single-stim", "stimulus": "<p id=\"stim\">+</p>", "internal_node_id": "0.0-111.0-0.0", "time_elapsed": 1544695, "key_press": -1, "type": "FIXATION", "trial_index": 156}, "uniqueid": "MTK3365:3H8DHMCCWAI0SETAP3XHUMJXIHAKDS", "dateTime": 1520451213650}, {"current_trial": 157, "trialdata": {"rt": -1, "trial_type": "single-stim", "word": "cocktail", "stimulus": "<p id=\"stim\">COCKTAIL</p>", "conditions": [24, 800, "v", 24000], "internal_node_id": "0.0-112.0", "trial": 4, "time_elapsed": 1545518, "serialpos": 0, "key_press": -1, "wordID": 337, "type": "PRES_VIS", "trial_index": 157}, "uniqueid": "MTK3365:3H8DHMCCWAI0SETAP3XHUMJXIHAKDS", "dateTime": 1520451214473}, {"current_trial": 158, "trialdata": {"rt": -1, "trial_type": "single-stim", "word": "mailbox", "stimulus": "<p id=\"stim\">MAILBOX</p>", "conditions": [24, 800, "v", 24000], "internal_node_id": "0.0-113.0", "trial": 4, "time_elapsed": 1547403, "serialpos": 1, "key_press": -1, "wordID": 856, "type": "PRES_VIS", "trial_index": 158}, "uniqueid": "MTK3365:3H8DHMCCWAI0SETAP3XHUMJXIHAKDS", "dateTime": 1520451216358}, {"current_trial": 159, "trialdata": {"rt": -1, "trial_type": "single-stim", "word": "champagne", "stimulus": "<p id=\"stim\">CHAMPAGNE</p>", "conditions": [24, 800, "v", 24000], "internal_node_id": "0.0-114.0", "trial": 4, "time_elapsed": 1549371, "serialpos": 2, "key_press": -1, "wordID": 277, "type": "PRES_VIS", "trial_index": 159}, "uniqueid": "MTK3365:3H8DHMCCWAI0SETAP3XHUMJXIHAKDS", "dateTime": 1520451218325}, {"current_trial": 160, "trialdata": {"rt": -1, "trial_type": "single-stim", "word": "sausage", "stimulus": "<p id=\"stim\">SAUSAGE</p>", "conditions": [24, 800, "v", 24000], "internal_node_id": "0.0-115.0", "trial": 4, "time_elapsed": 1551365, "serialpos": 3, "key_press": -1, "wordID": 1237, "type": "PRES_VIS", "trial_index": 160}, "uniqueid": "MTK3365:3H8DHMCCWAI0SETAP3XHUMJXIHAKDS", "dateTime": 1520451220321}, {"current_trial": 161, "trialdata": {"rt": -1, "trial_type": "single-stim", "word": "asia", "stimulus": "<p id=\"stim\">ASIA</p>", "conditions": [24, 800, "v", 24000], "internal_node_id": "0.0-116.0", "trial": 4, "time_elapsed": 1553322, "serialpos": 4, "key_press": -1, "wordID": 45, "type": "PRES_VIS", "trial_index": 161}, "uniqueid": "MTK3365:3H8DHMCCWAI0SETAP3XHUMJXIHAKDS", "dateTime": 1520451222277}, {"current_trial": 162, "trialdata": {"rt": -1, "trial_type": "single-stim", "word": "outlaw", "stimulus": "<p id=\"stim\">OUTLAW</p>", "conditions": [24, 800, "v", 24000], "internal_node_id": "0.0-117.0", "trial": 4, "time_elapsed": 1555056, "serialpos": 5, "key_press": -1, "wordID": 988, "type": "PRES_VIS", "trial_index": 162}, "uniqueid": "MTK3365:3H8DHMCCWAI0SETAP3XHUMJXIHAKDS", "dateTime": 1520451224010}, {"current_trial": 163, "trialdata": {"rt": -1, "trial_type": "single-stim", "word": "journal", "stimulus": "<p id=\"stim\">JOURNAL</p>", "conditions": [24, 800, "v", 24000], "internal_node_id": "0.0-118.0", "trial": 4, "time_elapsed": 1556782, "serialpos": 6, "key_press": -1, "wordID": 759, "type": "PRES_VIS", "trial_index": 163}, "uniqueid": "MTK3365:3H8DHMCCWAI0SETAP3XHUMJXIHAKDS", "dateTime": 1520451225736}, {"current_trial": 164, "trialdata": {"rt": -1, "trial_type": "single-stim", "word": "japan", "stimulus": "<p id=\"stim\">JAPAN</p>", "conditions": [24, 800, "v", 24000], "internal_node_id": "0.0-119.0", "trial": 4, "time_elapsed": 1558382, "serialpos": 7, "key_press": -1, "wordID": 748, "type": "PRES_VIS", "trial_index": 164}, "uniqueid": "MTK3365:3H8DHMCCWAI0SETAP3XHUMJXIHAKDS", "dateTime": 1520451227336}, {"current_trial": 165, "trialdata": {"rt": -1, "trial_type": "single-stim", "word": "rooster", "stimulus": "<p id=\"stim\">ROOSTER</p>", "conditions": [24, 800, "v", 24000], "internal_node_id": "0.0-120.0", "trial": 4, "time_elapsed": 1560127, "serialpos": 8, "key_press": -1, "wordID": 1208, "type": "PRES_VIS", "trial_index": 165}, "uniqueid": "MTK3365:3H8DHMCCWAI0SETAP3XHUMJXIHAKDS", "dateTime": 1520451229081}, {"current_trial": 166, "trialdata": {"rt": -1, "trial_type": "single-stim", "word": "panther", "stimulus": "<p id=\"stim\">PANTHER</p>", "conditions": [24, 800, "v", 24000], "internal_node_id": "0.0-121.0", "trial": 4, "time_elapsed": 1562100, "serialpos": 9, "key_press": -1, "wordID": 1008, "type": "PRES_VIS", "trial_index": 166}, "uniqueid": "MTK3365:3H8DHMCCWAI0SETAP3XHUMJXIHAKDS", "dateTime": 1520451231054}, {"current_trial": 167, "trialdata": {"rt": -1, "trial_type": "single-stim", "word": "victim", "stimulus": "<p id=\"stim\">VICTIM</p>", "conditions": [24, 800, "v", 24000], "internal_node_id": "0.0-122.0", "trial": 4, "time_elapsed": 1563770, "serialpos": 10, "key_press": -1, "wordID": 1561, "type": "PRES_VIS", "trial_index": 167}, "uniqueid": "MTK3365:3H8DHMCCWAI0SETAP3XHUMJXIHAKDS", "dateTime": 1520451232724}, {"current_trial": 168, "trialdata": {"rt": -1, "trial_type": "single-stim", "word": "woman", "stimulus": "<p id=\"stim\">WOMAN</p>", "conditions": [24, 800, "v", 24000], "internal_node_id": "0.0-123.0", "trial": 4, "time_elapsed": 1565677, "serialpos": 11, "key_press": -1, "wordID": 1619, "type": "PRES_VIS", "trial_index": 168}, "uniqueid": "MTK3365:3H8DHMCCWAI0SETAP3XHUMJXIHAKDS", "dateTime": 1520451234631}, {"current_trial": 169, "trialdata": {"rt": -1, "trial_type": "single-stim", "word": "doughnut", "stimulus": "<p id=\"stim\">DOUGHNUT</p>", "conditions": [24, 800, "v", 24000], "internal_node_id": "0.0-124.0", "trial": 4, "time_elapsed": 1567662, "serialpos": 12, "key_press": -1, "wordID": 489, "type": "PRES_VIS", "trial_index": 169}, "uniqueid": "MTK3365:3H8DHMCCWAI0SETAP3XHUMJXIHAKDS", "dateTime": 1520451236616}, {"current_trial": 170, "trialdata": {"rt": -1, "trial_type": "single-stim", "word": "basement", "stimulus": "<p id=\"stim\">BASEMENT</p>", "conditions": [24, 800, "v", 24000], "internal_node_id": "0.0-125.0", "trial": 4, "time_elapsed": 1569595, "serialpos": 13, "key_press": -1, "wordID": 93, "type": "PRES_VIS", "trial_index": 170}, "uniqueid": "MTK3365:3H8DHMCCWAI0SETAP3XHUMJXIHAKDS", "dateTime": 1520451238551}, {"current_trial": 171, "trialdata": {"rt": -1, "trial_type": "single-stim", "word": "flower", "stimulus": "<p id=\"stim\">FLOWER</p>", "conditions": [24, 800, "v", 24000], "internal_node_id": "0.0-126.0", "trial": 4, "time_elapsed": 1571449, "serialpos": 14, "key_press": -1, "wordID": 583, "type": "PRES_VIS", "trial_index": 171}, "uniqueid": "MTK3365:3H8DHMCCWAI0SETAP3XHUMJXIHAKDS", "dateTime": 1520451240404}, {"current_trial": 172, "trialdata": {"rt": -1, "trial_type": "single-stim", "word": "powder", "stimulus": "<p id=\"stim\">POWDER</p>", "conditions": [24, 800, "v", 24000], "internal_node_id": "0.0-127.0", "trial": 4, "time_elapsed": 1573228, "serialpos": 15, "key_press": -1, "wordID": 1116, "type": "PRES_VIS", "trial_index": 172}, "uniqueid": "MTK3365:3H8DHMCCWAI0SETAP3XHUMJXIHAKDS", "dateTime": 1520451242182}, {"current_trial": 173, "trialdata": {"rt": -1, "trial_type": "single-stim", "word": "chest", "stimulus": "<p id=\"stim\">CHEST</p>", "conditions": [24, 800, "v", 24000], "internal_node_id": "0.0-128.0", "trial": 4, "time_elapsed": 1574978, "serialpos": 16, "key_press": -1, "wordID": 294, "type": "PRES_VIS", "trial_index": 173}, "uniqueid": "MTK3365:3H8DHMCCWAI0SETAP3XHUMJXIHAKDS", "dateTime": 1520451243934}, {"current_trial": 174, "trialdata": {"rt": -1, "trial_type": "single-stim", "word": "stomach", "stimulus": "<p id=\"stim\">STOMACH</p>", "conditions": [24, 800, "v", 24000], "internal_node_id": "0.0-129.0", "trial": 4, "time_elapsed": 1576928, "serialpos": 17, "key_press": -1, "wordID": 1383, "type": "PRES_VIS", "trial_index": 174}, "uniqueid": "MTK3365:3H8DHMCCWAI0SETAP3XHUMJXIHAKDS", "dateTime": 1520451245882}, {"current_trial": 175, "trialdata": {"rt": -1, "trial_type": "single-stim", "word": "elbow", "stimulus": "<p id=\"stim\">ELBOW</p>", "conditions": [24, 800, "v", 24000], "internal_node_id": "0.0-130.0", "trial": 4, "time_elapsed": 1578684, "serialpos": 18, "key_press": -1, "wordID": 519, "type": "PRES_VIS", "trial_index": 175}, "uniqueid": "MTK3365:3H8DHMCCWAI0SETAP3XHUMJXIHAKDS", "dateTime": 1520451247639}, {"current_trial": 176, "trialdata": {"rt": -1, "trial_type": "single-stim", "word": "spider", "stimulus": "<p id=\"stim\">SPIDER</p>", "conditions": [24, 800, "v", 24000], "internal_node_id": "0.0-131.0", "trial": 4, "time_elapsed": 1580552, "serialpos": 19, "key_press": -1, "wordID": 1350, "type": "PRES_VIS", "trial_index": 176}, "uniqueid": "MTK3365:3H8DHMCCWAI0SETAP3XHUMJXIHAKDS", "dateTime": 1520451249507}, {"current_trial": 177, "trialdata": {"rt": -1, "trial_type": "single-stim", "word": "pepper", "stimulus": "<p id=\"stim\">PEPPER</p>", "conditions": [24, 800, "v", 24000], "internal_node_id": "0.0-132.0", "trial": 4, "time_elapsed": 1582501, "serialpos": 20, "key_press": -1, "wordID": 1046, "type": "PRES_VIS", "trial_index": 177}, "uniqueid": "MTK3365:3H8DHMCCWAI0SETAP3XHUMJXIHAKDS", "dateTime": 1520451251455}, {"current_trial": 178, "trialdata": {"rt": -1, "trial_type": "single-stim", "word": "staple", "stimulus": "<p id=\"stim\">STAPLE</p>", "conditions": [24, 800, "v", 24000], "internal_node_id": "0.0-133.0", "trial": 4, "time_elapsed": 1584508, "serialpos": 21, "key_press": -1, "wordID": 1370, "type": "PRES_VIS", "trial_index": 178}, "uniqueid": "MTK3365:3H8DHMCCWAI0SETAP3XHUMJXIHAKDS", "dateTime": 1520451253463}, {"current_trial": 179, "trialdata": {"rt": -1, "trial_type": "single-stim", "word": "drug", "stimulus": "<p id=\"stim\">DRUG</p>", "conditions": [24, 800, "v", 24000], "internal_node_id": "0.0-134.0", "trial": 4, "time_elapsed": 1586515, "serialpos": 22, "key_press": -1, "wordID": 500, "type": "PRES_VIS", "trial_index": 179}, "uniqueid": "MTK3365:3H8DHMCCWAI0SETAP3XHUMJXIHAKDS", "dateTime": 1520451255469}, {"current_trial": 180, "trialdata": {"rt": -1, "trial_type": "single-stim", "word": "leg", "stimulus": "<p id=\"stim\">LEG</p>", "conditions": [24, 800, "v", 24000], "internal_node_id": "0.0-135.0", "trial": 4, "time_elapsed": 1588282, "serialpos": 23, "key_press": -1, "wordID": 808, "type": "PRES_VIS", "trial_index": 180}, "uniqueid": "MTK3365:3H8DHMCCWAI0SETAP3XHUMJXIHAKDS", "dateTime": 1520451257237}, {"current_trial": 181, "trialdata": {"rt": -1, "trial_type": "single-stim", "stimulus": "", "internal_node_id": "0.0-136.0-0.0", "time_elapsed": 1590585, "key_press": -1, "type": "PRE_RECALL_DELAY", "trial_index": 181}, "uniqueid": "MTK3365:3H8DHMCCWAI0SETAP3XHUMJXIHAKDS", "dateTime": 1520451259539}, {"current_trial": 182, "trialdata": {"rt": -1000, "trial_type": "single-audio", "stimulus": "/static/audio/400Hz.wav", "internal_node_id": "0.0-137.0", "time_elapsed": 1591104, "key_press": -1, "type": "PRE_RECALL_ALERT", "trial_index": 182}, "uniqueid": "MTK3365:3H8DHMCCWAI0SETAP3XHUMJXIHAKDS", "dateTime": 1520451260058}, {"current_trial": 183, "trialdata": {"rt": [13342, 22715, 28569, 38375, 46209, 59728], "recwords": ["callell", "shampain", "asia", "rouster", "painter", "dounet"], "key_times": [3752, 4654, 5847, 6174, 7290, 11759, 11950, 13342, 15375, 16334, 16870, 17376, 17887, 19470, 20670, 21825, 22715, 24536, 25563, 27188, 27714, 28569, 32821, 34106, 35112, 35984, 36616, 37184, 37484, 38375, 41345, 42120, 42624, 43319, 44311, 44920, 45225, 46209, 50304, 50928, 51439, 53210, 55384, 57807, 59728], "trial_type": "free-recall", "conditions": [24, 800, "v", 24000], "internal_node_id": "0.0-138.0-0.0", "key_presses": [67, 65, 76, 76, 69, 76, 76, 13, 83, 72, 65, 77, 80, 65, 73, 78, 13, 65, 83, 73, 65, 13, 82, 79, 85, 83, 84, 69, 82, 13, 80, 65, 73, 78, 84, 69, 82, 13, 68, 79, 85, 78, 69, 84, 13], "trial": 4, "time_elapsed": 1651127, "type": "FREE_RECALL", "trial_index": 183}, "uniqueid": "MTK3365:3H8DHMCCWAI0SETAP3XHUMJXIHAKDS", "dateTime": 1520451320091}, {"current_trial": 184, "trialdata": {"rt": 370, "trial_type": "text", "internal_node_id": "0.0-139.0", "time_elapsed": 1653512, "key_press": 80, "type": "INSTRUCTIONS", "trial_index": 184}, "uniqueid": "MTK3365:3H8DHMCCWAI0SETAP3XHUMJXIHAKDS", "dateTime": 1520451322466}, {"current_trial": 185, "trialdata": {"rt": [4579], "trial_type": "math-distractor", "key_times": [1079, 1767, 2695, 3062, 4579], "responses": ["wdes"], "num2": [8, 4], "num3": [8, 7], "conditions": [24, 800, "v", 12000], "internal_node_id": "0.0-140.0", "key_presses": [87, 68, 69, 83, 13], "trial": 5, "time_elapsed": 1667551, "type": "DISTRACTOR", "trial_index": 185, "num1": [5, 9]}, "uniqueid": "MTK3365:3H8DHMCCWAI0SETAP3XHUMJXIHAKDS", "dateTime": 1520451336506}, {"current_trial": 186, "trialdata": {"rt": -1, "trial_type": "single-stim", "stimulus": "<p id=\"stim\">10</p>", "internal_node_id": "0.0-141.0-0.0", "time_elapsed": 1670606, "key_press": -1, "trial_index": 186}, "uniqueid": "MTK3365:3H8DHMCCWAI0SETAP3XHUMJXIHAKDS", "dateTime": 1520451339561}, {"current_trial": 187, "trialdata": {"rt": -1, "trial_type": "single-stim", "stimulus": "<p id=\"stim\">9</p>", "internal_node_id": "0.0-141.0-1.0", "time_elapsed": 1671600, "key_press": -1, "trial_index": 187}, "uniqueid": "MTK3365:3H8DHMCCWAI0SETAP3XHUMJXIHAKDS", "dateTime": 1520451340555}, {"current_trial": 188, "trialdata": {"rt": -1, "trial_type": "single-stim", "stimulus": "<p id=\"stim\">8</p>", "internal_node_id": "0.0-141.0-2.0", "time_elapsed": 1672601, "key_press": -1, "trial_index": 188}, "uniqueid": "MTK3365:3H8DHMCCWAI0SETAP3XHUMJXIHAKDS", "dateTime": 1520451341555}, {"current_trial": 189, "trialdata": {"rt": -1, "trial_type": "single-stim", "stimulus": "<p id=\"stim\">7</p>", "internal_node_id": "0.0-141.0-3.0", "time_elapsed": 1673602, "key_press": -1, "trial_index": 189}, "uniqueid": "MTK3365:3H8DHMCCWAI0SETAP3XHUMJXIHAKDS", "dateTime": 1520451342557}, {"current_trial": 190, "trialdata": {"rt": -1, "trial_type": "single-stim", "stimulus": "<p id=\"stim\">6</p>", "internal_node_id": "0.0-141.0-4.0", "time_elapsed": 1674600, "key_press": -1, "trial_index": 190}, "uniqueid": "MTK3365:3H8DHMCCWAI0SETAP3XHUMJXIHAKDS", "dateTime": 1520451343555}, {"current_trial": 191, "trialdata": {"rt": -1, "trial_type": "single-stim", "stimulus": "<p id=\"stim\">5</p>", "internal_node_id": "0.0-141.0-5.0", "time_elapsed": 1675582, "key_press": -1, "trial_index": 191}, "uniqueid": "MTK3365:3H8DHMCCWAI0SETAP3XHUMJXIHAKDS", "dateTime": 1520451344537}, {"current_trial": 192, "trialdata": {"rt": -1, "trial_type": "single-stim", "stimulus": "<p id=\"stim\">4</p>", "internal_node_id": "0.0-141.0-6.0", "time_elapsed": 1676583, "key_press": -1, "trial_index": 192}, "uniqueid": "MTK3365:3H8DHMCCWAI0SETAP3XHUMJXIHAKDS", "dateTime": 1520451345538}, {"current_trial": 193, "trialdata": {"rt": -1, "trial_type": "single-stim", "stimulus": "<p id=\"stim\">3</p>", "internal_node_id": "0.0-141.0-7.0", "time_elapsed": 1677596, "key_press": -1, "trial_index": 193}, "uniqueid": "MTK3365:3H8DHMCCWAI0SETAP3XHUMJXIHAKDS", "dateTime": 1520451346551}, {"current_trial": 194, "trialdata": {"rt": -1, "trial_type": "single-stim", "stimulus": "<p id=\"stim\">2</p>", "internal_node_id": "0.0-141.0-8.0", "time_elapsed": 1678607, "key_press": -1, "trial_index": 194}, "uniqueid": "MTK3365:3H8DHMCCWAI0SETAP3XHUMJXIHAKDS", "dateTime": 1520451347562}, {"current_trial": 195, "trialdata": {"rt": -1, "trial_type": "single-stim", "stimulus": "<p id=\"stim\">1</p>", "internal_node_id": "0.0-141.0-9.0", "time_elapsed": 1679600, "key_press": -1, "trial_index": 195}, "uniqueid": "MTK3365:3H8DHMCCWAI0SETAP3XHUMJXIHAKDS", "dateTime": 1520451348554}, {"current_trial": 196, "trialdata": {"rt": -1, "trial_type": "single-stim", "stimulus": "<p id=\"stim\">+</p>", "internal_node_id": "0.0-142.0-0.0", "time_elapsed": 1681121, "key_press": -1, "type": "FIXATION", "trial_index": 196}, "uniqueid": "MTK3365:3H8DHMCCWAI0SETAP3XHUMJXIHAKDS", "dateTime": 1520451350075}, {"current_trial": 197, "trialdata": {"rt": -1, "trial_type": "single-stim", "word": "motel", "stimulus": "<p id=\"stim\">MOTEL</p>", "conditions": [24, 800, "v", 12000], "internal_node_id": "0.0-143.0", "trial": 5, "time_elapsed": 1681931, "serialpos": 0, "key_press": -1, "wordID": 918, "type": "PRES_VIS", "trial_index": 197}, "uniqueid": "MTK3365:3H8DHMCCWAI0SETAP3XHUMJXIHAKDS", "dateTime": 1520451350886}, {"current_trial": 198, "trialdata": {"rt": -1, "trial_type": "single-stim", "word": "lion", "stimulus": "<p id=\"stim\">LION</p>", "conditions": [24, 800, "v", 12000], "internal_node_id": "0.0-144.0", "trial": 5, "time_elapsed": 1683847, "serialpos": 1, "key_press": -1, "wordID": 826, "type": "PRES_VIS", "trial_index": 198}, "uniqueid": "MTK3365:3H8DHMCCWAI0SETAP3XHUMJXIHAKDS", "dateTime": 1520451352801}, {"current_trial": 199, "trialdata": {"rt": -1, "trial_type": "single-stim", "word": "river", "stimulus": "<p id=\"stim\">RIVER</p>", "conditions": [24, 800, "v", 12000], "internal_node_id": "0.0-145.0", "trial": 5, "time_elapsed": 1685584, "serialpos": 2, "key_press": -1, "wordID": 1193, "type": "PRES_VIS", "trial_index": 199}, "uniqueid": "MTK3365:3H8DHMCCWAI0SETAP3XHUMJXIHAKDS", "dateTime": 1520451354539}, {"current_trial": 200, "trialdata": {"rt": -1, "trial_type": "single-stim", "word": "brook", "stimulus": "<p id=\"stim\">BROOK</p>", "conditions": [24, 800, "v", 12000], "internal_node_id": "0.0-146.0", "trial": 5, "time_elapsed": 1687610, "serialpos": 3, "key_press": -1, "wordID": 176, "type": "PRES_VIS", "trial_index": 200}, "uniqueid": "MTK3365:3H8DHMCCWAI0SETAP3XHUMJXIHAKDS", "dateTime": 1520451356565}, {"current_trial": 201, "trialdata": {"rt": -1, "trial_type": "single-stim", "word": "marrow", "stimulus": "<p id=\"stim\">MARROW</p>", "conditions": [24, 800, "v", 12000], "internal_node_id": "0.0-147.0", "trial": 5, "time_elapsed": 1689627, "serialpos": 4, "key_press": -1, "wordID": 871, "type": "PRES_VIS", "trial_index": 201}, "uniqueid": "MTK3365:3H8DHMCCWAI0SETAP3XHUMJXIHAKDS", "dateTime": 1520451358581}, {"current_trial": 202, "trialdata": {"rt": -1, "trial_type": "single-stim", "word": "twig", "stimulus": "<p id=\"stim\">TWIG</p>", "conditions": [24, 800, "v", 12000], "internal_node_id": "0.0-148.0", "trial": 5, "time_elapsed": 1691466, "serialpos": 5, "key_press": -1, "wordID": 1526, "type": "PRES_VIS", "trial_index": 202}, "uniqueid": "MTK3365:3H8DHMCCWAI0SETAP3XHUMJXIHAKDS", "dateTime": 1520451360422}, {"current_trial": 203, "trialdata": {"rt": -1, "trial_type": "single-stim", "word": "student", "stimulus": "<p id=\"stim\">STUDENT</p>", "conditions": [24, 800, "v", 12000], "internal_node_id": "0.0-149.0", "trial": 5, "time_elapsed": 1693206, "serialpos": 6, "key_press": -1, "wordID": 1394, "type": "PRES_VIS", "trial_index": 203}, "uniqueid": "MTK3365:3H8DHMCCWAI0SETAP3XHUMJXIHAKDS", "dateTime": 1520451362162}, {"current_trial": 204, "trialdata": {"rt": -1, "trial_type": "single-stim", "word": "cobra", "stimulus": "<p id=\"stim\">COBRA</p>", "conditions": [24, 800, "v", 12000], "internal_node_id": "0.0-150.0", "trial": 5, "time_elapsed": 1695146, "serialpos": 7, "key_press": -1, "wordID": 335, "type": "PRES_VIS", "trial_index": 204}, "uniqueid": "MTK3365:3H8DHMCCWAI0SETAP3XHUMJXIHAKDS", "dateTime": 1520451364101}, {"current_trial": 205, "trialdata": {"rt": -1, "trial_type": "single-stim", "word": "shark", "stimulus": "<p id=\"stim\">SHARK</p>", "conditions": [24, 800, "v", 12000], "internal_node_id": "0.0-151.0", "trial": 5, "time_elapsed": 1696798, "serialpos": 8, "key_press": -1, "wordID": 1274, "type": "PRES_VIS", "trial_index": 205}, "uniqueid": "MTK3365:3H8DHMCCWAI0SETAP3XHUMJXIHAKDS", "dateTime": 1520451365754}, {"current_trial": 206, "trialdata": {"rt": -1, "trial_type": "single-stim", "word": "daughter", "stimulus": "<p id=\"stim\">DAUGHTER</p>", "conditions": [24, 800, "v", 12000], "internal_node_id": "0.0-152.0", "trial": 5, "time_elapsed": 1698640, "serialpos": 9, "key_press": -1, "wordID": 441, "type": "PRES_VIS", "trial_index": 206}, "uniqueid": "MTK3365:3H8DHMCCWAI0SETAP3XHUMJXIHAKDS", "dateTime": 1520451367596}, {"current_trial": 207, "trialdata": {"rt": -1, "trial_type": "single-stim", "word": "hatchet", "stimulus": "<p id=\"stim\">HATCHET</p>", "conditions": [24, 800, "v", 12000], "internal_node_id": "0.0-153.0", "trial": 5, "time_elapsed": 1700478, "serialpos": 10, "key_press": -1, "wordID": 690, "type": "PRES_VIS", "trial_index": 207}, "uniqueid": "MTK3365:3H8DHMCCWAI0SETAP3XHUMJXIHAKDS", "dateTime": 1520451369433}, {"current_trial": 208, "trialdata": {"rt": -1, "trial_type": "single-stim", "word": "liver", "stimulus": "<p id=\"stim\">LIVER</p>", "conditions": [24, 800, "v", 12000], "internal_node_id": "0.0-154.0", "trial": 5, "time_elapsed": 1702367, "serialpos": 11, "key_press": -1, "wordID": 832, "type": "PRES_VIS", "trial_index": 208}, "uniqueid": "MTK3365:3H8DHMCCWAI0SETAP3XHUMJXIHAKDS", "dateTime": 1520451371322}, {"current_trial": 209, "trialdata": {"rt": -1, "trial_type": "single-stim", "word": "ointment", "stimulus": "<p id=\"stim\">OINTMENT</p>", "conditions": [24, 800, "v", 12000], "internal_node_id": "0.0-155.0", "trial": 5, "time_elapsed": 1704049, "serialpos": 12, "key_press": -1, "wordID": 973, "type": "PRES_VIS", "trial_index": 209}, "uniqueid": "MTK3365:3H8DHMCCWAI0SETAP3XHUMJXIHAKDS", "dateTime": 1520451373004}, {"current_trial": 210, "trialdata": {"rt": -1, "trial_type": "single-stim", "word": "possum", "stimulus": "<p id=\"stim\">POSSUM</p>", "conditions": [24, 800, "v", 12000], "internal_node_id": "0.0-156.0", "trial": 5, "time_elapsed": 1706028, "serialpos": 13, "key_press": -1, "wordID": 1111, "type": "PRES_VIS", "trial_index": 210}, "uniqueid": "MTK3365:3H8DHMCCWAI0SETAP3XHUMJXIHAKDS", "dateTime": 1520451374982}, {"current_trial": 211, "trialdata": {"rt": -1, "trial_type": "single-stim", "word": "shrub", "stimulus": "<p id=\"stim\">SHRUB</p>", "conditions": [24, 800, "v", 12000], "internal_node_id": "0.0-157.0", "trial": 5, "time_elapsed": 1707893, "serialpos": 14, "key_press": -1, "wordID": 1298, "type": "PRES_VIS", "trial_index": 211}, "uniqueid": "MTK3365:3H8DHMCCWAI0SETAP3XHUMJXIHAKDS", "dateTime": 1520451376848}, {"current_trial": 212, "trialdata": {"rt": -1, "trial_type": "single-stim", "word": "lily", "stimulus": "<p id=\"stim\">LILY</p>", "conditions": [24, 800, "v", 12000], "internal_node_id": "0.0-158.0", "trial": 5, "time_elapsed": 1709847, "serialpos": 15, "key_press": -1, "wordID": 820, "type": "PRES_VIS", "trial_index": 212}, "uniqueid": "MTK3365:3H8DHMCCWAI0SETAP3XHUMJXIHAKDS", "dateTime": 1520451378802}, {"current_trial": 213, "trialdata": {"rt": -1, "trial_type": "single-stim", "word": "hostess", "stimulus": "<p id=\"stim\">HOSTESS</p>", "conditions": [24, 800, "v", 12000], "internal_node_id": "0.0-159.0", "trial": 5, "time_elapsed": 1711718, "serialpos": 16, "key_press": -1, "wordID": 722, "type": "PRES_VIS", "trial_index": 213}, "uniqueid": "MTK3365:3H8DHMCCWAI0SETAP3XHUMJXIHAKDS", "dateTime": 1520451380673}, {"current_trial": 214, "trialdata": {"rt": -1, "trial_type": "single-stim", "word": "fox", "stimulus": "<p id=\"stim\">FOX</p>", "conditions": [24, 800, "v", 12000], "internal_node_id": "0.0-160.0", "trial": 5, "time_elapsed": 1713471, "serialpos": 17, "key_press": -1, "wordID": 597, "type": "PRES_VIS", "trial_index": 214}, "uniqueid": "MTK3365:3H8DHMCCWAI0SETAP3XHUMJXIHAKDS", "dateTime": 1520451382425}, {"current_trial": 215, "trialdata": {"rt": -1, "trial_type": "single-stim", "word": "whiskers", "stimulus": "<p id=\"stim\">WHISKERS</p>", "conditions": [24, 800, "v", 12000], "internal_node_id": "0.0-161.0", "trial": 5, "time_elapsed": 1715194, "serialpos": 18, "key_press": -1, "wordID": 1604, "type": "PRES_VIS", "trial_index": 215}, "uniqueid": "MTK3365:3H8DHMCCWAI0SETAP3XHUMJXIHAKDS", "dateTime": 1520451384151}, {"current_trial": 216, "trialdata": {"rt": -1, "trial_type": "single-stim", "word": "gift", "stimulus": "<p id=\"stim\">GIFT</p>", "conditions": [24, 800, "v", 12000], "internal_node_id": "0.0-162.0", "trial": 5, "time_elapsed": 1716855, "serialpos": 19, "key_press": -1, "wordID": 634, "type": "PRES_VIS", "trial_index": 216}, "uniqueid": "MTK3365:3H8DHMCCWAI0SETAP3XHUMJXIHAKDS", "dateTime": 1520451385809}, {"current_trial": 217, "trialdata": {"rt": -1, "trial_type": "single-stim", "word": "lunch", "stimulus": "<p id=\"stim\">LUNCH</p>", "conditions": [24, 800, "v", 12000], "internal_node_id": "0.0-163.0", "trial": 5, "time_elapsed": 1718581, "serialpos": 20, "key_press": -1, "wordID": 848, "type": "PRES_VIS", "trial_index": 217}, "uniqueid": "MTK3365:3H8DHMCCWAI0SETAP3XHUMJXIHAKDS", "dateTime": 1520451387536}, {"current_trial": 218, "trialdata": {"rt": -1, "trial_type": "single-stim", "word": "tuba", "stimulus": "<p id=\"stim\">TUBA</p>", "conditions": [24, 800, "v", 12000], "internal_node_id": "0.0-164.0", "trial": 5, "time_elapsed": 1720372, "serialpos": 21, "key_press": -1, "wordID": 1514, "type": "PRES_VIS", "trial_index": 218}, "uniqueid": "MTK3365:3H8DHMCCWAI0SETAP3XHUMJXIHAKDS", "dateTime": 1520451389326}, {"current_trial": 219, "trialdata": {"rt": -1, "trial_type": "single-stim", "word": "playground", "stimulus": "<p id=\"stim\">PLAYGROUND</p>", "conditions": [24, 800, "v", 12000], "internal_node_id": "0.0-165.0", "trial": 5, "time_elapsed": 1722090, "serialpos": 22, "key_press": -1, "wordID": 1086, "type": "PRES_VIS", "trial_index": 219}, "uniqueid": "MTK3365:3H8DHMCCWAI0SETAP3XHUMJXIHAKDS", "dateTime": 1520451391044}, {"current_trial": 220, "trialdata": {"rt": -1, "trial_type": "single-stim", "word": "frame", "stimulus": "<p id=\"stim\">FRAME</p>", "conditions": [24, 800, "v", 12000], "internal_node_id": "0.0-166.0", "trial": 5, "time_elapsed": 1724039, "serialpos": 23, "key_press": -1, "wordID": 599, "type": "PRES_VIS", "trial_index": 220}, "uniqueid": "MTK3365:3H8DHMCCWAI0SETAP3XHUMJXIHAKDS", "dateTime": 1520451392994}, {"current_trial": 221, "trialdata": {"rt": -1, "trial_type": "single-stim", "stimulus": "", "internal_node_id": "0.0-167.0-0.0", "time_elapsed": 1726295, "key_press": -1, "type": "PRE_RECALL_DELAY", "trial_index": 221}, "uniqueid": "MTK3365:3H8DHMCCWAI0SETAP3XHUMJXIHAKDS", "dateTime": 1520451395250}, {"current_trial": 222, "trialdata": {"rt": -1000, "trial_type": "single-audio", "stimulus": "/static/audio/400Hz.wav", "internal_node_id": "0.0-168.0", "time_elapsed": 1726807, "key_press": -1, "type": "PRE_RECALL_ALERT", "trial_index": 222}, "uniqueid": "MTK3365:3H8DHMCCWAI0SETAP3XHUMJXIHAKDS", "dateTime": 1520451395762}, {"current_trial": 223, "trialdata": {"rt": [6659, 13619, 23628, 30999, 41574, 53236, 53957, 58783], "recwords": ["motel", "river", "twig", "shark", "daughter", "possum", "", "fox"], "key_times": [2381, 3563, 4812, 5260, 6092, 6659, 8892, 10187, 11676, 12163, 12589, 13619, 16269, 17372, 18004, 18813, 19334, 19884, 21372, 22787, 23628, 26141, 27396, 28092, 29044, 30052, 30999, 33253, 33757, 34924, 36957, 37348, 38180, 39013, 39532, 40252, 40524, 41574, 45581, 48045, 48852, 49196, 51598, 52261, 53236, 53957, 55037, 55597, 57399, 58783], "trial_type": "free-recall", "conditions": [24, 800, "v", 12000], "internal_node_id": "0.0-169.0-0.0", "key_presses": [77, 79, 84, 69, 76, 13, 82, 73, 86, 69, 82, 13, 69, 8, 89, 8, 84, 87, 73, 71, 13, 83, 72, 65, 82, 75, 13, 68, 65, 89, 8, 85, 71, 72, 84, 69, 82, 13, 80, 79, 83, 83, 85, 77, 13, 32, 70, 79, 88, 13], "trial": 5, "time_elapsed": 1786820, "type": "FREE_RECALL", "trial_index": 223}, "uniqueid": "MTK3365:3H8DHMCCWAI0SETAP3XHUMJXIHAKDS", "dateTime": 1520451455785}, {"current_trial": 224, "trialdata": {"rt": 870, "trial_type": "text", "internal_node_id": "0.0-170.0", "time_elapsed": 1789715, "key_press": 73, "type": "INSTRUCTIONS", "trial_index": 224}, "uniqueid": "MTK3365:3H8DHMCCWAI0SETAP3XHUMJXIHAKDS", "dateTime": 1520451458670}, {"current_trial": 225, "trialdata": {"rt": [562, 5987], "trial_type": "math-distractor", "key_times": [562, 1619, 2378, 3146, 3869, 5179, 5987, 10868, 11571], "responses": ["", "lunch"], "num2": [9, 8, 8], "num3": [5, 1, 5], "conditions": [24, 800, "v", 12000], "internal_node_id": "0.0-171.0", "key_presses": [13, 76, 85, 78, 67, 72, 13, 49, 54], "trial": 6, "time_elapsed": 1803741, "type": "DISTRACTOR", "trial_index": 225, "num1": [2, 6, 4]}, "uniqueid": "MTK3365:3H8DHMCCWAI0SETAP3XHUMJXIHAKDS", "dateTime": 1520451472695}, {"current_trial": 226, "trialdata": {"rt": -1, "trial_type": "single-stim", "stimulus": "<p id=\"stim\">10</p>", "internal_node_id": "0.0-172.0-0.0", "time_elapsed": 1806761, "key_press": -1, "trial_index": 226}, "uniqueid": "MTK3365:3H8DHMCCWAI0SETAP3XHUMJXIHAKDS", "dateTime": 1520451475715}, {"current_trial": 227, "trialdata": {"rt": -1, "trial_type": "single-stim", "stimulus": "<p id=\"stim\">9</p>", "internal_node_id": "0.0-172.0-1.0", "time_elapsed": 1807762, "key_press": -1, "trial_index": 227}, "uniqueid": "MTK3365:3H8DHMCCWAI0SETAP3XHUMJXIHAKDS", "dateTime": 1520451476717}, {"current_trial": 228, "trialdata": {"rt": -1, "trial_type": "single-stim", "stimulus": "<p id=\"stim\">8</p>", "internal_node_id": "0.0-172.0-2.0", "time_elapsed": 1808761, "key_press": -1, "trial_index": 228}, "uniqueid": "MTK3365:3H8DHMCCWAI0SETAP3XHUMJXIHAKDS", "dateTime": 1520451477715}, {"current_trial": 229, "trialdata": {"rt": -1, "trial_type": "single-stim", "stimulus": "<p id=\"stim\">7</p>", "internal_node_id": "0.0-172.0-3.0", "time_elapsed": 1809757, "key_press": -1, "trial_index": 229}, "uniqueid": "MTK3365:3H8DHMCCWAI0SETAP3XHUMJXIHAKDS", "dateTime": 1520451478712}, {"current_trial": 230, "trialdata": {"rt": -1, "trial_type": "single-stim", "stimulus": "<p id=\"stim\">6</p>", "internal_node_id": "0.0-172.0-4.0", "time_elapsed": 1810758, "key_press": -1, "trial_index": 230}, "uniqueid": "MTK3365:3H8DHMCCWAI0SETAP3XHUMJXIHAKDS", "dateTime": 1520451479713}, {"current_trial": 231, "trialdata": {"rt": -1, "trial_type": "single-stim", "stimulus": "<p id=\"stim\">5</p>", "internal_node_id": "0.0-172.0-5.0", "time_elapsed": 1811762, "key_press": -1, "trial_index": 231}, "uniqueid": "MTK3365:3H8DHMCCWAI0SETAP3XHUMJXIHAKDS", "dateTime": 1520451480717}, {"current_trial": 232, "trialdata": {"rt": -1, "trial_type": "single-stim", "stimulus": "<p id=\"stim\">4</p>", "internal_node_id": "0.0-172.0-6.0", "time_elapsed": 1812761, "key_press": -1, "trial_index": 232}, "uniqueid": "MTK3365:3H8DHMCCWAI0SETAP3XHUMJXIHAKDS", "dateTime": 1520451481716}, {"current_trial": 233, "trialdata": {"rt": -1, "trial_type": "single-stim", "stimulus": "<p id=\"stim\">3</p>", "internal_node_id": "0.0-172.0-7.0", "time_elapsed": 1813750, "key_press": -1, "trial_index": 233}, "uniqueid": "MTK3365:3H8DHMCCWAI0SETAP3XHUMJXIHAKDS", "dateTime": 1520451482704}, {"current_trial": 234, "trialdata": {"rt": -1, "trial_type": "single-stim", "stimulus": "<p id=\"stim\">2</p>", "internal_node_id": "0.0-172.0-8.0", "time_elapsed": 1814752, "key_press": -1, "trial_index": 234}, "uniqueid": "MTK3365:3H8DHMCCWAI0SETAP3XHUMJXIHAKDS", "dateTime": 1520451483707}, {"current_trial": 235, "trialdata": {"rt": -1, "trial_type": "single-stim", "stimulus": "<p id=\"stim\">1</p>", "internal_node_id": "0.0-172.0-9.0", "time_elapsed": 1815760, "key_press": -1, "trial_index": 235}, "uniqueid": "MTK3365:3H8DHMCCWAI0SETAP3XHUMJXIHAKDS", "dateTime": 1520451484714}, {"current_trial": 236, "trialdata": {"rt": -1, "trial_type": "single-stim", "stimulus": "<p id=\"stim\">+</p>", "internal_node_id": "0.0-173.0-0.0", "time_elapsed": 1817264, "key_press": -1, "type": "FIXATION", "trial_index": 236}, "uniqueid": "MTK3365:3H8DHMCCWAI0SETAP3XHUMJXIHAKDS", "dateTime": 1520451486218}, {"current_trial": 237, "trialdata": {"rt": -1, "trial_type": "single-stim", "word": "rabbit", "stimulus": "<p id=\"stim\">RABBIT</p>", "conditions": [24, 800, "v", 12000], "internal_node_id": "0.0-174.0", "trial": 6, "time_elapsed": 1818073, "serialpos": 0, "key_press": -1, "wordID": 1151, "type": "PRES_VIS", "trial_index": 237}, "uniqueid": "MTK3365:3H8DHMCCWAI0SETAP3XHUMJXIHAKDS", "dateTime": 1520451487028}, {"current_trial": 238, "trialdata": {"rt": -1, "trial_type": "single-stim", "word": "foot", "stimulus": "<p id=\"stim\">FOOT</p>", "conditions": [24, 800, "v", 12000], "internal_node_id": "0.0-175.0", "trial": 6, "time_elapsed": 1819981, "serialpos": 1, "key_press": -1, "wordID": 589, "type": "PRES_VIS", "trial_index": 238}, "uniqueid": "MTK3365:3H8DHMCCWAI0SETAP3XHUMJXIHAKDS", "dateTime": 1520451488936}, {"current_trial": 239, "trialdata": {"rt": -1, "trial_type": "single-stim", "word": "cousin", "stimulus": "<p id=\"stim\">COUSIN</p>", "conditions": [24, 800, "v", 12000], "internal_node_id": "0.0-176.0", "trial": 6, "time_elapsed": 1821871, "serialpos": 2, "key_press": -1, "wordID": 391, "type": "PRES_VIS", "trial_index": 239}, "uniqueid": "MTK3365:3H8DHMCCWAI0SETAP3XHUMJXIHAKDS", "dateTime": 1520451490825}, {"current_trial": 240, "trialdata": {"rt": -1, "trial_type": "single-stim", "word": "puppy", "stimulus": "<p id=\"stim\">PUPPY</p>", "conditions": [24, 800, "v", 12000], "internal_node_id": "0.0-177.0", "trial": 6, "time_elapsed": 1823562, "serialpos": 3, "key_press": -1, "wordID": 1143, "type": "PRES_VIS", "trial_index": 240}, "uniqueid": "MTK3365:3H8DHMCCWAI0SETAP3XHUMJXIHAKDS", "dateTime": 1520451492517}, {"current_trial": 241, "trialdata": {"rt": -1, "trial_type": "single-stim", "word": "snake", "stimulus": "<p id=\"stim\">SNAKE</p>", "conditions": [24, 800, "v", 12000], "internal_node_id": "0.0-178.0", "trial": 6, "time_elapsed": 1825295, "serialpos": 4, "key_press": -1, "wordID": 1332, "type": "PRES_VIS", "trial_index": 241}, "uniqueid": "MTK3365:3H8DHMCCWAI0SETAP3XHUMJXIHAKDS", "dateTime": 1520451494250}, {"current_trial": 242, "trialdata": {"rt": -1, "trial_type": "single-stim", "word": "inmate", "stimulus": "<p id=\"stim\">INMATE</p>", "conditions": [24, 800, "v", 12000], "internal_node_id": "0.0-179.0", "trial": 6, "time_elapsed": 1827016, "serialpos": 5, "key_press": -1, "wordID": 737, "type": "PRES_VIS", "trial_index": 242}, "uniqueid": "MTK3365:3H8DHMCCWAI0SETAP3XHUMJXIHAKDS", "dateTime": 1520451495971}, {"current_trial": 243, "trialdata": {"rt": -1, "trial_type": "single-stim", "word": "agent", "stimulus": "<p id=\"stim\">AGENT</p>", "conditions": [24, 800, "v", 12000], "internal_node_id": "0.0-180.0", "trial": 6, "time_elapsed": 1828701, "serialpos": 6, "key_press": -1, "wordID": 9, "type": "PRES_VIS", "trial_index": 243}, "uniqueid": "MTK3365:3H8DHMCCWAI0SETAP3XHUMJXIHAKDS", "dateTime": 1520451497656}, {"current_trial": 244, "trialdata": {"rt": -1, "trial_type": "single-stim", "word": "scarecrow", "stimulus": "<p id=\"stim\">SCARECROW</p>", "conditions": [24, 800, "v", 12000], "internal_node_id": "0.0-181.0", "trial": 6, "time_elapsed": 1830478, "serialpos": 7, "key_press": -1, "wordID": 1244, "type": "PRES_VIS", "trial_index": 244}, "uniqueid": "MTK3365:3H8DHMCCWAI0SETAP3XHUMJXIHAKDS", "dateTime": 1520451499432}, {"current_trial": 245, "trialdata": {"rt": -1, "trial_type": "single-stim", "word": "leader", "stimulus": "<p id=\"stim\">LEADER</p>", "conditions": [24, 800, "v", 12000], "internal_node_id": "0.0-182.0", "trial": 6, "time_elapsed": 1832336, "serialpos": 8, "key_press": -1, "wordID": 806, "type": "PRES_VIS", "trial_index": 245}, "uniqueid": "MTK3365:3H8DHMCCWAI0SETAP3XHUMJXIHAKDS", "dateTime": 1520451501290}, {"current_trial": 246, "trialdata": {"rt": -1, "trial_type": "single-stim", "word": "quail", "stimulus": "<p id=\"stim\">QUAIL</p>", "conditions": [24, 800, "v", 12000], "internal_node_id": "0.0-183.0", "trial": 6, "time_elapsed": 1834318, "serialpos": 9, "key_press": -1, "wordID": 1146, "type": "PRES_VIS", "trial_index": 246}, "uniqueid": "MTK3365:3H8DHMCCWAI0SETAP3XHUMJXIHAKDS", "dateTime": 1520451503273}, {"current_trial": 247, "trialdata": {"rt": -1, "trial_type": "single-stim", "word": "turkey", "stimulus": "<p id=\"stim\">TURKEY</p>", "conditions": [24, 800, "v", 12000], "internal_node_id": "0.0-184.0", "trial": 6, "time_elapsed": 1836052, "serialpos": 10, "key_press": -1, "wordID": 1519, "type": "PRES_VIS", "trial_index": 247}, "uniqueid": "MTK3365:3H8DHMCCWAI0SETAP3XHUMJXIHAKDS", "dateTime": 1520451505006}, {"current_trial": 248, "trialdata": {"rt": -1, "trial_type": "single-stim", "word": "banker", "stimulus": "<p id=\"stim\">BANKER</p>", "conditions": [24, 800, "v", 12000], "internal_node_id": "0.0-185.0", "trial": 6, "time_elapsed": 1838007, "serialpos": 11, "key_press": -1, "wordID": 83, "type": "PRES_VIS", "trial_index": 248}, "uniqueid": "MTK3365:3H8DHMCCWAI0SETAP3XHUMJXIHAKDS", "dateTime": 1520451506962}, {"current_trial": 249, "trialdata": {"rt": -1, "trial_type": "single-stim", "word": "lapel", "stimulus": "<p id=\"stim\">LAPEL</p>", "conditions": [24, 800, "v", 12000], "internal_node_id": "0.0-186.0", "trial": 6, "time_elapsed": 1839869, "serialpos": 12, "key_press": -1, "wordID": 799, "type": "PRES_VIS", "trial_index": 249}, "uniqueid": "MTK3365:3H8DHMCCWAI0SETAP3XHUMJXIHAKDS", "dateTime": 1520451508824}, {"current_trial": 250, "trialdata": {"rt": -1, "trial_type": "single-stim", "word": "cellar", "stimulus": "<p id=\"stim\">CELLAR</p>", "conditions": [24, 800, "v", 12000], "internal_node_id": "0.0-187.0", "trial": 6, "time_elapsed": 1841623, "serialpos": 13, "key_press": -1, "wordID": 266, "type": "PRES_VIS", "trial_index": 250}, "uniqueid": "MTK3365:3H8DHMCCWAI0SETAP3XHUMJXIHAKDS", "dateTime": 1520451510578}, {"current_trial": 251, "trialdata": {"rt": -1, "trial_type": "single-stim", "word": "harp", "stimulus": "<p id=\"stim\">HARP</p>", "conditions": [24, 800, "v", 12000], "internal_node_id": "0.0-188.0", "trial": 6, "time_elapsed": 1843483, "serialpos": 14, "key_press": -1, "wordID": 688, "type": "PRES_VIS", "trial_index": 251}, "uniqueid": "MTK3365:3H8DHMCCWAI0SETAP3XHUMJXIHAKDS", "dateTime": 1520451512438}, {"current_trial": 252, "trialdata": {"rt": -1, "trial_type": "single-stim", "word": "daisy", "stimulus": "<p id=\"stim\">DAISY</p>", "conditions": [24, 800, "v", 12000], "internal_node_id": "0.0-189.0", "trial": 6, "time_elapsed": 1845392, "serialpos": 15, "key_press": -1, "wordID": 434, "type": "PRES_VIS", "trial_index": 252}, "uniqueid": "MTK3365:3H8DHMCCWAI0SETAP3XHUMJXIHAKDS", "dateTime": 1520451514346}, {"current_trial": 253, "trialdata": {"rt": -1, "trial_type": "single-stim", "word": "couch", "stimulus": "<p id=\"stim\">COUCH</p>", "conditions": [24, 800, "v", 12000], "internal_node_id": "0.0-190.0", "trial": 6, "time_elapsed": 1847097, "serialpos": 16, "key_press": -1, "wordID": 385, "type": "PRES_VIS", "trial_index": 253}, "uniqueid": "MTK3365:3H8DHMCCWAI0SETAP3XHUMJXIHAKDS", "dateTime": 1520451516052}, {"current_trial": 254, "trialdata": {"rt": -1, "trial_type": "single-stim", "word": "cowboy", "stimulus": "<p id=\"stim\">COWBOY</p>", "conditions": [24, 800, "v", 12000], "internal_node_id": "0.0-191.0", "trial": 6, "time_elapsed": 1849091, "serialpos": 17, "key_press": -1, "wordID": 394, "type": "PRES_VIS", "trial_index": 254}, "uniqueid": "MTK3365:3H8DHMCCWAI0SETAP3XHUMJXIHAKDS", "dateTime": 1520451518046}, {"current_trial": 255, "trialdata": {"rt": -1, "trial_type": "single-stim", "word": "handbag", "stimulus": "<p id=\"stim\">HANDBAG</p>", "conditions": [24, 800, "v", 12000], "internal_node_id": "0.0-192.0", "trial": 6, "time_elapsed": 1850771, "serialpos": 18, "key_press": -1, "wordID": 683, "type": "PRES_VIS", "trial_index": 255}, "uniqueid": "MTK3365:3H8DHMCCWAI0SETAP3XHUMJXIHAKDS", "dateTime": 1520451519726}, {"current_trial": 256, "trialdata": {"rt": -1, "trial_type": "single-stim", "word": "necklace", "stimulus": "<p id=\"stim\">NECKLACE</p>", "conditions": [24, 800, "v", 12000], "internal_node_id": "0.0-193.0", "trial": 6, "time_elapsed": 1852465, "serialpos": 19, "key_press": -1, "wordID": 939, "type": "PRES_VIS", "trial_index": 256}, "uniqueid": "MTK3365:3H8DHMCCWAI0SETAP3XHUMJXIHAKDS", "dateTime": 1520451521420}, {"current_trial": 257, "trialdata": {"rt": -1, "trial_type": "single-stim", "word": "guitar", "stimulus": "<p id=\"stim\">GUITAR</p>", "conditions": [24, 800, "v", 12000], "internal_node_id": "0.0-194.0", "trial": 6, "time_elapsed": 1854115, "serialpos": 20, "key_press": -1, "wordID": 669, "type": "PRES_VIS", "trial_index": 257}, "uniqueid": "MTK3365:3H8DHMCCWAI0SETAP3XHUMJXIHAKDS", "dateTime": 1520451523070}, {"current_trial": 258, "trialdata": {"rt": -1, "trial_type": "single-stim", "word": "bison", "stimulus": "<p id=\"stim\">BISON</p>", "conditions": [24, 800, "v", 12000], "internal_node_id": "0.0-195.0", "trial": 6, "time_elapsed": 1855766, "serialpos": 21, "key_press": -1, "wordID": 130, "type": "PRES_VIS", "trial_index": 258}, "uniqueid": "MTK3365:3H8DHMCCWAI0SETAP3XHUMJXIHAKDS", "dateTime": 1520451524721}, {"current_trial": 259, "trialdata": {"rt": -1, "trial_type": "single-stim", "word": "chipmunk", "stimulus": "<p id=\"stim\">CHIPMUNK</p>", "conditions": [24, 800, "v", 12000], "internal_node_id": "0.0-196.0", "trial": 6, "time_elapsed": 1857433, "serialpos": 22, "key_press": -1, "wordID": 303, "type": "PRES_VIS", "trial_index": 259}, "uniqueid": "MTK3365:3H8DHMCCWAI0SETAP3XHUMJXIHAKDS", "dateTime": 1520451526387}, {"current_trial": 260, "trialdata": {"rt": -1, "trial_type": "single-stim", "word": "stream", "stimulus": "<p id=\"stim\">STREAM</p>", "conditions": [24, 800, "v", 12000], "internal_node_id": "0.0-197.0", "trial": 6, "time_elapsed": 1859291, "serialpos": 23, "key_press": -1, "wordID": 1391, "type": "PRES_VIS", "trial_index": 260}, "uniqueid": "MTK3365:3H8DHMCCWAI0SETAP3XHUMJXIHAKDS", "dateTime": 1520451528245}, {"cur