{"condition": 0, "counterbalance": 617, "assignmentId": "35H6S234SB7YPMTS8TLXMRQNSDW659", "workerId": "MTK0136", "hitId": "3FSEU3P2NR7ET8RG7MWWB3QV3XIRRV", "currenttrial": 625, "bonus": 0, "data": [{"uniqueid": "MTK0136:35H6S234SB7YPMTS8TLXMRQNSDW659", "current_trial": 0, "dateTime": 1509290247413, "trialdata": {"rt": 2021, "key_press": 32, "type": "INSTRUCTIONS", "trial_type": "text", "trial_index": 0, "time_elapsed": 2028, "internal_node_id": "0.0-0.0"}}, {"uniqueid": "MTK0136:35H6S234SB7YPMTS8TLXMRQNSDW659", "current_trial": 1, "dateTime": 1509290248444, "trialdata": {"rt": 1027, "key_press": 32, "type": "INSTRUCTIONS", "trial_type": "text", "trial_index": 1, "time_elapsed": 3061, "internal_node_id": "0.0-1.0"}}, {"uniqueid": "MTK0136:35H6S234SB7YPMTS8TLXMRQNSDW659", "current_trial": 2, "dateTime": 1509290265079, "trialdata": {"rt": [16618], "responses": ["ocean"], "type": "AUDIO_TEST", "trial_type": "audio-test", "trial_index": 2, "time_elapsed": 19696, "internal_node_id": "0.0-2.0"}}, {"uniqueid": "MTK0136:35H6S234SB7YPMTS8TLXMRQNSDW659", "current_trial": 3, "dateTime": 1509290271192, "trialdata": {"rt": [6100], "responses": ["crystal"], "type": "AUDIO_TEST", "trial_type": "audio-test", "trial_index": 3, "time_elapsed": 25809, "internal_node_id": "0.0-3.0"}}, {"uniqueid": "MTK0136:35H6S234SB7YPMTS8TLXMRQNSDW659", "current_trial": 4, "dateTime": 1509290280847, "trialdata": {"rt": [9644], "responses": ["spice"], "type": "AUDIO_TEST", "trial_type": "audio-test", "trial_index": 4, "time_elapsed": 35464, "internal_node_id": "0.0-4.0"}}, {"uniqueid": "MTK0136:35H6S234SB7YPMTS8TLXMRQNSDW659", "current_trial": 5, "dateTime": 1509290286287, "trialdata": {"rt": 4687, "key_press": 32, "type": "INSTRUCTIONS", "trial_type": "text", "trial_index": 5, "time_elapsed": 40904, "internal_node_id": "0.0-5.0"}}, {"uniqueid": "MTK0136:35H6S234SB7YPMTS8TLXMRQNSDW659", "current_trial": 6, "dateTime": 1509290292752, "trialdata": {"rt": 6463, "key_press": 17, "type": "INSTRUCTIONS", "trial_type": "text", "trial_index": 6, "time_elapsed": 47368, "internal_node_id": "0.0-6.0"}}, {"uniqueid": "MTK0136:35H6S234SB7YPMTS8TLXMRQNSDW659", "current_trial": 7, "dateTime": 1509290292841, "trialdata": {"rt": 88, "key_press": 17, "type": "INSTRUCTIONS", "trial_type": "text", "trial_index": 7, "time_elapsed": 47458, "internal_node_id": "0.0-7.0"}}, {"uniqueid": "MTK0136:35H6S234SB7YPMTS8TLXMRQNSDW659", "current_trial": 8, "dateTime": 1509290321255, "trialdata": {"rt": 28412, "key_press": 32, "type": "INSTRUCTIONS", "trial_type": "text", "trial_index": 8, "time_elapsed": 75872, "internal_node_id": "0.0-8.0"}}, {"uniqueid": "MTK0136:35H6S234SB7YPMTS8TLXMRQNSDW659", "current_trial": 9, "dateTime": 1509290340266, "trialdata": {"rt": [4130, 7562, 9939, 15987], "responses": ["16", "10", "10", "18"], "num1": [7, 5, 3, 9, 9], "num2": [4, 1, 4, 2, 8], "num3": [5, 4, 3, 7, 6], "type": "DISTRACTOR", "conditions": [18, 1200, "v", 18000], "trial": 0, "trial_type": "math-distractor", "trial_index": 9, "time_elapsed": 94883, "internal_node_id": "0.0-9.0"}}, {"uniqueid": "MTK0136:35H6S234SB7YPMTS8TLXMRQNSDW659", "current_trial": 10, "dateTime": 1509290343274, "trialdata": {"rt": -1, "stimulus": "<p id=\"stim\">10</p>", "key_press": -1, "trial_type": "single-stim", "trial_index": 10, "time_elapsed": 97890, "internal_node_id": "0.0-10.0-0.0"}}, {"uniqueid": "MTK0136:35H6S234SB7YPMTS8TLXMRQNSDW659", "current_trial": 11, "dateTime": 1509290344275, "trialdata": {"rt": -1, "stimulus": "<p id=\"stim\">9</p>", "key_press": -1, "trial_type": "single-stim", "trial_index": 11, "time_elapsed": 98892, "internal_node_id": "0.0-10.0-1.0"}}, {"uniqueid": "MTK0136:35H6S234SB7YPMTS8TLXMRQNSDW659", "current_trial": 12, "dateTime": 1509290345277, "trialdata": {"rt": -1, "stimulus": "<p id=\"stim\">8</p>", "key_press": -1, "trial_type": "single-stim", "trial_index": 12, "time_elapsed": 99894, "internal_node_id": "0.0-10.0-2.0"}}, {"uniqueid": "MTK0136:35H6S234SB7YPMTS8TLXMRQNSDW659", "current_trial": 13, "dateTime": 1509290346279, "trialdata": {"rt": -1, "stimulus": "<p id=\"stim\">7</p>", "key_press": -1, "trial_type": "single-stim", "trial_index": 13, "time_elapsed": 100896, "internal_node_id": "0.0-10.0-3.0"}}, {"uniqueid": "MTK0136:35H6S234SB7YPMTS8TLXMRQNSDW659", "current_trial": 14, "dateTime": 1509290347286, "trialdata": {"rt": -1, "stimulus": "<p id=\"stim\">6</p>", "key_press": -1, "trial_type": "single-stim", "trial_index": 14, "time_elapsed": 101903, "internal_node_id": "0.0-10.0-4.0"}}, {"uniqueid": "MTK0136:35H6S234SB7YPMTS8TLXMRQNSDW659", "current_trial": 15, "dateTime": 1509290348294, "trialdata": {"rt": -1, "stimulus": "<p id=\"stim\">5</p>", "key_press": -1, "trial_type": "single-stim", "trial_index": 15, "time_elapsed": 102911, "internal_node_id": "0.0-10.0-5.0"}}, {"uniqueid": "MTK0136:35H6S234SB7YPMTS8TLXMRQNSDW659", "current_trial": 16, "dateTime": 1509290349296, "trialdata": {"rt": -1, "stimulus": "<p id=\"stim\">4</p>", "key_press": -1, "trial_type": "single-stim", "trial_index": 16, "time_elapsed": 103913, "internal_node_id": "0.0-10.0-6.0"}}, {"uniqueid": "MTK0136:35H6S234SB7YPMTS8TLXMRQNSDW659", "current_trial": 17, "dateTime": 1509290350297, "trialdata": {"rt": -1, "stimulus": "<p id=\"stim\">3</p>", "key_press": -1, "trial_type": "single-stim", "trial_index": 17, "time_elapsed": 104914, "internal_node_id": "0.0-10.0-7.0"}}, {"uniqueid": "MTK0136:35H6S234SB7YPMTS8TLXMRQNSDW659", "current_trial": 18, "dateTime": 1509290351306, "trialdata": {"rt": -1, "stimulus": "<p id=\"stim\">2</p>", "key_press": -1, "trial_type": "single-stim", "trial_index": 18, "time_elapsed": 105923, "internal_node_id": "0.0-10.0-8.0"}}, {"uniqueid": "MTK0136:35H6S234SB7YPMTS8TLXMRQNSDW659", "current_trial": 19, "dateTime": 1509290352646, "trialdata": {"rt": -1, "stimulus": "<p id=\"stim\">1</p>", "key_press": -1, "trial_type": "single-stim", "trial_index": 19, "time_elapsed": 107263, "internal_node_id": "0.0-10.0-9.0"}}, {"uniqueid": "MTK0136:35H6S234SB7YPMTS8TLXMRQNSDW659", "current_trial": 20, "dateTime": 1509290354160, "trialdata": {"rt": -1, "stimulus": "<p id=\"stim\">+</p>", "key_press": -1, "type": "FIXATION", "trial_type": "single-stim", "trial_index": 20, "time_elapsed": 108777, "internal_node_id": "0.0-11.0-0.0"}}, {"uniqueid": "MTK0136:35H6S234SB7YPMTS8TLXMRQNSDW659", "current_trial": 21, "dateTime": 1509290355363, "trialdata": {"rt": -1, "stimulus": "<p id=\"stim\">ORCHID</p>", "key_press": -1, "type": "PRES_VIS", "word": "orchid", "wordID": 981, "conditions": [18, 1200, "v", 18000], "trial": 0, "serialpos": 0, "trial_type": "single-stim", "trial_index": 21, "time_elapsed": 109980, "internal_node_id": "0.0-12.0"}}, {"uniqueid": "MTK0136:35H6S234SB7YPMTS8TLXMRQNSDW659", "current_trial": 22, "dateTime": 1509290357595, "trialdata": {"rt": -1, "stimulus": "<p id=\"stim\">PLAYGROUND</p>", "key_press": -1, "type": "PRES_VIS", "word": "playground", "wordID": 1086, "conditions": [18, 1200, "v", 18000], "trial": 0, "serialpos": 1, "trial_type": "single-stim", "trial_index": 22, "time_elapsed": 112212, "internal_node_id": "0.0-13.0"}}, {"uniqueid": "MTK0136:35H6S234SB7YPMTS8TLXMRQNSDW659", "current_trial": 23, "dateTime": 1509290359868, "trialdata": {"rt": -1, "stimulus": "<p id=\"stim\">APPLE</p>", "key_press": -1, "type": "PRES_VIS", "word": "apple", "wordID": 32, "conditions": [18, 1200, "v", 18000], "trial": 0, "serialpos": 2, "trial_type": "single-stim", "trial_index": 23, "time_elapsed": 114485, "internal_node_id": "0.0-14.0"}}, {"uniqueid": "MTK0136:35H6S234SB7YPMTS8TLXMRQNSDW659", "current_trial": 24, "dateTime": 1509290362018, "trialdata": {"rt": -1, "stimulus": "<p id=\"stim\">SUNRISE</p>", "key_press": -1, "type": "PRES_VIS", "word": "sunrise", "wordID": 1406, "conditions": [18, 1200, "v", 18000], "trial": 0, "serialpos": 3, "trial_type": "single-stim", "trial_index": 24, "time_elapsed": 116635, "internal_node_id": "0.0-15.0"}}, {"uniqueid": "MTK0136:35H6S234SB7YPMTS8TLXMRQNSDW659", "current_trial": 25, "dateTime": 1509290364058, "trialdata": {"rt": -1, "stimulus": "<p id=\"stim\">KETCHUP</p>", "key_press": -1, "type": "PRES_VIS", "word": "ketchup", "wordID": 770, "conditions": [18, 1200, "v", 18000], "trial": 0, "serialpos": 4, "trial_type": "single-stim", "trial_index": 25, "time_elapsed": 118675, "internal_node_id": "0.0-16.0"}}, {"uniqueid": "MTK0136:35H6S234SB7YPMTS8TLXMRQNSDW659", "current_trial": 26, "dateTime": 1509290366427, "trialdata": {"rt": -1, "stimulus": "<p id=\"stim\">STOVE</p>", "key_press": -1, "type": "PRES_VIS", "word": "stove", "wordID": 1387, "conditions": [18, 1200, "v", 18000], "trial": 0, "serialpos": 5, "trial_type": "single-stim", "trial_index": 26, "time_elapsed": 121044, "internal_node_id": "0.0-17.0"}}, {"uniqueid": "MTK0136:35H6S234SB7YPMTS8TLXMRQNSDW659", "current_trial": 27, "dateTime": 1509290368804, "trialdata": {"rt": -1, "stimulus": "<p id=\"stim\">GLOBE</p>", "key_press": -1, "type": "PRES_VIS", "word": "globe", "wordID": 640, "conditions": [18, 1200, "v", 18000], "trial": 0, "serialpos": 6, "trial_type": "single-stim", "trial_index": 27, "time_elapsed": 123421, "internal_node_id": "0.0-18.0"}}, {"uniqueid": "MTK0136:35H6S234SB7YPMTS8TLXMRQNSDW659", "current_trial": 28, "dateTime": 1509290370939, "trialdata": {"rt": -1, "stimulus": "<p id=\"stim\">MACHINE</p>", "key_press": -1, "type": "PRES_VIS", "word": "machine", "wordID": 851, "conditions": [18, 1200, "v", 18000], "trial": 0, "serialpos": 7, "trial_type": "single-stim", "trial_index": 28, "time_elapsed": 125556, "internal_node_id": "0.0-19.0"}}, {"uniqueid": "MTK0136:35H6S234SB7YPMTS8TLXMRQNSDW659", "current_trial": 29, "dateTime": 1509290372992, "trialdata": {"rt": -1, "stimulus": "<p id=\"stim\">PERFUME</p>", "key_press": -1, "type": "PRES_VIS", "word": "perfume", "wordID": 1048, "conditions": [18, 1200, "v", 18000], "trial": 0, "serialpos": 8, "trial_type": "single-stim", "trial_index": 29, "time_elapsed": 127609, "internal_node_id": "0.0-20.0"}}, {"uniqueid": "MTK0136:35H6S234SB7YPMTS8TLXMRQNSDW659", "current_trial": 30, "dateTime": 1509290375316, "trialdata": {"rt": -1, "stimulus": "<p id=\"stim\">PORK</p>", "key_press": -1, "type": "PRES_VIS", "word": "pork", "wordID": 1107, "conditions": [18, 1200, "v", 18000], "trial": 0, "serialpos": 9, "trial_type": "single-stim", "trial_index": 30, "time_elapsed": 129932, "internal_node_id": "0.0-21.0"}}, {"uniqueid": "MTK0136:35H6S234SB7YPMTS8TLXMRQNSDW659", "current_trial": 31, "dateTime": 1509290377615, "trialdata": {"rt": -1, "stimulus": "<p id=\"stim\">JUGGLER</p>", "key_press": -1, "type": "PRES_VIS", "word": "juggler", "wordID": 762, "conditions": [18, 1200, "v", 18000], "trial": 0, "serialpos": 10, "trial_type": "single-stim", "trial_index": 31, "time_elapsed": 132232, "internal_node_id": "0.0-22.0"}}, {"uniqueid": "MTK0136:35H6S234SB7YPMTS8TLXMRQNSDW659", "current_trial": 32, "dateTime": 1509290379761, "trialdata": {"rt": -1, "stimulus": "<p id=\"stim\">ARMY</p>", "key_press": -1, "type": "PRES_VIS", "word": "army", "wordID": 38, "conditions": [18, 1200, "v", 18000], "trial": 0, "serialpos": 11, "trial_type": "single-stim", "trial_index": 32, "time_elapsed": 134378, "internal_node_id": "0.0-23.0"}}, {"uniqueid": "MTK0136:35H6S234SB7YPMTS8TLXMRQNSDW659", "current_trial": 33, "dateTime": 1509290382004, "trialdata": {"rt": -1, "stimulus": "<p id=\"stim\">PLUTO</p>", "key_press": -1, "type": "PRES_VIS", "word": "pluto", "wordID": 1091, "conditions": [18, 1200, "v", 18000], "trial": 0, "serialpos": 12, "trial_type": "single-stim", "trial_index": 33, "time_elapsed": 136621, "internal_node_id": "0.0-24.0"}}, {"uniqueid": "MTK0136:35H6S234SB7YPMTS8TLXMRQNSDW659", "current_trial": 34, "dateTime": 1509290384222, "trialdata": {"rt": -1, "stimulus": "<p id=\"stim\">CONVICT</p>", "key_press": -1, "type": "PRES_VIS", "word": "convict", "wordID": 370, "conditions": [18, 1200, "v", 18000], "trial": 0, "serialpos": 13, "trial_type": "single-stim", "trial_index": 34, "time_elapsed": 138839, "internal_node_id": "0.0-25.0"}}, {"uniqueid": "MTK0136:35H6S234SB7YPMTS8TLXMRQNSDW659", "current_trial": 35, "dateTime": 1509290386465, "trialdata": {"rt": -1, "stimulus": "<p id=\"stim\">LIVER</p>", "key_press": -1, "type": "PRES_VIS", "word": "liver", "wordID": 832, "conditions": [18, 1200, "v", 18000], "trial": 0, "serialpos": 14, "trial_type": "single-stim", "trial_index": 35, "time_elapsed": 141081, "internal_node_id": "0.0-26.0"}}, {"uniqueid": "MTK0136:35H6S234SB7YPMTS8TLXMRQNSDW659", "current_trial": 36, "dateTime": 1509290388658, "trialdata": {"rt": -1, "stimulus": "<p id=\"stim\">MONSTER</p>", "key_press": -1, "type": "PRES_VIS", "word": "monster", "wordID": 911, "conditions": [18, 1200, "v", 18000], "trial": 0, "serialpos": 15, "trial_type": "single-stim", "trial_index": 36, "time_elapsed": 143275, "internal_node_id": "0.0-27.0"}}, {"uniqueid": "MTK0136:35H6S234SB7YPMTS8TLXMRQNSDW659", "current_trial": 37, "dateTime": 1509290390935, "trialdata": {"rt": -1, "stimulus": "<p id=\"stim\">PECAN</p>", "key_press": -1, "type": "PRES_VIS", "word": "pecan", "wordID": 1035, "conditions": [18, 1200, "v", 18000], "trial": 0, "serialpos": 16, "trial_type": "single-stim", "trial_index": 37, "time_elapsed": 145552, "internal_node_id": "0.0-28.0"}}, {"uniqueid": "MTK0136:35H6S234SB7YPMTS8TLXMRQNSDW659", "current_trial": 38, "dateTime": 1509290393331, "trialdata": {"rt": -1, "stimulus": "<p id=\"stim\">CRIB</p>", "key_press": -1, "type": "PRES_VIS", "word": "crib", "wordID": 406, "conditions": [18, 1200, "v", 18000], "trial": 0, "serialpos": 17, "trial_type": "single-stim", "trial_index": 38, "time_elapsed": 147947, "internal_node_id": "0.0-29.0"}}, {"uniqueid": "MTK0136:35H6S234SB7YPMTS8TLXMRQNSDW659", "current_trial": 39, "dateTime": 1509290395732, "trialdata": {"rt": -1, "stimulus": "", "key_press": -1, "type": "PRE_RECALL_DELAY", "trial_type": "single-stim", "trial_index": 39, "time_elapsed": 150349, "internal_node_id": "0.0-30.0-0.0"}}, {"uniqueid": "MTK0136:35H6S234SB7YPMTS8TLXMRQNSDW659", "current_trial": 40, "dateTime": 1509290396314, "trialdata": {"rt": -1000, "stimulus": "/static/audio/400Hz.wav", "key_press": -1, "type": "PRE_RECALL_ALERT", "trial_type": "single-audio", "trial_index": 40, "time_elapsed": 150931, "internal_node_id": "0.0-31.0"}}, {"uniqueid": "MTK0136:35H6S234SB7YPMTS8TLXMRQNSDW659", "current_trial": 41, "dateTime": 1509290456326, "trialdata": {"rt": [8752, 12181, 23724, 27090, 31000, 33858, 35892, 38877, 53162], "recwords": ["playground", "ketchup", "sunrise", "army", "building", "liver", "school", "pluto", "army"], "type": "FREE_RECALL", "conditions": [18, 1200, "v", 18000], "trial": 0, "trial_type": "free-recall", "trial_index": 41, "time_elapsed": 210938, "internal_node_id": "0.0-32.0-0.0"}}, {"uniqueid": "MTK0136:35H6S234SB7YPMTS8TLXMRQNSDW659", "current_trial": 42, "dateTime": 1509290459989, "trialdata": {"rt": 1661, "key_press": 32, "type": "INSTRUCTIONS", "trial_type": "text", "trial_index": 42, "time_elapsed": 214605, "internal_node_id": "0.0-33.0"}}, {"uniqueid": "MTK0136:35H6S234SB7YPMTS8TLXMRQNSDW659", "current_trial": 43, "dateTime": 1509290480002, "trialdata": {"rt": [2748, 9963, 13595, 17411], "responses": ["16", "25", "19", "12"], "num1": [7, 9, 5, 1, 2], "num2": [7, 8, 9, 7, 6], "num3": [2, 8, 5, 4, 5], "type": "DISTRACTOR", "conditions": [18, 1200, "a", 18000], "trial": 1, "trial_type": "math-distractor", "trial_index": 43, "time_elapsed": 234618, "internal_node_id": "0.0-34.0"}}, {"uniqueid": "MTK0136:35H6S234SB7YPMTS8TLXMRQNSDW659", "current_trial": 44, "dateTime": 1509290483004, "trialdata": {"rt": -1, "stimulus": "<p id=\"stim\">10</p>", "key_press": -1, "trial_type": "single-stim", "trial_index": 44, "time_elapsed": 237621, "internal_node_id": "0.0-35.0-0.0"}}, {"uniqueid": "MTK0136:35H6S234SB7YPMTS8TLXMRQNSDW659", "current_trial": 45, "dateTime": 1509290484006, "trialdata": {"rt": -1, "stimulus": "<p id=\"stim\">9</p>", "key_press": -1, "trial_type": "single-stim", "trial_index": 45, "time_elapsed": 238623, "internal_node_id": "0.0-35.0-1.0"}}, {"uniqueid": "MTK0136:35H6S234SB7YPMTS8TLXMRQNSDW659", "current_trial": 46, "dateTime": 1509290485009, "trialdata": {"rt": -1, "stimulus": "<p id=\"stim\">8</p>", "key_press": -1, "trial_type": "single-stim", "trial_index": 46, "time_elapsed": 239626, "internal_node_id": "0.0-35.0-2.0"}}, {"uniqueid": "MTK0136:35H6S234SB7YPMTS8TLXMRQNSDW659", "current_trial": 47, "dateTime": 1509290486012, "trialdata": {"rt": -1, "stimulus": "<p id=\"stim\">7</p>", "key_press": -1, "trial_type": "single-stim", "trial_index": 47, "time_elapsed": 240628, "internal_node_id": "0.0-35.0-3.0"}}, {"uniqueid": "MTK0136:35H6S234SB7YPMTS8TLXMRQNSDW659", "current_trial": 48, "dateTime": 1509290487013, "trialdata": {"rt": -1, "stimulus": "<p id=\"stim\">6</p>", "key_press": -1, "trial_type": "single-stim", "trial_index": 48, "time_elapsed": 241630, "internal_node_id": "0.0-35.0-4.0"}}, {"uniqueid": "MTK0136:35H6S234SB7YPMTS8TLXMRQNSDW659", "current_trial": 49, "dateTime": 1509290488015, "trialdata": {"rt": -1, "stimulus": "<p id=\"stim\">5</p>", "key_press": -1, "trial_type": "single-stim", "trial_index": 49, "time_elapsed": 242632, "internal_node_id": "0.0-35.0-5.0"}}, {"uniqueid": "MTK0136:35H6S234SB7YPMTS8TLXMRQNSDW659", "current_trial": 50, "dateTime": 1509290489018, "trialdata": {"rt": -1, "stimulus": "<p id=\"stim\">4</p>", "key_press": -1, "trial_type": "single-stim", "trial_index": 50, "time_elapsed": 243635, "internal_node_id": "0.0-35.0-6.0"}}, {"uniqueid": "MTK0136:35H6S234SB7YPMTS8TLXMRQNSDW659", "current_trial": 51, "dateTime": 1509290490029, "trialdata": {"rt": -1, "stimulus": "<p id=\"stim\">3</p>", "key_press": -1, "trial_type": "single-stim", "trial_index": 51, "time_elapsed": 244646, "internal_node_id": "0.0-35.0-7.0"}}, {"uniqueid": "MTK0136:35H6S234SB7YPMTS8TLXMRQNSDW659", "current_trial": 52, "dateTime": 1509290491033, "trialdata": {"rt": -1, "stimulus": "<p id=\"stim\">2</p>", "key_press": -1, "trial_type": "single-stim", "trial_index": 52, "time_elapsed": 245650, "internal_node_id": "0.0-35.0-8.0"}}, {"uniqueid": "MTK0136:35H6S234SB7YPMTS8TLXMRQNSDW659", "current_trial": 53, "dateTime": 1509290492035, "trialdata": {"rt": -1, "stimulus": "<p id=\"stim\">1</p>", "key_press": -1, "trial_type": "single-stim", "trial_index": 53, "time_elapsed": 246651, "internal_node_id": "0.0-35.0-9.0"}}, {"uniqueid": "MTK0136:35H6S234SB7YPMTS8TLXMRQNSDW659", "current_trial": 54, "dateTime": 1509290493552, "trialdata": {"rt": -1, "stimulus": "<p id=\"stim\">+</p>", "key_press": -1, "type": "FIXATION", "trial_type": "single-stim", "trial_index": 54, "time_elapsed": 248169, "internal_node_id": "0.0-36.0-0.0"}}, {"uniqueid": "MTK0136:35H6S234SB7YPMTS8TLXMRQNSDW659", "current_trial": 55, "dateTime": 1509290495703, "trialdata": {"rt": -1000, "stimulus": "/static/audio/wordpool/ROBIN.wav", "key_press": -1, "type": "PRES_AUD", "word": "robin", "wordID": 1198, "conditions": [18, 1200, "a", 18000], "trial": 1, "serialpos": 0, "trial_type": "single-audio", "trial_index": 55, "time_elapsed": 250320, "internal_node_id": "0.0-37.0"}}, {"uniqueid": "MTK0136:35H6S234SB7YPMTS8TLXMRQNSDW659", "current_trial": 56, "dateTime": 1509290497953, "trialdata": {"rt": -1000, "stimulus": "/static/audio/wordpool/SWIMMER.wav", "key_press": -1, "type": "PRES_AUD", "word": "swimmer", "wordID": 1419, "conditions": [18, 1200, "a", 18000], "trial": 1, "serialpos": 1, "trial_type": "single-audio", "trial_index": 56, "time_elapsed": 252570, "internal_node_id": "0.0-38.0"}}, {"uniqueid": "MTK0136:35H6S234SB7YPMTS8TLXMRQNSDW659", "current_trial": 57, "dateTime": 1509290499972, "trialdata": {"rt": -1000, "stimulus": "/static/audio/wordpool/LOFT.wav", "key_press": -1, "type": "PRES_AUD", "word": "loft", "wordID": 839, "conditions": [18, 1200, "a", 18000], "trial": 1, "serialpos": 2, "trial_type": "single-audio", "trial_index": 57, "time_elapsed": 254589, "internal_node_id": "0.0-39.0"}}, {"uniqueid": "MTK0136:35H6S234SB7YPMTS8TLXMRQNSDW659", "current_trial": 58, "dateTime": 1509290502069, "trialdata": {"rt": -1000, "stimulus": "/static/audio/wordpool/VIKING.wav", "key_press": -1, "type": "PRES_AUD", "word": "viking", "wordID": 1564, "conditions": [18, 1200, "a", 18000], "trial": 1, "serialpos": 3, "trial_type": "single-audio", "trial_index": 58, "time_elapsed": 256686, "internal_node_id": "0.0-40.0"}}, {"uniqueid": "MTK0136:35H6S234SB7YPMTS8TLXMRQNSDW659", "current_trial": 59, "dateTime": 1509290504337, "trialdata": {"rt": -1000, "stimulus": "/static/audio/wordpool/COCOON.wav", "key_press": -1, "type": "PRES_AUD", "word": "cocoon", "wordID": 338, "conditions": [18, 1200, "a", 18000], "trial": 1, "serialpos": 4, "trial_type": "single-audio", "trial_index": 59, "time_elapsed": 258954, "internal_node_id": "0.0-41.0"}}, {"uniqueid": "MTK0136:35H6S234SB7YPMTS8TLXMRQNSDW659", "current_trial": 60, "dateTime": 1509290506701, "trialdata": {"rt": -1000, "stimulus": "/static/audio/wordpool/WAITRESS.wav", "key_press": -1, "type": "PRES_AUD", "word": "waitress", "wordID": 1580, "conditions": [18, 1200, "a", 18000], "trial": 1, "serialpos": 5, "trial_type": "single-audio", "trial_index": 60, "time_elapsed": 261318, "internal_node_id": "0.0-42.0"}}, {"uniqueid": "MTK0136:35H6S234SB7YPMTS8TLXMRQNSDW659", "current_trial": 61, "dateTime": 1509290508772, "trialdata": {"rt": -1000, "stimulus": "/static/audio/wordpool/PERMIT.wav", "key_press": -1, "type": "PRES_AUD", "word": "permit", "wordID": 1050, "conditions": [18, 1200, "a", 18000], "trial": 1, "serialpos": 6, "trial_type": "single-audio", "trial_index": 61, "time_elapsed": 263389, "internal_node_id": "0.0-43.0"}}, {"uniqueid": "MTK0136:35H6S234SB7YPMTS8TLXMRQNSDW659", "current_trial": 62, "dateTime": 1509290511023, "trialdata": {"rt": -1000, "stimulus": "/static/audio/wordpool/CONTRACT.wav", "key_press": -1, "type": "PRES_AUD", "word": "contract", "wordID": 367, "conditions": [18, 1200, "a", 18000], "trial": 1, "serialpos": 7, "trial_type": "single-audio", "trial_index": 62, "time_elapsed": 265639, "internal_node_id": "0.0-44.0"}}, {"uniqueid": "MTK0136:35H6S234SB7YPMTS8TLXMRQNSDW659", "current_trial": 63, "dateTime": 1509290513390, "trialdata": {"rt": -1000, "stimulus": "/static/audio/wordpool/PLAZA.wav", "key_press": -1, "type": "PRES_AUD", "word": "plaza", "wordID": 1087, "conditions": [18, 1200, "a", 18000], "trial": 1, "serialpos": 8, "trial_type": "single-audio", "trial_index": 63, "time_elapsed": 268007, "internal_node_id": "0.0-45.0"}}, {"uniqueid": "MTK0136:35H6S234SB7YPMTS8TLXMRQNSDW659", "current_trial": 64, "dateTime": 1509290515605, "trialdata": {"rt": -1000, "stimulus": "/static/audio/wordpool/JURY.wav", "key_press": -1, "type": "PRES_AUD", "word": "jury", "wordID": 765, "conditions": [18, 1200, "a", 18000], "trial": 1, "serialpos": 9, "trial_type": "single-audio", "trial_index": 64, "time_elapsed": 270222, "internal_node_id": "0.0-46.0"}}, {"uniqueid": "MTK0136:35H6S234SB7YPMTS8TLXMRQNSDW659", "current_trial": 65, "dateTime": 1509290517703, "trialdata": {"rt": -1000, "stimulus": "/static/audio/wordpool/GRAPE.wav", "key_press": -1, "type": "PRES_AUD", "word": "grape", "wordID": 653, "conditions": [18, 1200, "a", 18000], "trial": 1, "serialpos": 10, "trial_type": "single-audio", "trial_index": 65, "time_elapsed": 272320, "internal_node_id": "0.0-47.0"}}, {"uniqueid": "MTK0136:35H6S234SB7YPMTS8TLXMRQNSDW659", "current_trial": 66, "dateTime": 1509290519800, "trialdata": {"rt": -1000, "stimulus": "/static/audio/wordpool/LAGOON.wav", "key_press": -1, "type": "PRES_AUD", "word": "lagoon", "wordID": 794, "conditions": [18, 1200, "a", 18000], "trial": 1, "serialpos": 11, "trial_type": "single-audio", "trial_index": 66, "time_elapsed": 274414, "internal_node_id": "0.0-48.0"}}, {"uniqueid": "MTK0136:35H6S234SB7YPMTS8TLXMRQNSDW659", "current_trial": 67, "dateTime": 1509290522141, "trialdata": {"rt": -1000, "stimulus": "/static/audio/wordpool/SERVANT.wav", "key_press": -1, "type": "PRES_AUD", "word": "servant", "wordID": 1270, "conditions": [18, 1200, "a", 18000], "trial": 1, "serialpos": 12, "trial_type": "single-audio", "trial_index": 67, "time_elapsed": 276758, "internal_node_id": "0.0-49.0"}}, {"uniqueid": "MTK0136:35H6S234SB7YPMTS8TLXMRQNSDW659", "current_trial": 68, "dateTime": 1509290524299, "trialdata": {"rt": -1000, "stimulus": "/static/audio/wordpool/TOURIST.wav", "key_press": -1, "type": "PRES_AUD", "word": "tourist", "wordID": 1487, "conditions": [18, 1200, "a", 18000], "trial": 1, "serialpos": 13, "trial_type": "single-audio", "trial_index": 68, "time_elapsed": 278912, "internal_node_id": "0.0-50.0"}}, {"uniqueid": "MTK0136:35H6S234SB7YPMTS8TLXMRQNSDW659", "current_trial": 69, "dateTime": 1509290526623, "trialdata": {"rt": -1000, "stimulus": "/static/audio/wordpool/SUSPECT.wav", "key_press": -1, "type": "PRES_AUD", "word": "suspect", "wordID": 1414, "conditions": [18, 1200, "a", 18000], "trial": 1, "serialpos": 14, "trial_type": "single-audio", "trial_index": 69, "time_elapsed": 281240, "internal_node_id": "0.0-51.0"}}, {"uniqueid": "MTK0136:35H6S234SB7YPMTS8TLXMRQNSDW659", "current_trial": 70, "dateTime": 1509290528725, "trialdata": {"rt": -1000, "stimulus": "/static/audio/wordpool/HANDBAG.wav", "key_press": -1, "type": "PRES_AUD", "word": "handbag", "wordID": 683, "conditions": [18, 1200, "a", 18000], "trial": 1, "serialpos": 15, "trial_type": "single-audio", "trial_index": 70, "time_elapsed": 283342, "internal_node_id": "0.0-52.0"}}, {"uniqueid": "MTK0136:35H6S234SB7YPMTS8TLXMRQNSDW659", "current_trial": 71, "dateTime": 1509290531125, "trialdata": {"rt": -1000, "stimulus": "/static/audio/wordpool/CLIMBER.wav", "key_press": -1, "type": "PRES_AUD", "word": "climber", "wordID": 322, "conditions": [18, 1200, "a", 18000], "trial": 1, "serialpos": 16, "trial_type": "single-audio", "trial_index": 71, "time_elapsed": 285742, "internal_node_id": "0.0-53.0"}}, {"uniqueid": "MTK0136:35H6S234SB7YPMTS8TLXMRQNSDW659", "current_trial": 72, "dateTime": 1509290533397, "trialdata": {"rt": -1000, "stimulus": "/static/audio/wordpool/PIGEON.wav", "key_press": -1, "type": "PRES_AUD", "word": "pigeon", "wordID": 1064, "conditions": [18, 1200, "a", 18000], "trial": 1, "serialpos": 17, "trial_type": "single-audio", "trial_index": 72, "time_elapsed": 288014, "internal_node_id": "0.0-54.0"}}, {"uniqueid": "MTK0136:35H6S234SB7YPMTS8TLXMRQNSDW659", "current_trial": 73, "dateTime": 1509290534604, "trialdata": {"rt": -1, "stimulus": "", "key_press": -1, "type": "PRE_RECALL_DELAY", "trial_type": "single-stim", "trial_index": 73, "time_elapsed": 289221, "internal_node_id": "0.0-55.0-0.0"}}, {"uniqueid": "MTK0136:35H6S234SB7YPMTS8TLXMRQNSDW659", "current_trial": 74, "dateTime": 1509290535107, "trialdata": {"rt": -1000, "stimulus": "/static/audio/400Hz.wav", "key_press": -1, "type": "PRE_RECALL_ALERT", "trial_type": "single-audio", "trial_index": 74, "time_elapsed": 289724, "internal_node_id": "0.0-56.0"}}, {"uniqueid": "MTK0136:35H6S234SB7YPMTS8TLXMRQNSDW659", "current_trial": 75, "dateTime": 1509290595116, "trialdata": {"rt": [3678, 5700, 6969, 10036, 13243, 20349, 23287, 32746, 47218], "recwords": ["robin", "cocoon", "jury", "falcon", "permit", "lagoon", "pigeon", "pilot", "servant"], "type": "FREE_RECALL", "conditions": [18, 1200, "a", 18000], "trial": 1, "trial_type": "free-recall", "trial_index": 75, "time_elapsed": 349728, "internal_node_id": "0.0-57.0-0.0"}}, {"uniqueid": "MTK0136:35H6S234SB7YPMTS8TLXMRQNSDW659", "current_trial": 76, "dateTime": 1509290600370, "trialdata": {"rt": 3252, "key_press": 32, "type": "INSTRUCTIONS", "trial_type": "text", "trial_index": 76, "time_elapsed": 354987, "internal_node_id": "0.0-58.0"}}, {"uniqueid": "MTK0136:35H6S234SB7YPMTS8TLXMRQNSDW659", "current_trial": 77, "dateTime": 1509290613374, "trialdata": {"rt": [4490, 10030], "responses": ["19", "23"], "num1": [4, 9, 9], "num2": [9, 6, 2], "num3": [6, 8, 2], "type": "DISTRACTOR", "conditions": [12, 1600, "v", 12000], "trial": 2, "trial_type": "math-distractor", "trial_index": 77, "time_elapsed": 367990, "internal_node_id": "0.0-59.0"}}, {"uniqueid": "MTK0136:35H6S234SB7YPMTS8TLXMRQNSDW659", "current_trial": 78, "dateTime": 1509290616375, "trialdata": {"rt": -1, "stimulus": "<p id=\"stim\">10</p>", "key_press": -1, "trial_type": "single-stim", "trial_index": 78, "time_elapsed": 370992, "internal_node_id": "0.0-60.0-0.0"}}, {"uniqueid": "MTK0136:35H6S234SB7YPMTS8TLXMRQNSDW659", "current_trial": 79, "dateTime": 1509290617392, "trialdata": {"rt": -1, "stimulus": "<p id=\"stim\">9</p>", "key_press": -1, "trial_type": "single-stim", "trial_index": 79, "time_elapsed": 372009, "internal_node_id": "0.0-60.0-1.0"}}, {"uniqueid": "MTK0136:35H6S234SB7YPMTS8TLXMRQNSDW659", "current_trial": 80, "dateTime": 1509290618393, "trialdata": {"rt": -1, "stimulus": "<p id=\"stim\">8</p>", "key_press": -1, "trial_type": "single-stim", "trial_index": 80, "time_elapsed": 373010, "internal_node_id": "0.0-60.0-2.0"}}, {"uniqueid": "MTK0136:35H6S234SB7YPMTS8TLXMRQNSDW659", "current_trial": 81, "dateTime": 1509290619395, "trialdata": {"rt": -1, "stimulus": "<p id=\"stim\">7</p>", "key_press": -1, "trial_type": "single-stim", "trial_index": 81, "time_elapsed": 374012, "internal_node_id": "0.0-60.0-3.0"}}, {"uniqueid": "MTK0136:35H6S234SB7YPMTS8TLXMRQNSDW659", "current_trial": 82, "dateTime": 1509290620397, "trialdata": {"rt": -1, "stimulus": "<p id=\"stim\">6</p>", "key_press": -1, "trial_type": "single-stim", "trial_index": 82, "time_elapsed": 375014, "internal_node_id": "0.0-60.0-4.0"}}, {"uniqueid": "MTK0136:35H6S234SB7YPMTS8TLXMRQNSDW659", "current_trial": 83, "dateTime": 1509290621399, "trialdata": {"rt": -1, "stimulus": "<p id=\"stim\">5</p>", "key_press": -1, "trial_type": "single-stim", "trial_index": 83, "time_elapsed": 376016, "internal_node_id": "0.0-60.0-5.0"}}, {"uniqueid": "MTK0136:35H6S234SB7YPMTS8TLXMRQNSDW659", "current_trial": 84, "dateTime": 1509290622404, "trialdata": {"rt": -1, "stimulus": "<p id=\"stim\">4</p>", "key_press": -1, "trial_type": "single-stim", "trial_index": 84, "time_elapsed": 377019, "internal_node_id": "0.0-60.0-6.0"}}, {"uniqueid": "MTK0136:35H6S234SB7YPMTS8TLXMRQNSDW659", "current_trial": 85, "dateTime": 1509290623408, "trialdata": {"rt": -1, "stimulus": "<p id=\"stim\">3</p>", "key_press": -1, "trial_type": "single-stim", "trial_index": 85, "time_elapsed": 378025, "internal_node_id": "0.0-60.0-7.0"}}, {"uniqueid": "MTK0136:35H6S234SB7YPMTS8TLXMRQNSDW659", "current_trial": 86, "dateTime": 1509290624410, "trialdata": {"rt": -1, "stimulus": "<p id=\"stim\">2</p>", "key_press": -1, "trial_type": "single-stim", "trial_index": 86, "time_elapsed": 379027, "internal_node_id": "0.0-60.0-8.0"}}, {"uniqueid": "MTK0136:35H6S234SB7YPMTS8TLXMRQNSDW659", "current_trial": 87, "dateTime": 1509290625412, "trialdata": {"rt": -1, "stimulus": "<p id=\"stim\">1</p>", "key_press": -1, "trial_type": "single-stim", "trial_index": 87, "time_elapsed": 380029, "internal_node_id": "0.0-60.0-9.0"}}, {"uniqueid": "MTK0136:35H6S234SB7YPMTS8TLXMRQNSDW659", "current_trial": 88, "dateTime": 1509290626914, "trialdata": {"rt": -1, "stimulus": "<p id=\"stim\">+</p>", "key_press": -1, "type": "FIXATION", "trial_type": "single-stim", "trial_index": 88, "time_elapsed": 381531, "internal_node_id": "0.0-61.0-0.0"}}, {"uniqueid": "MTK0136:35H6S234SB7YPMTS8TLXMRQNSDW659", "current_trial": 89, "dateTime": 1509290628525, "trialdata": {"rt": -1, "stimulus": "<p id=\"stim\">OZONE</p>", "key_press": -1, "type": "PRES_VIS", "word": "ozone", "wordID": 995, "conditions": [12, 1600, "v", 12000], "trial": 2, "serialpos": 0, "trial_type": "single-stim", "trial_index": 89, "time_elapsed": 383142, "internal_node_id": "0.0-62.0"}}, {"uniqueid": "MTK0136:35H6S234SB7YPMTS8TLXMRQNSDW659", "current_trial": 90, "dateTime": 1509290631116, "trialdata": {"rt": -1, "stimulus": "<p id=\"stim\">BEAVER</p>", "key_press": -1, "type": "PRES_VIS", "word": "beaver", "wordID": 108, "conditions": [12, 1600, "v", 12000], "trial": 2, "serialpos": 1, "trial_type": "single-stim", "trial_index": 90, "time_elapsed": 385733, "internal_node_id": "0.0-63.0"}}, {"uniqueid": "MTK0136:35H6S234SB7YPMTS8TLXMRQNSDW659", "current_trial": 91, "dateTime": 1509290633814, "trialdata": {"rt": -1, "stimulus": "<p id=\"stim\">CASKET</p>", "key_press": -1, "type": "PRES_VIS", "word": "casket", "wordID": 254, "conditions": [12, 1600, "v", 12000], "trial": 2, "serialpos": 2, "trial_type": "single-stim", "trial_index": 91, "time_elapsed": 388431, "internal_node_id": "0.0-64.0"}}, {"uniqueid": "MTK0136:35H6S234SB7YPMTS8TLXMRQNSDW659", "current_trial": 92, "dateTime": 1509290636485, "trialdata": {"rt": -1, "stimulus": "<p id=\"stim\">COCKTAIL</p>", "key_press": -1, "type": "PRES_VIS", "word": "cocktail", "wordID": 337, "conditions": [12, 1600, "v", 12000], "trial": 2, "serialpos": 3, "trial_type": "single-stim", "trial_index": 92, "time_elapsed": 391101, "internal_node_id": "0.0-65.0"}}, {"uniqueid": "MTK0136:35H6S234SB7YPMTS8TLXMRQNSDW659", "current_trial": 93, "dateTime": 1509290639090, "trialdata": {"rt": -1, "stimulus": "<p id=\"stim\">OYSTER</p>", "key_press": -1, "type": "PRES_VIS", "word": "oyster", "wordID": 994, "conditions": [12, 1600, "v", 12000], "trial": 2, "serialpos": 4, "trial_type": "single-stim", "trial_index": 93, "time_elapsed": 393707, "internal_node_id": "0.0-66.0"}}, {"uniqueid": "MTK0136:35H6S234SB7YPMTS8TLXMRQNSDW659", "current_trial": 94, "dateTime": 1509290641653, "trialdata": {"rt": -1, "stimulus": "<p id=\"stim\">GOBLIN</p>", "key_press": -1, "type": "PRES_VIS", "word": "goblin", "wordID": 644, "conditions": [12, 1600, "v", 12000], "trial": 2, "serialpos": 5, "trial_type": "single-stim", "trial_index": 94, "time_elapsed": 396270, "internal_node_id": "0.0-67.0"}}, {"uniqueid": "MTK0136:35H6S234SB7YPMTS8TLXMRQNSDW659", "current_trial": 95, "dateTime": 1509290644356, "trialdata": {"rt": -1, "stimulus": "<p id=\"stim\">SMOG</p>", "key_press": -1, "type": "PRES_VIS", "word": "smog", "wordID": 1329, "conditions": [12, 1600, "v", 12000], "trial": 2, "serialpos": 6, "trial_type": "single-stim", "trial_index": 95, "time_elapsed": 398973, "internal_node_id": "0.0-68.0"}}, {"uniqueid": "MTK0136:35H6S234SB7YPMTS8TLXMRQNSDW659", "current_trial": 96, "dateTime": 1509290646843, "trialdata": {"rt": -1, "stimulus": "<p id=\"stim\">WINDOW</p>", "key_press": -1, "type": "PRES_VIS", "word": "window", "wordID": 1610, "conditions": [12, 1600, "v", 12000], "trial": 2, "serialpos": 7, "trial_type": "single-stim", "trial_index": 96, "time_elapsed": 401459, "internal_node_id": "0.0-69.0"}}, {"uniqueid": "MTK0136:35H6S234SB7YPMTS8TLXMRQNSDW659", "current_trial": 97, "dateTime": 1509290649254, "trialdata": {"rt": -1, "stimulus": "<p id=\"stim\">RUST</p>", "key_press": -1, "type": "PRES_VIS", "word": "rust", "wordID": 1218, "conditions": [12, 1600, "v", 12000], "trial": 2, "serialpos": 8, "trial_type": "single-stim", "trial_index": 97, "time_elapsed": 403871, "internal_node_id": "0.0-70.0"}}, {"uniqueid": "MTK0136:35H6S234SB7YPMTS8TLXMRQNSDW659", "current_trial": 98, "dateTime": 1509290651852, "trialdata": {"rt": -1, "stimulus": "<p id=\"stim\">SCARECROW</p>", "key_press": -1, "type": "PRES_VIS", "word": "scarecrow", "wordID": 1244, "conditions": [12, 1600, "v", 12000], "trial": 2, "serialpos": 9, "trial_type": "single-stim", "trial_index": 98, "time_elapsed": 406469, "internal_node_id": "0.0-71.0"}}, {"uniqueid": "MTK0136:35H6S234SB7YPMTS8TLXMRQNSDW659", "current_trial": 99, "dateTime": 1509290654484, "trialdata": {"rt": -1, "stimulus": "<p id=\"stim\">SALAD</p>", "key_press": -1, "type": "PRES_VIS", "word": "salad", "wordID": 1223, "conditions": [12, 1600, "v", 12000], "trial": 2, "serialpos": 10, "trial_type": "single-stim", "trial_index": 99, "time_elapsed": 409101, "internal_node_id": "0.0-72.0"}}, {"uniqueid": "MTK0136:35H6S234SB7YPMTS8TLXMRQNSDW659", "current_trial": 100, "dateTime": 1509290656997, "trialdata": {"rt": -1, "stimulus": "<p id=\"stim\">BACON</p>", "key_press": -1, "type": "PRES_VIS", "word": "bacon", "wordID": 66, "conditions": [12, 1600, "v", 12000], "trial": 2, "serialpos": 11, "trial_type": "single-stim", "trial_index": 100, "time_elapsed": 411614, "internal_node_id": "0.0-73.0"}}, {"uniqueid": "MTK0136:35H6S234SB7YPMTS8TLXMRQNSDW659", "current_trial": 101, "dateTime": 1509290659192, "trialdata": {"rt": -1, "stimulus": "", "key_press": -1, "type": "PRE_RECALL_DELAY", "trial_type": "single-stim", "trial_index": 101, "time_elapsed": 413809, "internal_node_id": "0.0-74.0-0.0"}}, {"uniqueid": "MTK0136:35H6S234SB7YPMTS8TLXMRQNSDW659", "current_trial": 102, "dateTime": 1509290659693, "trialdata": {"rt": -1000, "stimulus": "/static/audio/400Hz.wav", "key_press": -1, "type": "PRE_RECALL_ALERT", "trial_type": "single-audio", "trial_index": 102, "time_elapsed": 414310, "internal_node_id": "0.0-75.0"}}, {"uniqueid": "MTK0136:35H6S234SB7YPMTS8TLXMRQNSDW659", "current_trial": 103, "dateTime": 1509290719705, "trialdata": {"rt": [6779, 8532, 12932, 14866, 18000, 21185, 34834, 39471, 59248], "recwords": ["ozone", "beaver", "casket", "goblin", "window", "passion", "panick", "mountain", "lever"], "type": "FREE_RECALL", "conditions": [12, 1600, "v", 12000], "trial": 2, "trial_type": "free-recall", "trial_index": 103, "time_elapsed": 474315, "internal_node_id": "0.0-76.0-0.0"}}, {"uniqueid": "MTK0136:35H6S234SB7YPMTS8TLXMRQNSDW659", "current_trial": 104, "dateTime": 1509290722455, "trialdata": {"rt": 748, "key_press": 74, "type": "INSTRUCTIONS", "trial_type": "text", "trial_index": 104, "time_elapsed": 477072, "internal_node_id": "0.0-77.0"}}, {"uniqueid": "MTK0136:35H6S234SB7YPMTS8TLXMRQNSDW659", "current_trial": 105, "dateTime": 1509290748458, "trialdata": {"rt": [2697, 6094, 11318, 14561, 16178, 19574, 21658, 23910], "responses": ["12", "11", "24", "16", "11", "16", "18", "21"], "num1": [4, 3, 9, 2, 1, 9, 5, 7, 6], "num2": [5, 6, 7, 6, 5, 4, 5, 7, 2], "num3": [3, 2, 6, 8, 5, 3, 8, 7, 4], "type": "DISTRACTOR", "conditions": [24, 1600, "v", 24000], "trial": 3, "trial_type": "math-distractor", "trial_index": 105, "time_elapsed": 503075, "internal_node_id": "0.0-78.0"}}, {"uniqueid": "MTK0136:35H6S234SB7YPMTS8TLXMRQNSDW659", "current_trial": 106, "dateTime": 1509290751462, "trialdata": {"rt": -1, "stimulus": "<p id=\"stim\">10</p>", "key_press": -1, "trial_type": "single-stim", "trial_index": 106, "time_elapsed": 506078, "internal_node_id": "0.0-79.0-0.0"}}, {"uniqueid": "MTK0136:35H6S234SB7YPMTS8TLXMRQNSDW659", "current_trial": 107, "dateTime": 1509290752464, "trialdata": {"rt": -1, "stimulus": "<p id=\"stim\">9</p>", "key_press": -1, "trial_type": "single-stim", "trial_index": 107, "time_elapsed": 507081, "internal_node_id": "0.0-79.0-1.0"}}, {"uniqueid": "MTK0136:35H6S234SB7YPMTS8TLXMRQNSDW659", "current_trial": 108, "dateTime": 1509290753466, "trialdata": {"rt": -1, "stimulus": "<p id=\"stim\">8</p>", "key_press": -1, "trial_type": "single-stim", "trial_index": 108, "time_elapsed": 508083, "internal_node_id": "0.0-79.0-2.0"}}, {"uniqueid": "MTK0136:35H6S234SB7YPMTS8TLXMRQNSDW659", "current_trial": 109, "dateTime": 1509290754467, "trialdata": {"rt": -1, "stimulus": "<p id=\"stim\">7</p>", "key_press": -1, "trial_type": "single-stim", "trial_index": 109, "time_elapsed": 509084, "internal_node_id": "0.0-79.0-3.0"}}, {"uniqueid": "MTK0136:35H6S234SB7YPMTS8TLXMRQNSDW659", "current_trial": 110, "dateTime": 1509290755469, "trialdata": {"rt": -1, "stimulus": "<p id=\"stim\">6</p>", "key_press": -1, "trial_type": "single-stim", "trial_index": 110, "time_elapsed": 510086, "internal_node_id": "0.0-79.0-4.0"}}, {"uniqueid": "MTK0136:35H6S234SB7YPMTS8TLXMRQNSDW659", "current_trial": 111, "dateTime": 1509290756470, "trialdata": {"rt": -1, "stimulus": "<p id=\"stim\">5</p>", "key_press": -1, "trial_type": "single-stim", "trial_index": 111, "time_elapsed": 511087, "internal_node_id": "0.0-79.0-5.0"}}, {"uniqueid": "MTK0136:35H6S234SB7YPMTS8TLXMRQNSDW659", "current_trial": 112, "dateTime": 1509290757472, "trialdata": {"rt": -1, "stimulus": "<p id=\"stim\">4</p>", "key_press": -1, "trial_type": "single-stim", "trial_index": 112, "time_elapsed": 512089, "internal_node_id": "0.0-79.0-6.0"}}, {"uniqueid": "MTK0136:35H6S234SB7YPMTS8TLXMRQNSDW659", "current_trial": 113, "dateTime": 1509290758476, "trialdata": {"rt": -1, "stimulus": "<p id=\"stim\">3</p>", "key_press": -1, "trial_type": "single-stim", "trial_index": 113, "time_elapsed": 513093, "internal_node_id": "0.0-79.0-7.0"}}, {"uniqueid": "MTK0136:35H6S234SB7YPMTS8TLXMRQNSDW659", "current_trial": 114, "dateTime": 1509290759477, "trialdata": {"rt": -1, "stimulus": "<p id=\"stim\">2</p>", "key_press": -1, "trial_type": "single-stim", "trial_index": 114, "time_elapsed": 514094, "internal_node_id": "0.0-79.0-8.0"}}, {"uniqueid": "MTK0136:35H6S234SB7YPMTS8TLXMRQNSDW659", "current_trial": 115, "dateTime": 1509290760478, "trialdata": {"rt": -1, "stimulus": "<p id=\"stim\">1</p>", "key_press": -1, "trial_type": "single-stim", "trial_index": 115, "time_elapsed": 515095, "internal_node_id": "0.0-79.0-9.0"}}, {"uniqueid": "MTK0136:35H6S234SB7YPMTS8TLXMRQNSDW659", "current_trial": 116, "dateTime": 1509290761981, "trialdata": {"rt": -1, "stimulus": "<p id=\"stim\">+</p>", "key_press": -1, "type": "FIXATION", "trial_type": "single-stim", "trial_index": 116, "time_elapsed": 516598, "internal_node_id": "0.0-80.0-0.0"}}, {"uniqueid": "MTK0136:35H6S234SB7YPMTS8TLXMRQNSDW659", "current_trial": 117, "dateTime": 1509290763583, "trialdata": {"rt": -1, "stimulus": "<p id=\"stim\">STUDENT</p>", "key_press": -1, "type": "PRES_VIS", "word": "student", "wordID": 1394, "conditions": [24, 1600, "v", 24000], "trial": 3, "serialpos": 0, "trial_type": "single-stim", "trial_index": 117, "time_elapsed": 518200, "internal_node_id": "0.0-81.0"}}, {"uniqueid": "MTK0136:35H6S234SB7YPMTS8TLXMRQNSDW659", "current_trial": 118, "dateTime": 1509290766157, "trialdata": {"rt": -1, "stimulus": "<p id=\"stim\">DORM</p>", "key_press": -1, "type": "PRES_VIS", "word": "dorm", "wordID": 487, "conditions": [24, 1600, "v", 24000], "trial": 3, "serialpos": 1, "trial_type": "single-stim", "trial_index": 118, "time_elapsed": 520774, "internal_node_id": "0.0-82.0"}}, {"uniqueid": "MTK0136:35H6S234SB7YPMTS8TLXMRQNSDW659", "current_trial": 119, "dateTime": 1509290768795, "trialdata": {"rt": -1, "stimulus": "<p id=\"stim\">COBRA</p>", "key_press": -1, "type": "PRES_VIS", "word": "cobra", "wordID": 335, "conditions": [24, 1600, "v", 24000], "trial": 3, "serialpos": 2, "trial_type": "single-stim", "trial_index": 119, "time_elapsed": 523411, "internal_node_id": "0.0-83.0"}}, {"uniqueid": "MTK0136:35H6S234SB7YPMTS8TLXMRQNSDW659", "current_trial": 120, "dateTime": 1509290771547, "trialdata": {"rt": -1, "stimulus": "<p id=\"stim\">SHOULDER</p>", "key_press": -1, "type": "PRES_VIS", "word": "shoulder", "wordID": 1293, "conditions": [24, 1600, "v", 24000], "trial": 3, "serialpos": 3, "trial_type": "single-stim", "trial_index": 120, "time_elapsed": 526163, "internal_node_id": "0.0-84.0"}}, {"uniqueid": "MTK0136:35H6S234SB7YPMTS8TLXMRQNSDW659", "current_trial": 121, "dateTime": 1509290774308, "trialdata": {"rt": -1, "stimulus": "<p id=\"stim\">SILK</p>", "key_press": -1, "type": "PRES_VIS", "word": "silk", "wordID": 1306, "conditions": [24, 1600, "v", 24000], "trial": 3, "serialpos": 4, "trial_type": "single-stim", "trial_index": 121, "time_elapsed": 528925, "internal_node_id": "0.0-85.0"}}, {"uniqueid": "MTK0136:35H6S234SB7YPMTS8TLXMRQNSDW659", "current_trial": 122, "dateTime": 1509290776902, "trialdata": {"rt": -1, "stimulus": "<p id=\"stim\">WORKER</p>", "key_press": -1, "type": "PRES_VIS", "word": "worker", "wordID": 1620, "conditions": [24, 1600, "v", 24000], "trial": 3, "serialpos": 5, "trial_type": "single-stim", "trial_index": 122, "time_elapsed": 531519, "internal_node_id": "0.0-86.0"}}, {"uniqueid": "MTK0136:35H6S234SB7YPMTS8TLXMRQNSDW659", "current_trial": 123, "dateTime": 1509290779425, "trialdata": {"rt": -1, "stimulus": "<p id=\"stim\">PIANO</p>", "key_press": -1, "type": "PRES_VIS", "word": "piano", "wordID": 1056, "conditions": [24, 1600, "v", 24000], "trial": 3, "serialpos": 6, "trial_type": "single-stim", "trial_index": 123, "time_elapsed": 534042, "internal_node_id": "0.0-87.0"}}, {"uniqueid": "MTK0136:35H6S234SB7YPMTS8TLXMRQNSDW659", "current_trial": 124, "dateTime": 1509290782182, "trialdata": {"rt": -1, "stimulus": "<p id=\"stim\">VELVET</p>", "key_press": -1, "type": "PRES_VIS", "word": "velvet", "wordID": 1554, "conditions": [24, 1600, "v", 24000], "trial": 3, "serialpos": 7, "trial_type": "single-stim", "trial_index": 124, "time_elapsed": 536799, "internal_node_id": "0.0-88.0"}}, {"uniqueid": "MTK0136:35H6S234SB7YPMTS8TLXMRQNSDW659", "current_trial": 125, "dateTime": 1509290784883, "trialdata": {"rt": -1, "stimulus": "<p id=\"stim\">WAGON</p>", "key_press": -1, "type": "PRES_VIS", "word": "wagon", "wordID": 1577, "conditions": [24, 1600, "v", 24000], "trial": 3, "serialpos": 8, "trial_type": "single-stim", "trial_index": 125, "time_elapsed": 539500, "internal_node_id": "0.0-89.0"}}, {"uniqueid": "MTK0136:35H6S234SB7YPMTS8TLXMRQNSDW659", "current_trial": 126, "dateTime": 1509290787286, "trialdata": {"rt": -1, "stimulus": "<p id=\"stim\">LEADER</p>", "key_press": -1, "type": "PRES_VIS", "word": "leader", "wordID": 806, "conditions": [24, 1600, "v", 24000], "trial": 3, "serialpos": 9, "trial_type": "single-stim", "trial_index": 126, "time_elapsed": 541903, "internal_node_id": "0.0-90.0"}}, {"uniqueid": "MTK0136:35H6S234SB7YPMTS8TLXMRQNSDW659", "current_trial": 127, "dateTime": 1509290789722, "trialdata": {"rt": -1, "stimulus": "<p id=\"stim\">AGENT</p>", "key_press": -1, "type": "PRES_VIS", "word": "agent", "wordID": 9, "conditions": [24, 1600, "v", 24000], "trial": 3, "serialpos": 10, "trial_type": "single-stim", "trial_index": 127, "time_elapsed": 544339, "internal_node_id": "0.0-91.0"}}, {"uniqueid": "MTK0136:35H6S234SB7YPMTS8TLXMRQNSDW659", "current_trial": 128, "dateTime": 1509290792134, "trialdata": {"rt": -1, "stimulus": "<p id=\"stim\">TOMBSTONE</p>", "key_press": -1, "type": "PRES_VIS", "word": "tombstone", "wordID": 1477, "conditions": [24, 1600, "v", 24000], "trial": 3, "serialpos": 11, "trial_type": "single-stim", "trial_index": 128, "time_elapsed": 546751, "internal_node_id": "0.0-92.0"}}, {"uniqueid": "MTK0136:35H6S234SB7YPMTS8TLXMRQNSDW659", "current_trial": 129, "dateTime": 1509290794828, "trialdata": {"rt": -1, "stimulus": "<p id=\"stim\">SURVEY</p>", "key_press": -1, "type": "PRES_VIS", "word": "survey", "wordID": 1413, "conditions": [24, 1600, "v", 24000], "trial": 3, "serialpos": 12, "trial_type": "single-stim", "trial_index": 129, "time_elapsed": 549443, "internal_node_id": "0.0-93.0"}}, {"uniqueid": "MTK0136:35H6S234SB7YPMTS8TLXMRQNSDW659", "current_trial": 130, "dateTime": 1509290797540, "trialdata": {"rt": -1, "stimulus": "<p id=\"stim\">BRIEFCASE</p>", "key_press": -1, "type": "PRES_VIS", "word": "briefcase", "wordID": 174, "conditions": [24, 1600, "v", 24000], "trial": 3, "serialpos": 13, "trial_type": "single-stim", "trial_index": 130, "time_elapsed": 552157, "internal_node_id": "0.0-94.0"}}, {"uniqueid": "MTK0136:35H6S234SB7YPMTS8TLXMRQNSDW659", "current_trial": 131, "dateTime": 1509290800173, "trialdata": {"rt": -1, "stimulus": "<p id=\"stim\">SUITCASE</p>", "key_press": -1, "type": "PRES_VIS", "word": "suitcase", "wordID": 1402, "conditions": [24, 1600, "v", 24000], "trial": 3, "serialpos": 14, "trial_type": "single-stim", "trial_index": 131, "time_elapsed": 554789, "internal_node_id": "0.0-95.0"}}, {"uniqueid": "MTK0136:35H6S234SB7YPMTS8TLXMRQNSDW659", "current_trial": 132, "dateTime": 1509290802679, "trialdata": {"rt": -1, "stimulus": "<p id=\"stim\">IGLOO</p>", "key_press": -1, "type": "PRES_VIS", "word": "igloo", "wordID": 733, "conditions": [24, 1600, "v", 24000], "trial": 3, "serialpos": 15, "trial_type": "single-stim", "trial_index": 132, "time_elapsed": 557296, "internal_node_id": "0.0-96.0"}}, {"uniqueid": "MTK0136:35H6S234SB7YPMTS8TLXMRQNSDW659", "current_trial": 133, "dateTime": 1509290805285, "trialdata": {"rt": -1, "stimulus": "<p id=\"stim\">PUDDING</p>", "key_press": -1, "type": "PRES_VIS", "word": "pudding", "wordID": 1138, "conditions": [24, 1600, "v", 24000], "trial": 3, "serialpos": 16, "trial_type": "single-stim", "trial_index": 133, "time_elapsed": 559902, "internal_node_id": "0.0-97.0"}}, {"uniqueid": "MTK0136:35H6S234SB7YPMTS8TLXMRQNSDW659", "current_trial": 134, "dateTime": 1509290807770, "trialdata": {"rt": -1, "stimulus": "<p id=\"stim\">LADY</p>", "key_press": -1, "type": "PRES_VIS", "word": "lady", "wordID": 793, "conditions": [24, 1600, "v", 24000], "trial": 3, "serialpos": 17, "trial_type": "single-stim", "trial_index": 134, "time_elapsed": 562387, "internal_node_id": "0.0-98.0"}}, {"uniqueid": "MTK0136:35H6S234SB7YPMTS8TLXMRQNSDW659", "current_trial": 135, "dateTime": 1509290810520, "trialdata": {"rt": -1, "stimulus": "<p id=\"stim\">SCRIBBLE</p>", "key_press": -1, "type": "PRES_VIS", "word": "scribble", "wordID": 1255, "conditions": [24, 1600, "v", 24000], "trial": 3, "serialpos": 18, "trial_type": "single-stim", "trial_index": 135, "time_elapsed": 565137, "internal_node_id": "0.0-99.0"}}, {"uniqueid": "MTK0136:35H6S234SB7YPMTS8TLXMRQNSDW659", "current_trial": 136, "dateTime": 1509290813180, "trialdata": {"rt": -1, "stimulus": "<p id=\"stim\">BODY</p>", "key_press": -1, "type": "PRES_VIS", "word": "body", "wordID": 144, "conditions": [24, 1600, "v", 24000], "trial": 3, "serialpos": 19, "trial_type": "single-stim", "trial_index": 136, "time_elapsed": 567797, "internal_node_id": "0.0-100.0"}}, {"uniqueid": "MTK0136:35H6S234SB7YPMTS8TLXMRQNSDW659", "current_trial": 137, "dateTime": 1509290815877, "trialdata": {"rt": -1, "stimulus": "<p id=\"stim\">WOMAN</p>", "key_press": -1, "type": "PRES_VIS", "word": "woman", "wordID": 1619, "conditions": [24, 1600, "v", 24000], "trial": 3, "serialpos": 20, "trial_type": "single-stim", "trial_index": 137, "time_elapsed": 570494, "internal_node_id": "0.0-101.0"}}, {"uniqueid": "MTK0136:35H6S234SB7YPMTS8TLXMRQNSDW659", "current_trial": 138, "dateTime": 1509290818279, "trialdata": {"rt": -1, "stimulus": "<p id=\"stim\">STICKER</p>", "key_press": -1, "type": "PRES_VIS", "word": "sticker", "wordID": 1381, "conditions": [24, 1600, "v", 24000], "trial": 3, "serialpos": 21, "trial_type": "single-stim", "trial_index": 138, "time_elapsed": 572896, "internal_node_id": "0.0-102.0"}}, {"uniqueid": "MTK0136:35H6S234SB7YPMTS8TLXMRQNSDW659", "current_trial": 139, "dateTime": 1509290820847, "trialdata": {"rt": -1, "stimulus": "<p id=\"stim\">CLAMP</p>", "key_press": -1, "type": "PRES_VIS", "word": "clamp", "wordID": 315, "conditions": [24, 1600, "v", 24000], "trial": 3, "serialpos": 22, "trial_type": "single-stim", "trial_index": 139, "time_elapsed": 575464, "internal_node_id": "0.0-103.0"}}, {"uniqueid": "MTK0136:35H6S234SB7YPMTS8TLXMRQNSDW659", "current_trial": 140, "dateTime": 1509290823306, "trialdata": {"rt": -1, "stimulus": "<p id=\"stim\">LAKE</p>", "key_press": -1, "type": "PRES_VIS", "word": "lake", "wordID": 795, "conditions": [24, 1600, "v", 24000], "trial": 3, "serialpos": 23, "trial_type": "single-stim", "trial_index": 140, "time_elapsed": 577922, "internal_node_id": "0.0-104.0"}}, {"uniqueid": "MTK0136:35H6S234SB7YPMTS8TLXMRQNSDW659", "current_trial": 141, "dateTime": 1509290825629, "trialdata": {"rt": -1, "stimulus": "", "key_press": -1, "type": "PRE_RECALL_DELAY", "trial_type": "single-stim", "trial_index": 141, "time_elapsed": 580246, "internal_node_id": "0.0-105.0-0.0"}}, {"uniqueid": "MTK0136:35H6S234SB7YPMTS8TLXMRQNSDW659", "current_trial": 142, "dateTime": 1509290826133, "trialdata": {"rt": -1000, "stimulus": "/static/audio/400Hz.wav", "key_press": -1, "type": "PRE_RECALL_ALERT", "trial_type": "single-audio", "trial_index": 142, "time_elapsed": 580750, "internal_node_id": "0.0-106.0"}}, {"uniqueid": "MTK0136:35H6S234SB7YPMTS8TLXMRQNSDW659", "current_trial": 143, "dateTime": 1509290886144, "trialdata": {"rt": [3475, 4668, 6081, 7530, 11637, 14664, 17496, 36195, 37645, 42836, 46121], "recwords": ["student", "dorm", "cobra", "lady", "clamp", "lamp", "travel", "frame", "window", "lever", "special"], "type": "FREE_RECALL", "conditions": [24, 1600, "v", 24000], "trial": 3, "trial_type": "free-recall", "trial_index": 143, "time_elapsed": 640755, "internal_node_id": "0.0-107.0-0.0"}}, {"uniqueid": "MTK0136:35H6S234SB7YPMTS8TLXMRQNSDW659", "current_trial": 144, "dateTime": 1509290888920, "trialdata": {"rt": 775, "key_press": 74, "type": "INSTRUCTIONS", "trial_type": "text", "trial_index": 144, "time_elapsed": 643537, "internal_node_id": "0.0-108.0"}}, {"uniqueid": "MTK0136:35H6S234SB7YPMTS8TLXMRQNSDW659", "current_trial": 145, "dateTime": 1509290914931, "trialdata": {"rt": [2419, 6331, 8727, 14443, 17317, 20101, 23367], "responses": ["16", "20", "6", "6", "11", "15", "17"], "num1": [4, 7, 1, 3, 5, 9, 9, 8], "num2": [9, 9, 2, 2, 1, 3, 3, 1], "num3": [3, 4, 3, 1, 5, 3, 5, 4], "type": "DISTRACTOR", "conditions": [24, 800, "v", 24000], "trial": 4, "trial_type": "math-distractor", "trial_index": 145, "time_elapsed": 669544, "internal_node_id": "0.0-109.0"}}, {"uniqueid": "MTK0136:35H6S234SB7YPMTS8TLXMRQNSDW659", "current_trial": 146, "dateTime": 1509290917934, "trialdata": {"rt": -1, "stimulus": "<p id=\"stim\">10</p>", "key_press": -1, "trial_type": "single-stim", "trial_index": 146, "time_elapsed": 672551, "internal_node_id": "0.0-110.0-0.0"}}, {"uniqueid": "MTK0136:35H6S234SB7YPMTS8TLXMRQNSDW659", "current_trial": 147, "dateTime": 1509290918936, "trialdata": {"rt": -1, "stimulus": "<p id=\"stim\">9</p>", "key_press": -1, "trial_type": "single-stim", "trial_index": 147, "time_elapsed": 673553, "internal_node_id": "0.0-110.0-1.0"}}, {"uniqueid": "MTK0136:35H6S234SB7YPMTS8TLXMRQNSDW659", "current_trial": 148, "dateTime": 1509290919937, "trialdata": {"rt": -1, "stimulus": "<p id=\"stim\">8</p>", "key_press": -1, "trial_type": "single-stim", "trial_index": 148, "time_elapsed": 674554, "internal_node_id": "0.0-110.0-2.0"}}, {"uniqueid": "MTK0136:35H6S234SB7YPMTS8TLXMRQNSDW659", "current_trial": 149, "dateTime": 1509290920939, "trialdata": {"rt": -1, "stimulus": "<p id=\"stim\">7</p>", "key_press": -1, "trial_type": "single-stim", "trial_index": 149, "time_elapsed": 675556, "internal_node_id": "0.0-110.0-3.0"}}, {"uniqueid": "MTK0136:35H6S234SB7YPMTS8TLXMRQNSDW659", "current_trial": 150, "dateTime": 1509290921940, "trialdata": {"rt": -1, "stimulus": "<p id=\"stim\">6</p>", "key_press": -1, "trial_type": "single-stim", "trial_index": 150, "time_elapsed": 676557, "internal_node_id": "0.0-110.0-4.0"}}, {"uniqueid": "MTK0136:35H6S234SB7YPMTS8TLXMRQNSDW659", "current_trial": 151, "dateTime": 1509290922941, "trialdata": {"rt": -1, "stimulus": "<p id=\"stim\">5</p>", "key_press": -1, "trial_type": "single-stim", "trial_index": 151, "time_elapsed": 677558, "internal_node_id": "0.0-110.0-5.0"}}, {"uniqueid": "MTK0136:35H6S234SB7YPMTS8TLXMRQNSDW659", "current_trial": 152, "dateTime": 1509290923944, "trialdata": {"rt": -1, "stimulus": "<p id=\"stim\">4</p>", "key_press": -1, "trial_type": "single-stim", "trial_index": 152, "time_elapsed": 678561, "internal_node_id": "0.0-110.0-6.0"}}, {"uniqueid": "MTK0136:35H6S234SB7YPMTS8TLXMRQNSDW659", "current_trial": 153, "dateTime": 1509290924947, "trialdata": {"rt": -1, "stimulus": "<p id=\"stim\">3</p>", "key_press": -1, "trial_type": "single-stim", "trial_index": 153, "time_elapsed": 679564, "internal_node_id": "0.0-110.0-7.0"}}, {"uniqueid": "MTK0136:35H6S234SB7YPMTS8TLXMRQNSDW659", "current_trial": 154, "dateTime": 1509290925949, "trialdata": {"rt": -1, "stimulus": "<p id=\"stim\">2</p>", "key_press": -1, "trial_type": "single-stim", "trial_index": 154, "time_elapsed": 680566, "internal_node_id": "0.0-110.0-8.0"}}, {"uniqueid": "MTK0136:35H6S234SB7YPMTS8TLXMRQNSDW659", "current_trial": 155, "dateTime": 1509290926951, "trialdata": {"rt": -1, "stimulus": "<p id=\"stim\">1</p>", "key_press": -1, "trial_type": "single-stim", "trial_index": 155, "time_elapsed": 681567, "internal_node_id": "0.0-110.0-9.0"}}, {"uniqueid": "MTK0136:35H6S234SB7YPMTS8TLXMRQNSDW659", "current_trial": 156, "dateTime": 1509290928453, "trialdata": {"rt": -1, "stimulus": "<p id=\"stim\">+</p>", "key_press": -1, "type": "FIXATION", "trial_type": "single-stim", "trial_index": 156, "time_elapsed": 683070, "internal_node_id": "0.0-111.0-0.0"}}, {"uniqueid": "MTK0136:35H6S234SB7YPMTS8TLXMRQNSDW659", "current_trial": 157, "dateTime": 1509290929254, "trialdata": {"rt": -1, "stimulus": "<p id=\"stim\">GRILL</p>", "key_press": -1, "type": "PRES_VIS", "word": "grill", "wordID": 660, "conditions": [24, 800, "v", 24000], "trial": 4, "serialpos": 0, "trial_type": "single-stim", "trial_index": 157, "time_elapsed": 683870, "internal_node_id": "0.0-112.0"}}, {"uniqueid": "MTK0136:35H6S234SB7YPMTS8TLXMRQNSDW659", "current_trial": 158, "dateTime": 1509290930949, "trialdata": {"rt": -1, "stimulus": "<p id=\"stim\">CHAMPAGNE</p>", "key_press": -1, "type": "PRES_VIS", "word": "champagne", "wordID": 277, "conditions": [24, 800, "v", 24000], "trial": 4, "serialpos": 1, "trial_type": "single-stim", "trial_index": 158, "time_elapsed": 685566, "internal_node_id": "0.0-113.0"}}, {"uniqueid": "MTK0136:35H6S234SB7YPMTS8TLXMRQNSDW659", "current_trial": 159, "dateTime": 1509290932814, "trialdata": {"rt": -1, "stimulus": "<p id=\"stim\">TEMPLE</p>", "key_press": -1, "type": "PRES_VIS", "word": "temple", "wordID": 1447, "conditions": [24, 800, "v", 24000], "trial": 4, "serialpos": 2, "trial_type": "single-stim", "trial_index": 159, "time_elapsed": 687431, "internal_node_id": "0.0-114.0"}}, {"uniqueid": "MTK0136:35H6S234SB7YPMTS8TLXMRQNSDW659", "current_trial": 160, "dateTime": 1509290934752, "trialdata": {"rt": -1, "stimulus": "<p id=\"stim\">RIFLE</p>", "key_press": -1, "type": "PRES_VIS", "word": "rifle", "wordID": 1191, "conditions": [24, 800, "v", 24000], "trial": 4, "serialpos": 3, "trial_type": "single-stim", "trial_index": 160, "time_elapsed": 689369, "internal_node_id": "0.0-115.0"}}, {"uniqueid": "MTK0136:35H6S234SB7YPMTS8TLXMRQNSDW659", "current_trial": 161, "dateTime": 1509290936490, "trialdata": {"rt": -1, "stimulus": "<p id=\"stim\">CURTAIN</p>", "key_press": -1, "type": "PRES_VIS", "word": "curtain", "wordID": 426, "conditions": [24, 800, "v", 24000], "trial": 4, "serialpos": 4, "trial_type": "single-stim", "trial_index": 161, "time_elapsed": 691107, "internal_node_id": "0.0-116.0"}}, {"uniqueid": "MTK0136:35H6S234SB7YPMTS8TLXMRQNSDW659", "current_trial": 162, "dateTime": 1509290938327, "trialdata": {"rt": -1, "stimulus": "<p id=\"stim\">SISTER</p>", "key_press": -1, "type": "PRES_VIS", "word": "sister", "wordID": 1311, "conditions": [24, 800, "v", 24000], "trial": 4, "serialpos": 5, "trial_type": "single-stim", "trial_index": 162, "time_elapsed": 692944, "internal_node_id": "0.0-117.0"}}, {"uniqueid": "MTK0136:35H6S234SB7YPMTS8TLXMRQNSDW659", "current_trial": 163, "dateTime": 1509290940233, "trialdata": {"rt": -1, "stimulus": "<p id=\"stim\">MUSTARD</p>", "key_press": -1, "type": "PRES_VIS", "word": "mustard", "wordID": 934, "conditions": [24, 800, "v", 24000], "trial": 4, "serialpos": 6, "trial_type": "single-stim", "trial_index": 163, "time_elapsed": 694850, "internal_node_id": "0.0-118.0"}}, {"uniqueid": "MTK0136:35H6S234SB7YPMTS8TLXMRQNSDW659", "current_trial": 164, "dateTime": 1509290941946, "trialdata": {"rt": -1, "stimulus": "<p id=\"stim\">CUSTARD</p>", "key_press": -1, "type": "PRES_VIS", "word": "custard", "wordID": 428, "conditions": [24, 800, "v", 24000], "trial": 4, "serialpos": 7, "trial_type": "single-stim", "trial_index": 164, "time_elapsed": 696563, "internal_node_id": "0.0-119.0"}}, {"uniqueid": "MTK0136:35H6S234SB7YPMTS8TLXMRQNSDW659", "current_trial": 165, "dateTime": 1509290943647, "trialdata": {"rt": -1, "stimulus": "<p id=\"stim\">WAITER</p>", "key_press": -1, "type": "PRES_VIS", "word": "waiter", "wordID": 1579, "conditions": [24, 800, "v", 24000], "trial": 4, "serialpos": 8, "trial_type": "single-stim", "trial_index": 165, "time_elapsed": 698264, "internal_node_id": "0.0-120.0"}}, {"uniqueid": "MTK0136:35H6S234SB7YPMTS8TLXMRQNSDW659", "current_trial": 166, "dateTime": 1509290945614, "trialdata": {"rt": -1, "stimulus": "<p id=\"stim\">BASEMENT</p>", "key_press": -1, "type": "PRES_VIS", "word": "basement", "wordID": 93, "conditions": [24, 800, "v", 24000], "trial": 4, "serialpos": 9, "trial_type": "single-stim", "trial_index": 166, "time_elapsed": 700231, "internal_node_id": "0.0-121.0"}}, {"uniqueid": "MTK0136:35H6S234SB7YPMTS8TLXMRQNSDW659", "current_trial": 167, "dateTime": 1509290947256, "trialdata": {"rt": -1, "stimulus": "<p id=\"stim\">CELLAR</p>", "key_press": -1, "type": "PRES_VIS", "word": "cellar", "wordID": 266, "conditions": [24, 800, "v", 24000], "trial": 4, "serialpos": 10, "trial_type": "single-stim", "trial_index": 167, "time_elapsed": 701872, "internal_node_id": "0.0-122.0"}}, {"uniqueid": "MTK0136:35H6S234SB7YPMTS8TLXMRQNSDW659", "current_trial": 168, "dateTime": 1509290949117, "trialdata": {"rt": -1, "stimulus": "<p id=\"stim\">COUSIN</p>", "key_press": -1, "type": "PRES_VIS", "word": "cousin", "wordID": 391, "conditions": [24, 800, "v", 24000], "trial": 4, "serialpos": 11, "trial_type": "single-stim", "trial_index": 168, "time_elapsed": 703734, "internal_node_id": "0.0-123.0"}}, {"uniqueid": "MTK0136:35H6S234SB7YPMTS8TLXMRQNSDW659", "current_trial": 169, "dateTime": 1509290950880, "trialdata": {"rt": -1, "stimulus": "<p id=\"stim\">REPORT</p>", "key_press": -1, "type": "PRES_VIS", "word": "report", "wordID": 1183, "conditions": [24, 800, "v", 24000], "trial": 4, "serialpos": 12, "trial_type": "single-stim", "trial_index": 169, "time_elapsed": 705497, "internal_node_id": "0.0-124.0"}}, {"uniqueid": "MTK0136:35H6S234SB7YPMTS8TLXMRQNSDW659", "current_trial": 170, "dateTime": 1509290952610, "trialdata": {"rt": -1, "stimulus": "<p id=\"stim\">FLASHLIGHT</p>", "key_press": -1, "type": "PRES_VIS", "word": "flashlight", "wordID": 574, "conditions": [24, 800, "v", 24000], "trial": 4, "serialpos": 13, "trial_type": "single-stim", "trial_index": 170, "time_elapsed": 707226, "internal_node_id": "0.0-125.0"}}, {"uniqueid": "MTK0136:35H6S234SB7YPMTS8TLXMRQNSDW659", "current_trial": 171, "dateTime": 1509290954253, "trialdata": {"rt": -1, "stimulus": "<p id=\"stim\">PANTHER</p>", "key_press": -1, "type": "PRES_VIS", "word": "panther", "wordID": 1008, "conditions": [24, 800, "v", 24000], "trial": 4, "serialpos": 14, "trial_type": "single-stim", "trial_index": 171, "time_elapsed": 708870, "internal_node_id": "0.0-126.0"}}, {"uniqueid": "MTK0136:35H6S234SB7YPMTS8TLXMRQNSDW659", "current_trial": 172, "dateTime": 1509290956240, "trialdata": {"rt": -1, "stimulus": "<p id=\"stim\">TURTLE</p>", "key_press": -1, "type": "PRES_VIS", "word": "turtle", "wordID": 1521, "conditions": [24, 800, "v", 24000], "trial": 4, "serialpos": 15, "trial_type": "single-stim", "trial_index": 172, "time_elapsed": 710856, "internal_node_id": "0.0-127.0"}}, {"uniqueid": "MTK0136:35H6S234SB7YPMTS8TLXMRQNSDW659", "current_trial": 173, "dateTime": 1509290958223, "trialdata": {"rt": -1, "stimulus": "<p id=\"stim\">DONKEY</p>", "key_press": -1, "type": "PRES_VIS", "word": "donkey", "wordID": 483, "conditions": [24, 800, "v", 24000], "trial": 4, "serialpos": 16, "trial_type": "single-stim", "trial_index": 173, "time_elapsed": 712840, "internal_node_id": "0.0-128.0"}}, {"uniqueid": "MTK0136:35H6S234SB7YPMTS8TLXMRQNSDW659", "current_trial": 174, "dateTime": 1509290960069, "trialdata": {"rt": -1, "stimulus": "<p id=\"stim\">DAUGHTER</p>", "key_press": -1, "type": "PRES_VIS", "word": "daughter", "wordID": 441, "conditions": [24, 800, "v", 24000], "trial": 4, "serialpos": 17, "trial_type": "single-stim", "trial_index": 174, "time_elapsed": 714686, "internal_node_id": "0.0-129.0"}}, {"uniqueid": "MTK0136:35H6S234SB7YPMTS8TLXMRQNSDW659", "current_trial": 175, "dateTime": 1509290962040, "trialdata": {"rt": -1, "stimulus": "<p id=\"stim\">PENGUIN</p>", "key_press": -1, "type": "PRES_VIS", "word": "penguin", "wordID": 1043, "conditions": [24, 800, "v", 24000], "trial": 4, "serialpos": 18, "trial_type": "single-stim", "trial_index": 175, "time_elapsed": 716657, "internal_node_id": "0.0-130.0"}}, {"uniqueid": "MTK0136:35H6S234SB7YPMTS8TLXMRQNSDW659", "current_trial": 176, "dateTime": 1509290964012, "trialdata": {"rt": -1, "stimulus": "<p id=\"stim\">KNAPSACK</p>", "key_press": -1, "type": "PRES_VIS", "word": "knapsack", "wordID": 782, "conditions": [24, 800, "v", 24000], "trial": 4, "serialpos": 19, "trial_type": "single-stim", "trial_index": 176, "time_elapsed": 718629, "internal_node_id": "0.0-131.0"}}, {"uniqueid": "MTK0136:35H6S234SB7YPMTS8TLXMRQNSDW659", "current_trial": 177, "dateTime": 1509290965632, "trialdata": {"rt": -1, "stimulus": "<p id=\"stim\">WHISKERS</p>", "key_press": -1, "type": "PRES_VIS", "word": "whiskers", "wordID": 1604, "conditions": [24, 800, "v", 24000], "trial": 4, "serialpos": 20, "trial_type": "single-stim", "trial_index": 177, "time_elapsed": 720249, "internal_node_id": "0.0-132.0"}}, {"uniqueid": "MTK0136:35H6S234SB7YPMTS8TLXMRQNSDW659", "current_trial": 178, "dateTime": 1509290967240, "trialdata": {"rt": -1, "stimulus": "<p id=\"stim\">BUNNY</p>", "key_press": -1, "type": "PRES_VIS", "word": "bunny", "wordID": 197, "conditions": [24, 800, "v", 24000], "trial": 4, "serialpos": 21, "trial_type": "single-stim", "trial_index": 178, "time_elapsed": 721857, "internal_node_id": "0.0-133.0"}}, {"uniqueid": "MTK0136:35H6S234SB7YPMTS8TLXMRQNSDW659", "current_trial": 179, "dateTime": 1509290969140, "trialdata": {"rt": -1, "stimulus": "<p id=\"stim\">WITNESS</p>", "key_press": -1, "type": "PRES_VIS", "word": "witness", "wordID": 1617, "conditions": [24, 800, "v", 24000], "trial": 4, "serialpos": 22, "trial_type": "single-stim", "trial_index": 179, "time_elapsed": 723757, "internal_node_id": "0.0-134.0"}}, {"uniqueid": "MTK0136:35H6S234SB7YPMTS8TLXMRQNSDW659", "current_trial": 180, "dateTime": 1509290971137, "trialdata": {"rt": -1, "stimulus": "<p id=\"stim\">TWISTER</p>", "key_press": -1, "type": "PRES_VIS", "word": "twister", "wordID": 1529, "conditions": [24, 800, "v", 24000], "trial": 4, "serialpos": 23, "trial_type": "single-stim", "trial_index": 180, "time_elapsed": 725754, "internal_node_id": "0.0-135.0"}}, {"uniqueid": "MTK0136:35H6S234SB7YPMTS8TLXMRQNSDW659", "current_trial": 181, "dateTime": 1509290973475, "trialdata": {"rt": -1, "stimulus": "", "key_press": -1, "type": "PRE_RECALL_DELAY", "trial_type": "single-stim", "trial_index": 181, "time_elapsed": 728092, "internal_node_id": "0.0-136.0-0.0"}}, {"uniqueid": "MTK0136:35H6S234SB7YPMTS8TLXMRQNSDW659", "current_trial": 182, "dateTime": 1509290973977, "trialdata": {"rt": -1000, "stimulus": "/static/audio/400Hz.wav", "key_press": -1, "type": "PRE_RECALL_ALERT", "trial_type": "single-audio", "trial_index": 182, "time_elapsed": 728594, "internal_node_id": "0.0-137.0"}}, {"uniqueid": "MTK0136:35H6S234SB7YPMTS8TLXMRQNSDW659", "current_trial": 183, "dateTime": 1509291033986, "trialdata": {"rt": [3258, 4820, 6418, 9120, 13528, 18286, 20673, 23851, 30258], "recwords": ["sister", "mustard", "custard", "airport", "framework", "panther", "window", "twister", "flashlight"], "type": "FREE_RECALL", "conditions": [24, 800, "v", 24000], "trial": 4, "trial_type": "free-recall", "trial_index": 183, "time_elapsed": 788599, "internal_node_id": "0.0-138.0-0.0"}}, {"uniqueid": "MTK0136:35H6S234SB7YPMTS8TLXMRQNSDW659", "current_trial": 184, "dateTime": 1509291036782, "trialdata": {"rt": 793, "key_press": 70, "type": "INSTRUCTIONS", "trial_type": "text", "trial_index": 184, "time_elapsed": 791399, "internal_node_id": "0.0-139.0"}}, {"uniqueid": "MTK0136:35H6S234SB7YPMTS8TLXMRQNSDW659", "current_trial": 185, "dateTime": 1509291062789, "trialdata": {"rt": [3831, 6163, 8810, 23929], "responses": ["16", "12", "15", "16"], "num1": [4, 3, 8, 3, 8], "num2": [2, 1, 3, 8, 8], "num3": [9, 8, 4, 3, 3], "type": "DISTRACTOR", "conditions": [12, 800, "v", 24000], "trial": 5, "trial_type": "math-distractor", "trial_index": 185, "time_elapsed": 817406, "internal_node_id": "0.0-140.0"}}, {"uniqueid": "MTK0136:35H6S234SB7YPMTS8TLXMRQNSDW659", "current_trial": 186, "dateTime": 1509291065791, "trialdata": {"rt": -1, "stimulus": "<p id=\"stim\">10</p>", "key_press": -1, "trial_type": "single-stim", "trial_index": 186, "time_elapsed": 820407, "internal_node_id": "0.0-141.0-0.0"}}, {"uniqueid": "MTK0136:35H6S234SB7YPMTS8TLXMRQNSDW659", "current_trial": 187, "dateTime": 1509291066792, "trialdata": {"rt": -1, "stimulus": "<p id=\"stim\">9</p>", "key_press": -1, "trial_type": "single-stim", "trial_index": 187, "time_elapsed": 821409, "internal_node_id": "0.0-141.0-1.0"}}, {"uniqueid": "MTK0136:35H6S234SB7YPMTS8TLXMRQNSDW659", "current_trial": 188, "dateTime": 1509291067794, "trialdata": {"rt": -1, "stimulus": "<p id=\"stim\">8</p>", "key_press": -1, "trial_type": "single-stim", "trial_index": 188, "time_elapsed": 822410, "internal_node_id": "0.0-141.0-2.0"}}, {"uniqueid": "MTK0136:35H6S234SB7YPMTS8TLXMRQNSDW659", "current_trial": 189, "dateTime": 1509291068795, "trialdata": {"rt": -1, "stimulus": "<p id=\"stim\">7</p>", "key_press": -1, "trial_type": "single-stim", "trial_index": 189, "time_elapsed": 823412, "internal_node_id": "0.0-141.0-3.0"}}, {"uniqueid": "MTK0136:35H6S234SB7YPMTS8TLXMRQNSDW659", "current_trial": 190, "dateTime": 1509291069796, "trialdata": {"rt": -1, "stimulus": "<p id=\"stim\">6</p>", "key_press": -1, "trial_type": "single-stim", "trial_index": 190, "time_elapsed": 824412, "internal_node_id": "0.0-141.0-4.0"}}, {"uniqueid": "MTK0136:35H6S234SB7YPMTS8TLXMRQNSDW659", "current_trial": 191, "dateTime": 1509291070798, "trialdata": {"rt": -1, "stimulus": "<p id=\"stim\">5</p>", "key_press": -1, "trial_type": "single-stim", "trial_index": 191, "time_elapsed": 825415, "internal_node_id": "0.0-141.0-5.0"}}, {"uniqueid": "MTK0136:35H6S234SB7YPMTS8TLXMRQNSDW659", "current_trial": 192, "dateTime": 1509291071800, "trialdata": {"rt": -1, "stimulus": "<p id=\"stim\">4</p>", "key_press": -1, "trial_type": "single-stim", "trial_index": 192, "time_elapsed": 826417, "internal_node_id": "0.0-141.0-6.0"}}, {"uniqueid": "MTK0136:35H6S234SB7YPMTS8TLXMRQNSDW659", "current_trial": 193, "dateTime": 1509291072801, "trialdata": {"rt": -1, "stimulus": "<p id=\"stim\">3</p>", "key_press": -1, "trial_type": "single-stim", "trial_index": 193, "time_elapsed": 827418, "internal_node_id": "0.0-141.0-7.0"}}, {"uniqueid": "MTK0136:35H6S234SB7YPMTS8TLXMRQNSDW659", "current_trial": 194, "dateTime": 1509291073804, "trialdata": {"rt": -1, "stimulus": "<p id=\"stim\">2</p>", "key_press": -1, "trial_type": "single-stim", "trial_index": 194, "time_elapsed": 828421, "internal_node_id": "0.0-141.0-8.0"}}, {"uniqueid": "MTK0136:35H6S234SB7YPMTS8TLXMRQNSDW659", "current_trial": 195, "dateTime": 1509291074807, "trialdata": {"rt": -1, "stimulus": "<p id=\"stim\">1</p>", "key_press": -1, "trial_type": "single-stim", "trial_index": 195, "time_elapsed": 829424, "internal_node_id": "0.0-141.0-9.0"}}, {"uniqueid": "MTK0136:35H6S234SB7YPMTS8TLXMRQNSDW659", "current_trial": 196, "dateTime": 1509291076309, "trialdata": {"rt": -1, "stimulus": "<p id=\"stim\">+</p>", "key_press": -1, "type": "FIXATION", "trial_type": "single-stim", "trial_index": 196, "time_elapsed": 830925, "internal_node_id": "0.0-142.0-0.0"}}, {"uniqueid": "MTK0136:35H6S234SB7YPMTS8TLXMRQNSDW659", "current_trial": 197, "dateTime": 1509291077111, "trialdata": {"rt": -1, "stimulus": "<p id=\"stim\">MAMMAL</p>", "key_press": -1, "type": "PRES_VIS", "word": "mammal", "wordID": 860, "conditions": [12, 800, "v", 24000], "trial": 5, "serialpos": 0, "trial_type": "single-stim", "trial_index": 197, "time_elapsed": 831728, "internal_node_id": "0.0-143.0"}}, {"uniqueid": "MTK0136:35H6S234SB7YPMTS8TLXMRQNSDW659", "current_trial": 198, "dateTime": 1509291079090, "trialdata": {"rt": -1, "stimulus": "<p id=\"stim\">SOFTBALL</p>", "key_press": -1, "type": "PRES_VIS", "word": "softball", "wordID": 1342, "conditions": [12, 800, "v", 24000], "trial": 5, "serialpos": 1, "trial_type": "single-stim", "trial_index": 198, "time_elapsed": 833707, "internal_node_id": "0.0-144.0"}}, {"uniqueid": "MTK0136:35H6S234SB7YPMTS8TLXMRQNSDW659", "current_trial": 199, "dateTime": 1509291080895, "trialdata": {"rt": -1, "stimulus": "<p id=\"stim\">PICNIC</p>", "key_press": -1, "type": "PRES_VIS", "word": "picnic", "wordID": 1059, "conditions": [12, 800, "v", 24000], "trial": 5, "serialpos": 2, "trial_type": "single-stim", "trial_index": 199, "time_elapsed": 835512, "internal_node_id": "0.0-145.0"}}, {"uniqueid": "MTK0136:35H6S234SB7YPMTS8TLXMRQNSDW659", "current_trial": 200, "dateTime": 1509291082741, "trialdata": {"rt": -1, "stimulus": "<p id=\"stim\">FLASK</p>", "key_press": -1, "type": "PRES_VIS", "word": "flask", "wordID": 575, "conditions": [12, 800, "v", 24000], "trial": 5, "serialpos": 3, "trial_type": "single-stim", "trial_index": 200, "time_elapsed": 837357, "internal_node_id": "0.0-146.0"}}, {"uniqueid": "MTK0136:35H6S234SB7YPMTS8TLXMRQNSDW659", "current_trial": 201, "dateTime": 1509291084642, "trialdata": {"rt": -1, "stimulus": "<p id=\"stim\">SHARK</p>", "key_press": -1, "type": "PRES_VIS", "word": "shark", "wordID": 1274, "conditions": [12, 800, "v", 24000], "trial": 5, "serialpos": 4, "trial_type": "single-stim", "trial_index": 201, "time_elapsed": 839259, "internal_node_id": "0.0-147.0"}}, {"uniqueid": "MTK0136:35H6S234SB7YPMTS8TLXMRQNSDW659", "current_trial": 202, "dateTime": 1509291086412, "trialdata": {"rt": -1, "stimulus": "<p id=\"stim\">GAVEL</p>", "key_press": -1, "type": "PRES_VIS", "word": "gavel", "wordID": 626, "conditions": [12, 800, "v", 24000], "trial": 5, "serialpos": 5, "trial_type": "single-stim", "trial_index": 202, "time_elapsed": 841028, "internal_node_id": "0.0-148.0"}}, {"uniqueid": "MTK0136:35H6S234SB7YPMTS8TLXMRQNSDW659", "current_trial": 203, "dateTime": 1509291088193, "trialdata": {"rt": -1, "stimulus": "<p id=\"stim\">GRAVE</p>", "key_press": -1, "type": "PRES_VIS", "word": "grave", "wordID": 657, "conditions": [12, 800, "v", 24000], "trial": 5, "serialpos": 6, "trial_type": "single-stim", "trial_index": 203, "time_elapsed": 842810, "internal_node_id": "0.0-149.0"}}, {"uniqueid": "MTK0136:35H6S234SB7YPMTS8TLXMRQNSDW659", "current_trial": 204, "dateTime": 1509291090050, "trialdata": {"rt": -1, "stimulus": "<p id=\"stim\">SNACK</p>", "key_press": -1, "type": "PRES_VIS", "word": "snack", "wordID": 1330, "conditions": [12, 800, "v", 24000], "trial": 5, "serialpos": 7, "trial_type": "single-stim", "trial_index": 204, "time_elapsed": 844667, "internal_node_id": "0.0-150.0"}}, {"uniqueid": "MTK0136:35H6S234SB7YPMTS8TLXMRQNSDW659", "current_trial": 205, "dateTime": 1509291091872, "trialdata": {"rt": -1, "stimulus": "<p id=\"stim\">MISTER</p>", "key_press": -1, "type": "PRES_VIS", "word": "mister", "wordID": 900, "conditions": [12, 800, "v", 24000], "trial": 5, "serialpos": 8, "trial_type": "single-stim", "trial_index": 205, "time_elapsed": 846487, "internal_node_id": "0.0-151.0"}}, {"uniqueid": "MTK0136:35H6S234SB7YPMTS8TLXMRQNSDW659", "current_trial": 206, "dateTime": 1509291093627, "trialdata": {"rt": -1, "stimulus": "<p id=\"stim\">HORNET</p>", "key_press": -1, "type": "PRES_VIS", "word": "hornet", "wordID": 717, "conditions": [12, 800, "v", 24000], "trial": 5, "serialpos": 9, "trial_type": "single-stim", "trial_index": 206, "time_elapsed": 848244, "internal_node_id": "0.0-152.0"}}, {"uniqueid": "MTK0136:35H6S234SB7YPMTS8TLXMRQNSDW659", "current_trial": 207, "dateTime": 1509291095442, "trialdata": {"rt": -1, "stimulus": "<p id=\"stim\">SODA</p>", "key_press": -1, "type": "PRES_VIS", "word": "soda", "wordID": 1340, "conditions": [12, 800, "v", 24000], "trial": 5, "serialpos": 10, "trial_type": "single-stim", "trial_index": 207, "time_elapsed": 850059, "internal_node_id": "0.0-153.0"}}, {"uniqueid": "MTK0136:35H6S234SB7YPMTS8TLXMRQNSDW659", "current_trial": 208, "dateTime": 1509291097212, "trialdata": {"rt": -1, "stimulus": "<p id=\"stim\">POPCORN</p>", "key_press": -1, "type": "PRES_VIS", "word": "popcorn", "wordID": 1103, "conditions": [12, 800, "v", 24000], "trial": 5, "serialpos": 11, "trial_type": "single-stim", "trial_index": 208, "time_elapsed": 851828, "internal_node_id": "0.0-154.0"}}, {"uniqueid": "MTK0136:35H6S234SB7YPMTS8TLXMRQNSDW659", "current_trial": 209, "dateTime": 1509291099325, "trialdata": {"rt": -1, "stimulus": "", "key_press": -1, "type": "PRE_RECALL_DELAY", "trial_type": "single-stim", "trial_index": 209, "time_elapsed": 853942, "internal_node_id": "0.0-155.0-0.0"}}, {"uniqueid": "MTK0136:35H6S234SB7YPMTS8TLXMRQNSDW659", "current_trial": 210, "dateTime": 1509291099826, "trialdata": {"rt": -1000, "stimulus": "/static/audio/400Hz.wav", "key_press": -1, "type": "PRE_RECALL_ALERT", "trial_type": "single-audio", "trial_index": 210, "time_elapsed": 854443, "internal_node_id": "0.0-156.0"}}, {"uniqueid": "MTK0136:35H6S234SB7YPMTS8TLXMRQNSDW659", "current_trial": 211, "dateTime": 1509291159838, "trialdata": {"rt": [1792, 4419, 7207, 8905, 14114, 15488, 31701, 39253], "recwords": ["flask", "hornet", "mister", "soda", "gravel", "grave", "laser", "matter"], "type": "FREE_RECALL", "conditions": [12, 800, "v", 24000], "trial": 5, "trial_type": "free-recall", "trial_index": 211, "time_elapsed": 914445, "internal_node_id": "0.0-157.0-0.0"}}, {"uniqueid": "MTK0136:35H6S234SB7YPMTS8TLXMRQNSDW659", "current_trial": 212, "dateTime": 1509291163344, "trialdata": {"rt": 1503, "key_press": 32, "type": "INSTRUCTIONS", "trial_type": "text", "trial_index": 212, "time_elapsed": 917961, "internal_node_id": "0.0-158.0"}}, {"uniqueid": "MTK0136:35H6S234SB7YPMTS8TLXMRQNSDW659", "current_trial": 213, "dateTime": 1509291189350, "trialdata": {"rt": [3138, 5526, 9796, 11790, 15201, 18219, 19938, 22232], "responses": ["12", "18", "14", "12", "13", "18", "14", "14"], "num1": [1, 3, 1, 5, 5, 7, 6, 9, 7], "num2": [2, 9, 7, 1, 3, 2, 1, 1, 1], "num3": [8, 6, 4, 6, 5, 9, 7, 4, 7], "type": "DISTRACTOR", "conditions": [12, 1600, "v", 24000], "trial": 6, "trial_type": "math-distractor", "trial_index": 213, "time_elapsed": 943967, "internal_node_id": "0.0-159.0"}}, {"uniqueid": "MTK0136:35H6S234SB7YPMTS8TLXMRQNSDW659", "current_trial": 214, "dateTime": 1509291192351, "trialdata": {"rt": -1, "stimulus": "<p id=\"stim\">10</p>", "key_press": -1, "trial_type": "single-stim", "trial_index": 214, "time_elapsed": 946968, "internal_node_id": "0.0-160.0-0.0"}}, {"uniqueid": "MTK0136:35H6S234SB7YPMTS8TLXMRQNSDW659", "current_trial": 215, "dateTime": 1509291193353, "trialdata": {"rt": -1, "stimulus": "<p id=\"stim\">9</p>", "key_press": -1, "trial_type": "single-stim", "trial_index": 215, "time_elapsed": 947970, "internal_node_id": "0.0-160.0-1.0"}}, {"uniqueid": "MTK0136:35H6S234SB7YPMTS8TLXMRQNSDW659", "current_trial": 216, "dateTime": 1509291194355, "trialdata": {"rt": -1, "stimulus": "<p id=\"stim\">8</p>", "key_press": -1, "trial_type": "single-stim", "trial_index": 216, "time_elapsed": 948971, "internal_node_id": "0.0-160.0-2.0"}}, {"uniqueid": "MTK0136:35H6S234SB7YPMTS8TLXMRQNSDW659", "current_trial": 217, "dateTime": 1509291195357, "trialdata": {"rt": -1, "stimulus": "<p id=\"stim\">7</p>", "key_press": -1, "trial_type": "single-stim", "trial_index": 217, "time_elapsed": 949973, "internal_node_id": "0.0-160.0-3.0"}}, {"uniqueid": "MTK0136:35H6S234SB7YPMTS8TLXMRQNSDW659", "current_trial": 218, "dateTime": 1509291196358, "trialdata": {"rt": -1, "stimulus": "<p id=\"stim\">6</p>", "key_press": -1, "trial_type": "single-stim", "trial_index": 218, "time_elapsed": 950975, "internal_node_id": "0.0-160.0-4.0"}}, {"uniqueid": "MTK0136:35H6S234SB7YPMTS8TLXMRQNSDW659", "current_trial": 219, "dateTime": 1509291197363, "trialdata": {"rt": -1, "stimulus": "<p id=\"stim\">5</p>", "key_press": -1, "trial_type": "single-stim", "trial_index": 219, "time_elapsed": 951980, "internal_node_id": "0.0-160.0-5.0"}}, {"uniqueid": "MTK0136:35H6S234SB7YPMTS8TLXMRQNSDW659", "current_trial": 220, "dateTime": 1509291198397, "trialdata": {"rt": -1, "stimulus": "<p id=\"stim\">4</p>", "key_press": -1, "trial_type": "single-stim", "trial_index": 220, "time_elapsed": 953013, "internal_node_id": "0.0-160.0-6.0"}}, {"uniqueid": "MTK0136:35H6S234SB7YPMTS8TLXMRQNSDW659", "current_trial": 221, "dateTime": 1509291199398, "trialdata": {"rt": -1, "stimulus": "<p id=\"stim\">3</p>", "key_press": -1, "trial_type": "single-stim", "trial_index": 221, "time_elapsed": 954014, "internal_node_id": "0.0-160.0-7.0"}}, {"uniqueid": "MTK0136:35H6S234SB7YPMTS8TLXMRQNSDW659", "current_trial": 222, "dateTime": 1509291200399, "trialdata": {"rt": -1, "stimulus": "<p id=\"stim\">2</p>", "key_press": -1, "trial_type": "single-stim", "trial_index": 222, "time_elapsed": 955016, "internal_node_id": "0.0-160.0-8.0"}}, {"uniqueid": "MTK0136:35H6S234SB7YPMTS8TLXMRQNSDW659", "current_trial": 223, "dateTime": 1509291201404, "trialdata": {"rt": -1, "stimulus": "<p id=\"stim\">1</p>", "key_press": -1, "trial_type": "single-stim", "trial_index": 223, "time_elapsed": 956020, "internal_node_id": "0.0-160.0-9.0"}}, {"uniqueid": "MTK0136:35H6S234SB7YPMTS8TLXMRQNSDW659", "current_trial": 224, "dateTime": 1509291202905, "trialdata": {"rt": -1, "stimulus": "<p id=\"stim\">+</p>", "key_press": -1, "type": "FIXATION", "trial_type": "single-stim", "trial_index": 224, "time_elapsed": 957522, "internal_node_id": "0.0-161.0-0.0"}}, {"uniqueid": "MTK0136:35H6S234SB7YPMTS8TLXMRQNSDW659", "current_trial": 225, "dateTime": 1509291204507, "trialdata": {"rt": -1, "stimulus": "<p id=\"stim\">COD</p>", "key_press": -1, "type": "PRES_VIS", "word": "cod", "wordID": 339, "conditions": [12, 1600, "v", 24000], "trial": 6, "serialpos": 0, "trial_type": "single-stim", "trial_index": 225, "time_elapsed": 959124, "internal_node_id": "0.0-162.0"}}, {"uniqueid": "MTK0136:35H6S234SB7YPMTS8TLXMRQNSDW659", "current_trial": 226, "dateTime": 1509291207184, "trialdata": {"rt": -1, "stimulus": "<p id=\"stim\">UNCLE</p>", "key_press": -1, "type": "PRES_VIS", "word": "uncle", "wordID": 1535, "conditions": [12, 1600, "v", 24000], "trial": 6, "serialpos": 1, "trial_type": "single-stim", "trial_index": 226, "time_elapsed": 961801, "internal_node_id": "0.0-163.0"}}, {"uniqueid": "MTK0136:35H6S234SB7YPMTS8TLXMRQNSDW659", "current_trial": 227, "dateTime": 1509291209950, "trialdata": {"rt": -1, "stimulus": "<p id=\"stim\">HOOK</p>", "key_press": -1, "type": "PRES_VIS", "word": "hook", "wordID": 714, "conditions": [12, 1600, "v", 24000], "trial": 6, "serialpos": 2, "trial_type": "single-stim", "trial_index": 227, "time_elapsed": 964566, "internal_node_id": "0.0-164.0"}}, {"uniqueid": "MTK0136:35H6S234SB7YPMTS8TLXMRQNSDW659", "current_trial": 228, "dateTime": 1509291212562, "trialdata": {"rt": -1, "stimulus": "<p id=\"stim\">FLOWER</p>", "key_press": -1, "type": "PRES_VIS", "word": "flower", "wordID": 583, "conditions": [12, 1600, "v", 24000], "trial": 6, "serialpos": 3, "trial_type": "single-stim", "trial_index": 228, "time_elapsed": 967179, "internal_node_id": "0.0-165.0"}}, {"uniqueid": "MTK0136:35H6S234SB7YPMTS8TLXMRQNSDW659", "current_trial": 229, "dateTime": 1509291215115, "trialdata": {"rt": -1, "stimulus": "<p id=\"stim\">SHERIFF</p>", "key_press": -1, "type": "PRES_VIS", "word": "sheriff", "wordID": 1283, "conditions": [12, 1600, "v", 24000], "trial": 6, "serialpos": 4, "trial_type": "single-stim", "trial_index": 229, "time_elapsed": 969730, "internal_node_id": "0.0-166.0"}}, {"uniqueid": "MTK0136:35H6S234SB7YPMTS8TLXMRQNSDW659", "current_trial": 230, "dateTime": 1509291217792, "trialdata": {"rt": -1, "stimulus": "<p id=\"stim\">COUNTY</p>", "key_press": -1, "type": "PRES_VIS", "word": "county", "wordID": 388, "conditions": [12, 1600, "v", 24000], "trial": 6, "serialpos": 5, "trial_type": "single-stim", "trial_index": 230, "time_elapsed": 972409, "internal_node_id": "0.0-167.0"}}, {"uniqueid": "MTK0136:35H6S234SB7YPMTS8TLXMRQNSDW659", "current_trial": 231, "dateTime": 1509291220472, "trialdata": {"rt": -1, "stimulus": "<p id=\"stim\">CRAB</p>", "key_press": -1, "type": "PRES_VIS", "word": "crab", "wordID": 396, "conditions": [12, 1600, "v", 24000], "trial": 6, "serialpos": 6, "trial_type": "single-stim", "trial_index": 231, "time_elapsed": 975089, "internal_node_id": "0.0-168.0"}}, {"uniqueid": "MTK0136:35H6S234SB7YPMTS8TLXMRQNSDW659", "current_trial": 232, "dateTime": 1509291223273, "trialdata": {"rt": -1, "stimulus": "<p id=\"stim\">PAPER</p>", "key_press": -1, "type": "PRES_VIS", "word": "paper", "wordID": 1010, "conditions": [12, 1600, "v", 24000], "trial": 6, "serialpos": 7, "trial_type": "single-stim", "trial_index": 232, "time_elapsed": 977890, "internal_node_id": "0.0-169.0"}}, {"uniqueid": "MTK0136:35H6S234SB7YPMTS8TLXMRQNSDW659", "current_trial": 233, "dateTime": 1509291225901, "trialdata": {"rt": -1, "stimulus": "<p id=\"stim\">AWARD</p>", "key_press": -1, "type": "PRES_VIS", "word": "award", "wordID": 62, "conditions": [12, 1600, "v", 24000], "trial": 6, "serialpos": 8, "trial_type": "single-stim", "trial_index": 233, "time_elapsed": 980518, "internal_node_id": "0.0-170.0"}}, {"uniqueid": "MTK0136:35H6S234SB7YPMTS8TLXMRQNSDW659", "current_trial": 234, "dateTime": 1509291228440, "trialdata": {"rt": -1, "stimulus": "<p id=\"stim\">CROWN</p>", "key_press": -1, "type": "PRES_VIS", "word": "crown", "wordID": 414, "conditions": [12, 1600, "v", 24000], "trial": 6, "serialpos": 9, "trial_type": "single-stim", "trial_index": 234, "time_elapsed": 983057, "internal_node_id": "0.0-171.0"}}, {"uniqueid": "MTK0136:35H6S234SB7YPMTS8TLXMRQNSDW659", "current_trial": 235, "dateTime": 1509291230957, "trialdata": {"rt": -1, "stimulus": "<p id=\"stim\">GLASS</p>", "key_press": -1, "type": "PRES_VIS", "word": "glass", "wordID": 638, "conditions": [12, 1600, "v", 24000], "trial": 6, "serialpos": 10, "trial_type": "single-stim", "trial_index": 235, "time_elapsed": 985574, "internal_node_id": "0.0-172.0"}}, {"uniqueid": "MTK0136:35H6S234SB7YPMTS8TLXMRQNSDW659", "current_trial": 236, "dateTime": 1509291233715, "trialdata": {"rt": -1, "stimulus": "<p id=\"stim\">BALLOON</p>", "key_press": -1, "type": "PRES_VIS", "word": "balloon", "wordID": 74, "conditions": [12, 1600, "v", 24000], "trial": 6, "serialpos": 11, "trial_type": "single-stim", "trial_index": 236, "time_elapsed": 988332, "internal_node_id": "0.0-173.0"}}, {"uniqueid": "MTK0136:35H6S234SB7YPMTS8TLXMRQNSDW659", "current_trial": 237, "dateTime": 1509291236063, "trialdata": {"rt": -1, "stimulus": "", "key_press": -1, "type": "PRE_RECALL_DELAY", "trial_type": "single-stim", "trial_index": 237, "time_elapsed": 990679, "internal_node_id": "0.0-174.0-0.0"}}, {"uniqueid": "MTK0136:35H6S234SB7YPMTS8TLXMRQNSDW659", "current_trial": 238, "dateTime": 1509291236565, "trialdata": {"rt": -1000, "stimulus": "/static/audio/400Hz.wav", "key_press": -1, "type": "PRE_RECALL_ALERT", "trial_type": "single-audio", "trial_index": 238, "time_elapsed": 991182, "internal_node_id": "0.0-175.0"}}, {"uniqueid": "MTK0136:35H6S234SB7YPMTS8TLXMRQNSDW659", "current_trial": 239, "dateTime": 1509291296577, "trialdata": {"rt": [2635, 7907, 8931, 10400, 12927, 16078], "recwords": ["crowd", "lever", "cod", "crown", "business", "crab"], "type": "FREE_RECALL", "conditions": [12, 1600, "v", 24000], "trial": 6, "trial_type": "free-recall", "trial_index": 239, "time_elapsed": 1051187, "internal_node_id": "0.0-176.0-0.0"}}, {"uniqueid": "MTK0136:35H6S234SB7YPMTS8TLXMRQNSDW659", "current_trial": 240, "dateTime": 1509291302151, "trialdata": {"rt": 3572, "key_press": 32, "type": "INSTRUCTIONS", "trial_type": "text", "trial_index": 240, "time_elapsed": 1056768, "internal_node_id": "0.0-177.0"}}, {"uniqueid": "MTK0136:35H6S234SB7YPMTS8TLXMRQNSDW659", "current_trial": 241, "dateTime": 1509291316170, "trialdata": {"rt": [3551, 8497, 11044], "responses": ["17", "23", "17"], "num1": [9, 6, 3, 9], "num2": [7, 9, 8, 5], "num3": [1, 8, 5, 7], "type": "DISTRACTOR", "conditions": [24, 800, "a", 12000], "trial": 7, "trial_type": "math-distractor", "trial_index": 241, "time_elapsed": 1070787, "internal_node_id": "0.0-178.0"}}, {"uniqueid": "MTK0136:35H6S234SB7YPMTS8TLXMRQNSDW659", "current_trial": 242, "dateTime": 1509291319172, "trialdata": {"rt": -1, "stimulus": "<p id=\"stim\">10</p>", "key_press": -1, "trial_type": "single-stim", "trial_index": 242, "time_elapsed": 1073789, "internal_node_id": "0.0-179.0-0.0"}}, {"uniqueid": "MTK0136:35H6S234SB7YPMTS8TLXMRQNSDW659", "current_trial": 243, "dateTime": 1509291320173, "trialdata": {"rt": -1, "stimulus": "<p id=\"stim\">9</p>", "key_press": -1, "trial_type": "single-stim", "trial_index": 243, "time_elapsed": 1074790, "internal_node_id": "0.0-179.0-1.0"}}, {"uniqueid": "MTK0136:35H6S234SB7YPMTS8TLXMRQNSDW659", "current_trial": 244, "dateTime": 1509291321176, "trialdata": {"rt": -1, "stimulus": "<p id=\"stim\">8</p>", "key_press": -1, "trial_type": "single-stim", "trial_index": 244, "time_elapsed": 1075792, "internal_node_id": "0.0-179.0-2.0"}}, {"uniqueid": "MTK0136:35H6S234SB7YPMTS8TLXMRQNSDW659", "current_trial": 245, "dateTime": 1509291322178, "trialdata": {"rt": -1, "stimulus": "<p id=\"stim\">7</p>", "key_press": -1, "trial_type": "single-stim", "trial_index": 245, "time_elapsed": 1076793, "internal_node_id": "0.0-179.0-3.0"}}, {"uniqueid": "MTK0136:35H6S234SB7YPMTS8TLXMRQNSDW659", "current_trial": 246, "dateTime": 1509291323179, "trialdata": {"rt": -1, "stimulus": "<p id=\"stim\">6</p>", "key_press": -1, "trial_type": "single-stim", "trial_index": 246, "time_elapsed": 1077796, "internal_node_id": "0.0-179.0-4.0"}}, {"uniqueid": "MTK0136:35H6S234SB7YPMTS8TLXMRQNSDW659", "current_trial": 247, "dateTime": 1509291324181, "trialdata": {"rt": -1, "stimulus": "<p id=\"stim\">5</p>", "key_press": -1, "trial_type": "single-stim", "trial_index": 247, "time_elapsed": 1078798, "internal_node_id": "0.0-179.0-5.0"}}, {"uniqueid": "MTK0136:35H6S234SB7YPMTS8TLXMRQNSDW659", "current_trial": 248, "dateTime": 1509291325183, "trialdata": {"rt": -1, "stimulus": "<p id=\"stim\">4</p>", "key_press": -1, "trial_type": "single-stim", "trial_index": 248, "time_elapsed": 1079800, "internal_node_id": "0.0-179.0-6.0"}}, {"uniqueid": "MTK0136:35H6S234SB7YPMTS8TLXMRQNSDW659", "current_trial": 249, "dateTime": 1509291326186, "trialdata": {"rt": -1, "stimulus": "<p id=\"stim\">3</p>", "key_press": -1, "trial_type": "single-stim", "trial_index": 249, "time_elapsed": 1080803, "internal_node_id": "0.0-179.0-7.0"}}, {"uniqueid": "MTK0136:35H6S234SB7YPMTS8TLXMRQNSDW659", "current_trial": 250, "dateTime": 1509291327188, "trialdata": {"rt": -1, "stimulus": "<p id=\"stim\">2</p>", "key_press": -1, "trial_type": "single-stim", "trial_index": 250, "time_elapsed": 1081805, "internal_node_id": "0.0-179.0-8.0"}}, {"uniqueid": "MTK0136:35H6S234SB7YPMTS8TLXMRQNSDW659", "current_trial": 251, "dateTime": 1509291328189, "trialdata": {"rt": -1, "stimulus": "<p id=\"stim\">1</p>", "key_press": -1, "trial_type": "single-stim", "trial_index": 251, "time_elapsed": 1082806, "internal_node_id": "0.0-179.0-9.0"}}, {"uniqueid": "MTK0136:35H6S234SB7YPMTS8TLXMRQNSDW659", "current_trial": 252, "dateTime": 1509291329695, "trialdata": {"rt": -1, "stimulus": "<p id=\"stim\">+</p>", "key_press": -1, "type": "FIXATION", "trial_type": "single-stim", "trial_index": 252, "time_elapsed": 1084312, "internal_node_id": "0.0-180.0-0.0"}}, {"uniqueid": "MTK0136:35H6S234SB7YPMTS8TLXMRQNSDW659", "current_trial": 253, "dateTime": 1509291331693, "trialdata": {"rt": -1000, "stimulus": "/static/audio/wordpool/SPONGE.wav", "key_press": -1, "type": "PRES_AUD", "word": "sponge", "wordID": 1354, "conditions": [24, 800, "a", 12000], "trial": 7, "serialpos": 0, "trial_type": "single-audio", "trial_index": 253, "time_elapsed": 1086310, "internal_node_id": "0.0-181.0"}}, {"uniqueid": "MTK0136:35H6S234SB7YPMTS8TLXMRQNSDW659", "current_trial": 254, "dateTime": 1509291333533, "trialdata": {"rt": -1000, "stimulus": "/static/audio/wordpool/DRESS.wav", "key_press": -1, "type": "PRES_AUD", "word": "dress", "wordID": 494, "conditions": [24, 800, "a", 12000], "trial": 7, "serialpos": 1, "trial_type": "single-audio", "trial_index": 254, "time_elapsed": 1088150, "internal_node_id": "0.0-182.0"}}, {"uniqueid": "MTK0136:35H6S234SB7YPMTS8TLXMRQNSDW659", "current_trial": 255, "dateTime": 1509291335518, "trialdata": {"rt": -1000, "stimulus": "/static/audio/wordpool/POWDER.wav", "key_press": -1, "type": "PRES_AUD", "word": "powder", "wordID": 1116, "conditions": [24, 800, "a", 12000], "trial": 7, "serialpos": 2, "trial_type": "single-audio", "trial_index": 255, "time_elapsed": 1090134, "internal_node_id": "0.0-183.0"}}, {"uniqueid": "MTK0136:35H6S234SB7YPMTS8TLXMRQNSDW659", "current_trial": 256, "dateTime": 1509291337380, "trialdata": {"rt": -1000, "stimulus": "/static/audio/wordpool/LAVA.wav", "key_press": -1, "type": "PRES_AUD", "word": "lava", "wordID": 803, "conditions": [24, 800, "a", 12000], "trial": 7, "serialpos": 3, "trial_type": "single-audio", "trial_index": 256, "time_elapsed": 1091997, "internal_node_id": "0.0-184.0"}}, {"uniqueid": "MTK0136:35H6S234SB7YPMTS8TLXMRQNSDW659", "current_trial": 257, "dateTime": 1509291339267, "trialdata": {"rt": -1000, "stimulus": "/static/audio/wordpool/TREAT.wav", "key_press": -1, "type": "PRES_AUD", "word": "treat", "wordID": 1500, "conditions": [24, 800, "a", 12000], "trial": 7, "serialpos": 4, "trial_type": "single-audio", "trial_index": 257, "time_elapsed": 1093884, "internal_node_id": "0.0-185.0"}}, {"uniqueid": "MTK0136:35H6S234SB7YPMTS8TLXMRQNSDW659", "current_trial": 258, "dateTime": 1509291341054, "trialdata": {"rt": -1000, "stimulus": "/static/audio/wordpool/PARROT.wav", "key_press": -1, "type": "PRES_AUD", "word": "parrot", "wordID": 1014, "conditions": [24, 800, "a", 12000], "trial": 7, "serialpos": 5, "trial_type": "single-audio", "trial_index": 258, "time_elapsed": 1095671, "internal_node_id": "0.0-186.0"}}, {"uniqueid": "MTK0136:35H6S234SB7YPMTS8TLXMRQNSDW659", "current_trial": 259, "dateTime": 1509291342899, "trialdata": {"rt": -1000, "stimulus": "/static/audio/wordpool/POSSUM.wav", "key_press": -1, "type": "PRES_AUD", "word": "possum", "wordID": 1111, "conditions": [24, 800, "a", 12000], "trial": 7, "serialpos": 6, "trial_type": "single-audio", "trial_index": 259, "time_elapsed": 1097516, "internal_node_id": "0.0-187.0"}}, {"uniqueid": "MTK0136:35H6S234SB7YPMTS8TLXMRQNSDW659", "current_trial": 260, "dateTime": 1509291344513, "trialdata": {"rt": -1000, "stimulus": "/static/audio/wordpool/TUNNEL.wav", "key_press": -1, "type": "PRES_AUD", "word": "tunnel", "wordID": 1518, "conditions": [24, 800, "a", 12000], "trial": 7, "serialpos": 7, "trial_type": "single-audio", "trial_index": 260, "time_elapsed": 1099130, "internal_node_id": "0.0-188.0"}}, {"uniqueid": "MTK0136:35H6S234SB7YPMTS8TLXMRQNSDW659", "current_trial": 261, "dateTime": 1509291346383, "trialdata": {"rt": -1000, "stimulus": "/static/audio/wordpool/MISSILE.wav", "key_press": -1, "type": "PRES_AUD", "word": "missile", "wordID": 899, "conditions": [24, 800, "a", 12000], "trial": 7, "serialpos": 8, "trial_type": "single-audio", "trial_index": 261, "time_elapsed": 1101000, "internal_node_id": "0.0-189.0"}}, {"uniqueid": "MTK0136:35H6S234SB7YPMTS8TLXMRQNSDW659", "current_trial": 262, "dateTime": 1509291348280, "trialdata": {"rt": -1000, "stimulus": "/static/audio/wordpool/ROCKET.wav", "key_press": -1, "type": "PRES_AUD", "word": "rocket", "wordID": 1201, "conditions": [24, 800, "a", 12000], "trial": 7, "serialpos": 9, "trial_type": "single-audio", "trial_index": 262, "time_elapsed": 1102897, "internal_node_id": "0.0-190.0"}}, {"uniqueid": "MTK0136:35H6S234SB7YPMTS8TLXMRQNSDW659", "current_trial": 263, "dateTime": 1509291350272, "trialdata": {"rt": -1000, "stimulus": "/static/audio/wordpool/FIDDLE.wav", "key_press": -1, "type": "PRES_AUD", "word": "fiddle", "wordID": 560, "conditions": [24, 800, "a", 12000], "trial": 7, "serialpos": 10, "trial_type": "single-audio", "trial_index": 263, "time_elapsed": 1104889, "internal_node_id": "0.0-191.0"}}, {"uniqueid": "MTK0136:35H6S234SB7YPMTS8TLXMRQNSDW659", "current_trial": 264, "dateTime": 1509291351981, "trialdata": {"rt": -1000, "stimulus": "/static/audio/wordpool/LIZARD.wav", "key_press": -1, "type": "PRES_AUD", "word": "lizard", "wordID": 833, "conditions": [24, 800, "a", 12000], "trial": 7, "serialpos": 11, "trial_type": "single-audio", "trial_index": 264, "time_elapsed": 1106598, "internal_node_id": "0.0-192.0"}}, {"uniqueid": "MTK0136:35H6S234SB7YPMTS8TLXMRQNSDW659", "current_trial": 265, "dateTime": 1509291353646, "trialdata": {"rt": -1000, "stimulus": "/static/audio/wordpool/RUG.wav", "key_press": -1, "type": "PRES_AUD", "word": "rug", "wordID": 1214, "conditions": [24, 800, "a", 12000], "trial": 7, "serialpos": 12, "trial_type": "single-audio", "trial_index": 265, "time_elapsed": 1108263, "internal_node_id": "0.0-193.0"}}, {"uniqueid": "MTK0136:35H6S234SB7YPMTS8TLXMRQNSDW659", "current_trial": 266, "dateTime": 1509291355531, "trialdata": {"rt": -1000, "stimulus": "/static/audio/wordpool/DRESSER.wav", "key_press": -1, "type": "PRES_AUD", "word": "dresser", "wordID": 495, "conditions": [24, 800, "a", 12000], "trial": 7, "serialpos": 13, "trial_type": "single-audio", "trial_index": 266, "time_elapsed": 1110148, "internal_node_id": "0.0-194.0"}}, {"uniqueid": "MTK0136:35H6S234SB7YPMTS8TLXMRQNSDW659", "current_trial": 267, "dateTime": 1509291357368, "trialdata": {"rt": -1000, "stimulus": "/static/audio/wordpool/QUEEN.wav", "key_press": -1, "type": "PRES_AUD", "word": "queen", "wordID": 1148, "conditions": [24, 800, "a", 12000], "trial": 7, "serialpos": 14, "trial_type": "single-audio", "trial_index": 267, "time_elapsed": 1111985, "internal_node_id": "0.0-195.0"}}, {"uniqueid": "MTK0136:35H6S234SB7YPMTS8TLXMRQNSDW659", "current_trial": 268, "dateTime": 1509291359314, "trialdata": {"rt": -1000, "stimulus": "/static/audio/wordpool/ROBBER.wav", "key_press": -1, "type": "PRES_AUD", "word": "robber", "wordID": 1196, "conditions": [24, 800, "a", 12000], "trial": 7, "serialpos": 15, "trial_type": "single-audio", "trial_index": 268, "time_elapsed": 1113930, "internal_node_id": "0.0-196.0"}}, {"uniqueid": "MTK0136:35H6S234SB7YPMTS8TLXMRQNSDW659", "current_trial": 269, "dateTime": 1509291361162, "trialdata": {"rt": -1000, "stimulus": "/static/audio/wordpool/TRUCK.wav", "key_press": -1, "type": "PRES_AUD", "word": "truck", "wordID": 1511, "conditions": [24, 800, "a", 12000], "trial": 7, "serialpos": 16, "trial_type": "single-audio", "trial_index": 269, "time_elapsed": 1115779, "internal_node_id": "0.0-197.0"}}, {"uniqueid": "MTK0136:35H6S234SB7YPMTS8TLXMRQNSDW659", "current_trial": 270, "dateTime": 1509291362841, "trialdata": {"rt": -1000, "stimulus": "/static/audio/wordpool/COUCH.wav", "key_press": -1, "type": "PRES_AUD", "word": "couch", "wordID": 385, "conditions": [24, 800, "a", 12000], "trial": 7, "serialpos": 17, "trial_type": "single-audio", "trial_index": 270, "time_elapsed": 1117458, "internal_node_id": "0.0-198.0"}}, {"uniqueid": "MTK0136:35H6S234SB7YPMTS8TLXMRQNSDW659", "current_trial": 271, "dateTime": 1509291364826, "trialdata": {"rt": -1000, "stimulus": "/static/audio/wordpool/MATTRESS.wav", "key_press": -1, "type": "PRES_AUD", "word": "mattress", "wordID": 878, "conditions": [24, 800, "a", 12000], "trial": 7, "serialpos": 18, "trial_type": "single-audio", "trial_index": 271, "time_elapsed": 1119443, "internal_node_id": "0.0-199.0"}}, {"uniqueid": "MTK0136:35H6S234SB7YPMTS8TLXMRQNSDW659", "current_trial": 272, "dateTime": 1509291366439, "trialdata": {"rt": -1000, "stimulus": "/static/audio/wordpool/HOUND.wav", "key_press": -1, "type": "PRES_AUD", "word": "hound", "wordID": 723, "conditions": [24, 800, "a", 12000], "trial": 7, "serialpos": 19, "trial_type": "single-audio", "trial_index": 272, "time_elapsed": 1121053, "internal_node_id": "0.0-200.0"}}, {"uniqueid": "MTK0136:35H6S234SB7YPMTS8TLXMRQNSDW65