{"condition": 0, "counterbalance": 1214, "assignmentId": "3137ONMDKHC0IYBRV7NM2C9P37SEGS", "workerId": "MTK0826", "hitId": "3C8QQOM6JP8QXBTKCF5RBZG5BB7ILU", "currenttrial": 626, "bonus": 0, "data": [{"uniqueid": "MTK0826:3137ONMDKHC0IYBRV7NM2C9P37SEGS", "current_trial": 0, "dateTime": 1512760285556, "trialdata": {"rt": 7377, "key_press": 71, "type": "INSTRUCTIONS", "trial_type": "text", "trial_index": 0, "time_elapsed": 7379, "internal_node_id": "0.0-0.0"}}, {"uniqueid": "MTK0826:3137ONMDKHC0IYBRV7NM2C9P37SEGS", "current_trial": 1, "dateTime": 1512760321117, "trialdata": {"rt": 35559, "key_press": 71, "type": "INSTRUCTIONS", "trial_type": "text", "trial_index": 1, "time_elapsed": 42941, "internal_node_id": "0.0-1.0"}}, {"uniqueid": "MTK0826:3137ONMDKHC0IYBRV7NM2C9P37SEGS", "current_trial": 2, "dateTime": 1512760338756, "trialdata": {"rt": [17629], "responses": ["ocean"], "type": "AUDIO_TEST", "trial_type": "audio-test", "trial_index": 2, "time_elapsed": 60580, "internal_node_id": "0.0-2.0"}}, {"uniqueid": "MTK0826:3137ONMDKHC0IYBRV7NM2C9P37SEGS", "current_trial": 3, "dateTime": 1512760346210, "trialdata": {"rt": [7450], "responses": ["crystal"], "type": "AUDIO_TEST", "trial_type": "audio-test", "trial_index": 3, "time_elapsed": 68034, "internal_node_id": "0.0-3.0"}}, {"uniqueid": "MTK0826:3137ONMDKHC0IYBRV7NM2C9P37SEGS", "current_trial": 4, "dateTime": 1512760352314, "trialdata": {"rt": [6098], "responses": ["spice"], "type": "AUDIO_TEST", "trial_type": "audio-test", "trial_index": 4, "time_elapsed": 74138, "internal_node_id": "0.0-4.0"}}, {"uniqueid": "MTK0826:3137ONMDKHC0IYBRV7NM2C9P37SEGS", "current_trial": 5, "dateTime": 1512760384415, "trialdata": {"rt": 31348, "responses": "{\"Q0\":\"3am\",\"Q1\":\"8am\",\"Q2\":\"5\"}", "type": "SLEEP_SURVEY", "trial_type": "survey-text", "trial_index": 5, "time_elapsed": 106239, "internal_node_id": "0.0-5.0"}}, {"uniqueid": "MTK0826:3137ONMDKHC0IYBRV7NM2C9P37SEGS", "current_trial": 6, "dateTime": 1512760412840, "trialdata": {"rt": 27421, "key_press": 32, "type": "INSTRUCTIONS", "trial_type": "text", "trial_index": 6, "time_elapsed": 134664, "internal_node_id": "0.0-6.0"}}, {"uniqueid": "MTK0826:3137ONMDKHC0IYBRV7NM2C9P37SEGS", "current_trial": 7, "dateTime": 1512760436449, "trialdata": {"rt": 23104, "key_press": 32, "type": "INSTRUCTIONS", "trial_type": "text", "trial_index": 7, "time_elapsed": 158272, "internal_node_id": "0.0-7.0"}}, {"uniqueid": "MTK0826:3137ONMDKHC0IYBRV7NM2C9P37SEGS", "current_trial": 8, "dateTime": 1512760445089, "trialdata": {"rt": 8139, "key_press": 32, "type": "INSTRUCTIONS", "trial_type": "text", "trial_index": 8, "time_elapsed": 166912, "internal_node_id": "0.0-8.0"}}, {"uniqueid": "MTK0826:3137ONMDKHC0IYBRV7NM2C9P37SEGS", "current_trial": 9, "dateTime": 1512760464354, "trialdata": {"rt": [9618, 13599], "responses": ["14", "5"], "num1": [7, 1, 8], "num2": [5, 3, 5], "num3": [2, 1, 5], "type": "DISTRACTOR", "conditions": [18, 1200, "a", 18000], "trial": 0, "trial_type": "math-distractor", "trial_index": 9, "time_elapsed": 186178, "internal_node_id": "0.0-9.0"}}, {"uniqueid": "MTK0826:3137ONMDKHC0IYBRV7NM2C9P37SEGS", "current_trial": 10, "dateTime": 1512760467359, "trialdata": {"rt": -1, "stimulus": "<p id=\"stim\">10</p>", "key_press": -1, "trial_type": "single-stim", "trial_index": 10, "time_elapsed": 189183, "internal_node_id": "0.0-10.0-0.0"}}, {"uniqueid": "MTK0826:3137ONMDKHC0IYBRV7NM2C9P37SEGS", "current_trial": 11, "dateTime": 1512760468362, "trialdata": {"rt": -1, "stimulus": "<p id=\"stim\">9</p>", "key_press": -1, "trial_type": "single-stim", "trial_index": 11, "time_elapsed": 190186, "internal_node_id": "0.0-10.0-1.0"}}, {"uniqueid": "MTK0826:3137ONMDKHC0IYBRV7NM2C9P37SEGS", "current_trial": 12, "dateTime": 1512760469364, "trialdata": {"rt": -1, "stimulus": "<p id=\"stim\">8</p>", "key_press": -1, "trial_type": "single-stim", "trial_index": 12, "time_elapsed": 191188, "internal_node_id": "0.0-10.0-2.0"}}, {"uniqueid": "MTK0826:3137ONMDKHC0IYBRV7NM2C9P37SEGS", "current_trial": 13, "dateTime": 1512760470368, "trialdata": {"rt": -1, "stimulus": "<p id=\"stim\">7</p>", "key_press": -1, "trial_type": "single-stim", "trial_index": 13, "time_elapsed": 192192, "internal_node_id": "0.0-10.0-3.0"}}, {"uniqueid": "MTK0826:3137ONMDKHC0IYBRV7NM2C9P37SEGS", "current_trial": 14, "dateTime": 1512760471369, "trialdata": {"rt": -1, "stimulus": "<p id=\"stim\">6</p>", "key_press": -1, "trial_type": "single-stim", "trial_index": 14, "time_elapsed": 193193, "internal_node_id": "0.0-10.0-4.0"}}, {"uniqueid": "MTK0826:3137ONMDKHC0IYBRV7NM2C9P37SEGS", "current_trial": 15, "dateTime": 1512760472372, "trialdata": {"rt": -1, "stimulus": "<p id=\"stim\">5</p>", "key_press": -1, "trial_type": "single-stim", "trial_index": 15, "time_elapsed": 194196, "internal_node_id": "0.0-10.0-5.0"}}, {"uniqueid": "MTK0826:3137ONMDKHC0IYBRV7NM2C9P37SEGS", "current_trial": 16, "dateTime": 1512760473376, "trialdata": {"rt": -1, "stimulus": "<p id=\"stim\">4</p>", "key_press": -1, "trial_type": "single-stim", "trial_index": 16, "time_elapsed": 195200, "internal_node_id": "0.0-10.0-6.0"}}, {"uniqueid": "MTK0826:3137ONMDKHC0IYBRV7NM2C9P37SEGS", "current_trial": 17, "dateTime": 1512760474378, "trialdata": {"rt": -1, "stimulus": "<p id=\"stim\">3</p>", "key_press": -1, "trial_type": "single-stim", "trial_index": 17, "time_elapsed": 196202, "internal_node_id": "0.0-10.0-7.0"}}, {"uniqueid": "MTK0826:3137ONMDKHC0IYBRV7NM2C9P37SEGS", "current_trial": 18, "dateTime": 1512760475380, "trialdata": {"rt": -1, "stimulus": "<p id=\"stim\">2</p>", "key_press": -1, "trial_type": "single-stim", "trial_index": 18, "time_elapsed": 197204, "internal_node_id": "0.0-10.0-8.0"}}, {"uniqueid": "MTK0826:3137ONMDKHC0IYBRV7NM2C9P37SEGS", "current_trial": 19, "dateTime": 1512760476383, "trialdata": {"rt": -1, "stimulus": "<p id=\"stim\">1</p>", "key_press": -1, "trial_type": "single-stim", "trial_index": 19, "time_elapsed": 198207, "internal_node_id": "0.0-10.0-9.0"}}, {"uniqueid": "MTK0826:3137ONMDKHC0IYBRV7NM2C9P37SEGS", "current_trial": 20, "dateTime": 1512760477884, "trialdata": {"rt": -1, "stimulus": "<p id=\"stim\">+</p>", "key_press": -1, "type": "FIXATION", "trial_type": "single-stim", "trial_index": 20, "time_elapsed": 199708, "internal_node_id": "0.0-11.0-0.0"}}, {"uniqueid": "MTK0826:3137ONMDKHC0IYBRV7NM2C9P37SEGS", "current_trial": 21, "dateTime": 1512760480624, "trialdata": {"rt": -1000, "stimulus": "/static/audio/wordpool/ICEBERG.wav", "key_press": -1, "type": "PRES_AUD", "word": "iceberg", "wordID": 730, "conditions": [18, 1200, "a", 18000], "trial": 0, "serialpos": 0, "trial_type": "single-audio", "trial_index": 21, "time_elapsed": 202448, "internal_node_id": "0.0-12.0"}}, {"uniqueid": "MTK0826:3137ONMDKHC0IYBRV7NM2C9P37SEGS", "current_trial": 22, "dateTime": 1512760482883, "trialdata": {"rt": -1000, "stimulus": "/static/audio/wordpool/OUTFIT.wav", "key_press": -1, "type": "PRES_AUD", "word": "outfit", "wordID": 987, "conditions": [18, 1200, "a", 18000], "trial": 0, "serialpos": 1, "trial_type": "single-audio", "trial_index": 22, "time_elapsed": 204706, "internal_node_id": "0.0-13.0"}}, {"uniqueid": "MTK0826:3137ONMDKHC0IYBRV7NM2C9P37SEGS", "current_trial": 23, "dateTime": 1512760485005, "trialdata": {"rt": -1000, "stimulus": "/static/audio/wordpool/DRESSER.wav", "key_press": -1, "type": "PRES_AUD", "word": "dresser", "wordID": 495, "conditions": [18, 1200, "a", 18000], "trial": 0, "serialpos": 2, "trial_type": "single-audio", "trial_index": 23, "time_elapsed": 206829, "internal_node_id": "0.0-14.0"}}, {"uniqueid": "MTK0826:3137ONMDKHC0IYBRV7NM2C9P37SEGS", "current_trial": 24, "dateTime": 1512760487344, "trialdata": {"rt": -1000, "stimulus": "/static/audio/wordpool/PERCH.wav", "key_press": -1, "type": "PRES_AUD", "word": "perch", "wordID": 1047, "conditions": [18, 1200, "a", 18000], "trial": 0, "serialpos": 3, "trial_type": "single-audio", "trial_index": 24, "time_elapsed": 209168, "internal_node_id": "0.0-15.0"}}, {"uniqueid": "MTK0826:3137ONMDKHC0IYBRV7NM2C9P37SEGS", "current_trial": 25, "dateTime": 1512760489683, "trialdata": {"rt": -1000, "stimulus": "/static/audio/wordpool/PISTON.wav", "key_press": -1, "type": "PRES_AUD", "word": "piston", "wordID": 1075, "conditions": [18, 1200, "a", 18000], "trial": 0, "serialpos": 4, "trial_type": "single-audio", "trial_index": 25, "time_elapsed": 211506, "internal_node_id": "0.0-16.0"}}, {"uniqueid": "MTK0826:3137ONMDKHC0IYBRV7NM2C9P37SEGS", "current_trial": 26, "dateTime": 1512760491821, "trialdata": {"rt": -1000, "stimulus": "/static/audio/wordpool/DIME.wav", "key_press": -1, "type": "PRES_AUD", "word": "dime", "wordID": 465, "conditions": [18, 1200, "a", 18000], "trial": 0, "serialpos": 5, "trial_type": "single-audio", "trial_index": 26, "time_elapsed": 213645, "internal_node_id": "0.0-17.0"}}, {"uniqueid": "MTK0826:3137ONMDKHC0IYBRV7NM2C9P37SEGS", "current_trial": 27, "dateTime": 1512760494105, "trialdata": {"rt": -1000, "stimulus": "/static/audio/wordpool/SWORD.wav", "key_press": -1, "type": "PRES_AUD", "word": "sword", "wordID": 1422, "conditions": [18, 1200, "a", 18000], "trial": 0, "serialpos": 6, "trial_type": "single-audio", "trial_index": 27, "time_elapsed": 215929, "internal_node_id": "0.0-18.0"}}, {"uniqueid": "MTK0826:3137ONMDKHC0IYBRV7NM2C9P37SEGS", "current_trial": 28, "dateTime": 1512760496396, "trialdata": {"rt": -1000, "stimulus": "/static/audio/wordpool/WIFE.wav", "key_press": -1, "type": "PRES_AUD", "word": "wife", "wordID": 1608, "conditions": [18, 1200, "a", 18000], "trial": 0, "serialpos": 7, "trial_type": "single-audio", "trial_index": 28, "time_elapsed": 218220, "internal_node_id": "0.0-19.0"}}, {"uniqueid": "MTK0826:3137ONMDKHC0IYBRV7NM2C9P37SEGS", "current_trial": 29, "dateTime": 1512760498727, "trialdata": {"rt": -1000, "stimulus": "/static/audio/wordpool/EXPERT.wav", "key_press": -1, "type": "PRES_AUD", "word": "expert", "wordID": 542, "conditions": [18, 1200, "a", 18000], "trial": 0, "serialpos": 8, "trial_type": "single-audio", "trial_index": 29, "time_elapsed": 220551, "internal_node_id": "0.0-20.0"}}, {"uniqueid": "MTK0826:3137ONMDKHC0IYBRV7NM2C9P37SEGS", "current_trial": 30, "dateTime": 1512760501000, "trialdata": {"rt": -1000, "stimulus": "/static/audio/wordpool/PORK.wav", "key_press": -1, "type": "PRES_AUD", "word": "pork", "wordID": 1107, "conditions": [18, 1200, "a", 18000], "trial": 0, "serialpos": 9, "trial_type": "single-audio", "trial_index": 30, "time_elapsed": 222824, "internal_node_id": "0.0-21.0"}}, {"uniqueid": "MTK0826:3137ONMDKHC0IYBRV7NM2C9P37SEGS", "current_trial": 31, "dateTime": 1512760503005, "trialdata": {"rt": -1000, "stimulus": "/static/audio/wordpool/BANKER.wav", "key_press": -1, "type": "PRES_AUD", "word": "banker", "wordID": 83, "conditions": [18, 1200, "a", 18000], "trial": 0, "serialpos": 10, "trial_type": "single-audio", "trial_index": 31, "time_elapsed": 224829, "internal_node_id": "0.0-22.0"}}, {"uniqueid": "MTK0826:3137ONMDKHC0IYBRV7NM2C9P37SEGS", "current_trial": 32, "dateTime": 1512760505284, "trialdata": {"rt": -1000, "stimulus": "/static/audio/wordpool/BABY.wav", "key_press": -1, "type": "PRES_AUD", "word": "baby", "wordID": 63, "conditions": [18, 1200, "a", 18000], "trial": 0, "serialpos": 11, "trial_type": "single-audio", "trial_index": 32, "time_elapsed": 227108, "internal_node_id": "0.0-23.0"}}, {"uniqueid": "MTK0826:3137ONMDKHC0IYBRV7NM2C9P37SEGS", "current_trial": 33, "dateTime": 1512760507646, "trialdata": {"rt": -1000, "stimulus": "/static/audio/wordpool/ACTRESS.wav", "key_press": -1, "type": "PRES_AUD", "word": "actress", "wordID": 5, "conditions": [18, 1200, "a", 18000], "trial": 0, "serialpos": 12, "trial_type": "single-audio", "trial_index": 33, "time_elapsed": 229470, "internal_node_id": "0.0-24.0"}}, {"uniqueid": "MTK0826:3137ONMDKHC0IYBRV7NM2C9P37SEGS", "current_trial": 34, "dateTime": 1512760509903, "trialdata": {"rt": -1000, "stimulus": "/static/audio/wordpool/CRIB.wav", "key_press": -1, "type": "PRES_AUD", "word": "crib", "wordID": 406, "conditions": [18, 1200, "a", 18000], "trial": 0, "serialpos": 13, "trial_type": "single-audio", "trial_index": 34, "time_elapsed": 231727, "internal_node_id": "0.0-25.0"}}, {"uniqueid": "MTK0826:3137ONMDKHC0IYBRV7NM2C9P37SEGS", "current_trial": 35, "dateTime": 1512760511976, "trialdata": {"rt": -1000, "stimulus": "/static/audio/wordpool/MOTEL.wav", "key_press": -1, "type": "PRES_AUD", "word": "motel", "wordID": 918, "conditions": [18, 1200, "a", 18000], "trial": 0, "serialpos": 14, "trial_type": "single-audio", "trial_index": 35, "time_elapsed": 233800, "internal_node_id": "0.0-26.0"}}, {"uniqueid": "MTK0826:3137ONMDKHC0IYBRV7NM2C9P37SEGS", "current_trial": 36, "dateTime": 1512760514268, "trialdata": {"rt": -1000, "stimulus": "/static/audio/wordpool/GAVEL.wav", "key_press": -1, "type": "PRES_AUD", "word": "gavel", "wordID": 626, "conditions": [18, 1200, "a", 18000], "trial": 0, "serialpos": 15, "trial_type": "single-audio", "trial_index": 36, "time_elapsed": 236092, "internal_node_id": "0.0-27.0"}}, {"uniqueid": "MTK0826:3137ONMDKHC0IYBRV7NM2C9P37SEGS", "current_trial": 37, "dateTime": 1512760516450, "trialdata": {"rt": -1000, "stimulus": "/static/audio/wordpool/SPONGE.wav", "key_press": -1, "type": "PRES_AUD", "word": "sponge", "wordID": 1354, "conditions": [18, 1200, "a", 18000], "trial": 0, "serialpos": 16, "trial_type": "single-audio", "trial_index": 37, "time_elapsed": 238274, "internal_node_id": "0.0-28.0"}}, {"uniqueid": "MTK0826:3137ONMDKHC0IYBRV7NM2C9P37SEGS", "current_trial": 38, "dateTime": 1512760518781, "trialdata": {"rt": -1000, "stimulus": "/static/audio/wordpool/CHURCH.wav", "key_press": -1, "type": "PRES_AUD", "word": "church", "wordID": 306, "conditions": [18, 1200, "a", 18000], "trial": 0, "serialpos": 17, "trial_type": "single-audio", "trial_index": 38, "time_elapsed": 240605, "internal_node_id": "0.0-29.0"}}, {"uniqueid": "MTK0826:3137ONMDKHC0IYBRV7NM2C9P37SEGS", "current_trial": 39, "dateTime": 1512760520150, "trialdata": {"rt": -1, "stimulus": "", "key_press": -1, "type": "PRE_RECALL_DELAY", "trial_type": "single-stim", "trial_index": 39, "time_elapsed": 241974, "internal_node_id": "0.0-30.0-0.0"}}, {"uniqueid": "MTK0826:3137ONMDKHC0IYBRV7NM2C9P37SEGS", "current_trial": 40, "dateTime": 1512760520654, "trialdata": {"rt": -1000, "stimulus": "/static/audio/400Hz.wav", "key_press": -1, "type": "PRE_RECALL_ALERT", "trial_type": "single-audio", "trial_index": 40, "time_elapsed": 242478, "internal_node_id": "0.0-31.0"}}, {"uniqueid": "MTK0826:3137ONMDKHC0IYBRV7NM2C9P37SEGS", "current_trial": 41, "dateTime": 1512760580659, "trialdata": {"rt": [5425, 7777, 10609, 15618, 18592, 24441, 33444, 34973, 44984, 50963, 59810], "recwords": ["iceberg", "baby", "sponge", "gavel", "church", "lightbulb", "", "", "baby", "door", "piston"], "type": "FREE_RECALL", "conditions": [18, 1200, "a", 18000], "trial": 0, "trial_type": "free-recall", "trial_index": 41, "time_elapsed": 302480, "internal_node_id": "0.0-32.0-0.0"}}, {"uniqueid": "MTK0826:3137ONMDKHC0IYBRV7NM2C9P37SEGS", "current_trial": 42, "dateTime": 1512760603729, "trialdata": {"rt": 21069, "key_press": 32, "type": "INSTRUCTIONS", "trial_type": "text", "trial_index": 42, "time_elapsed": 325553, "internal_node_id": "0.0-33.0"}}, {"uniqueid": "MTK0826:3137ONMDKHC0IYBRV7NM2C9P37SEGS", "current_trial": 43, "dateTime": 1512760623734, "trialdata": {"rt": [10774, 17826], "responses": ["12  ", "16"], "num1": [3, 9, 1], "num2": [3, 1, 5], "num3": [7, 6, 2], "type": "DISTRACTOR", "conditions": [18, 1200, "v", 18000], "trial": 1, "trial_type": "math-distractor", "trial_index": 43, "time_elapsed": 345557, "internal_node_id": "0.0-34.0"}}, {"uniqueid": "MTK0826:3137ONMDKHC0IYBRV7NM2C9P37SEGS", "current_trial": 44, "dateTime": 1512760626737, "trialdata": {"rt": -1, "stimulus": "<p id=\"stim\">10</p>", "key_press": -1, "trial_type": "single-stim", "trial_index": 44, "time_elapsed": 348561, "internal_node_id": "0.0-35.0-0.0"}}, {"uniqueid": "MTK0826:3137ONMDKHC0IYBRV7NM2C9P37SEGS", "current_trial": 45, "dateTime": 1512760628018, "trialdata": {"rt": -1, "stimulus": "<p id=\"stim\">9</p>", "key_press": -1, "trial_type": "single-stim", "trial_index": 45, "time_elapsed": 349842, "internal_node_id": "0.0-35.0-1.0"}}, {"uniqueid": "MTK0826:3137ONMDKHC0IYBRV7NM2C9P37SEGS", "current_trial": 46, "dateTime": 1512760629022, "trialdata": {"rt": -1, "stimulus": "<p id=\"stim\">8</p>", "key_press": -1, "trial_type": "single-stim", "trial_index": 46, "time_elapsed": 350846, "internal_node_id": "0.0-35.0-2.0"}}, {"uniqueid": "MTK0826:3137ONMDKHC0IYBRV7NM2C9P37SEGS", "current_trial": 47, "dateTime": 1512760630023, "trialdata": {"rt": -1, "stimulus": "<p id=\"stim\">7</p>", "key_press": -1, "trial_type": "single-stim", "trial_index": 47, "time_elapsed": 351847, "internal_node_id": "0.0-35.0-3.0"}}, {"uniqueid": "MTK0826:3137ONMDKHC0IYBRV7NM2C9P37SEGS", "current_trial": 48, "dateTime": 1512760631024, "trialdata": {"rt": -1, "stimulus": "<p id=\"stim\">6</p>", "key_press": -1, "trial_type": "single-stim", "trial_index": 48, "time_elapsed": 352848, "internal_node_id": "0.0-35.0-4.0"}}, {"uniqueid": "MTK0826:3137ONMDKHC0IYBRV7NM2C9P37SEGS", "current_trial": 49, "dateTime": 1512760632027, "trialdata": {"rt": -1, "stimulus": "<p id=\"stim\">5</p>", "key_press": -1, "trial_type": "single-stim", "trial_index": 49, "time_elapsed": 353851, "internal_node_id": "0.0-35.0-5.0"}}, {"uniqueid": "MTK0826:3137ONMDKHC0IYBRV7NM2C9P37SEGS", "current_trial": 50, "dateTime": 1512760633032, "trialdata": {"rt": -1, "stimulus": "<p id=\"stim\">4</p>", "key_press": -1, "trial_type": "single-stim", "trial_index": 50, "time_elapsed": 354856, "internal_node_id": "0.0-35.0-6.0"}}, {"uniqueid": "MTK0826:3137ONMDKHC0IYBRV7NM2C9P37SEGS", "current_trial": 51, "dateTime": 1512760634037, "trialdata": {"rt": -1, "stimulus": "<p id=\"stim\">3</p>", "key_press": -1, "trial_type": "single-stim", "trial_index": 51, "time_elapsed": 355861, "internal_node_id": "0.0-35.0-7.0"}}, {"uniqueid": "MTK0826:3137ONMDKHC0IYBRV7NM2C9P37SEGS", "current_trial": 52, "dateTime": 1512760635040, "trialdata": {"rt": -1, "stimulus": "<p id=\"stim\">2</p>", "key_press": -1, "trial_type": "single-stim", "trial_index": 52, "time_elapsed": 356864, "internal_node_id": "0.0-35.0-8.0"}}, {"uniqueid": "MTK0826:3137ONMDKHC0IYBRV7NM2C9P37SEGS", "current_trial": 53, "dateTime": 1512760636041, "trialdata": {"rt": -1, "stimulus": "<p id=\"stim\">1</p>", "key_press": -1, "trial_type": "single-stim", "trial_index": 53, "time_elapsed": 357865, "internal_node_id": "0.0-35.0-9.0"}}, {"uniqueid": "MTK0826:3137ONMDKHC0IYBRV7NM2C9P37SEGS", "current_trial": 54, "dateTime": 1512760637544, "trialdata": {"rt": -1, "stimulus": "<p id=\"stim\">+</p>", "key_press": -1, "type": "FIXATION", "trial_type": "single-stim", "trial_index": 54, "time_elapsed": 359368, "internal_node_id": "0.0-36.0-0.0"}}, {"uniqueid": "MTK0826:3137ONMDKHC0IYBRV7NM2C9P37SEGS", "current_trial": 55, "dateTime": 1512760638751, "trialdata": {"rt": -1, "stimulus": "<p id=\"stim\">OYSTER</p>", "key_press": -1, "type": "PRES_VIS", "word": "oyster", "wordID": 994, "conditions": [18, 1200, "v", 18000], "trial": 1, "serialpos": 0, "trial_type": "single-stim", "trial_index": 55, "time_elapsed": 360573, "internal_node_id": "0.0-37.0"}}, {"uniqueid": "MTK0826:3137ONMDKHC0IYBRV7NM2C9P37SEGS", "current_trial": 56, "dateTime": 1512760640931, "trialdata": {"rt": -1, "stimulus": "<p id=\"stim\">KNAPSACK</p>", "key_press": -1, "type": "PRES_VIS", "word": "knapsack", "wordID": 782, "conditions": [18, 1200, "v", 18000], "trial": 1, "serialpos": 1, "trial_type": "single-stim", "trial_index": 56, "time_elapsed": 362755, "internal_node_id": "0.0-38.0"}}, {"uniqueid": "MTK0826:3137ONMDKHC0IYBRV7NM2C9P37SEGS", "current_trial": 57, "dateTime": 1512760643260, "trialdata": {"rt": -1, "stimulus": "<p id=\"stim\">GAZELLE</p>", "key_press": -1, "type": "PRES_VIS", "word": "gazelle", "wordID": 627, "conditions": [18, 1200, "v", 18000], "trial": 1, "serialpos": 2, "trial_type": "single-stim", "trial_index": 57, "time_elapsed": 365084, "internal_node_id": "0.0-39.0"}}, {"uniqueid": "MTK0826:3137ONMDKHC0IYBRV7NM2C9P37SEGS", "current_trial": 58, "dateTime": 1512760645516, "trialdata": {"rt": -1, "stimulus": "<p id=\"stim\">LION</p>", "key_press": -1, "type": "PRES_VIS", "word": "lion", "wordID": 826, "conditions": [18, 1200, "v", 18000], "trial": 1, "serialpos": 3, "trial_type": "single-stim", "trial_index": 58, "time_elapsed": 367339, "internal_node_id": "0.0-40.0"}}, {"uniqueid": "MTK0826:3137ONMDKHC0IYBRV7NM2C9P37SEGS", "current_trial": 59, "dateTime": 1512760647852, "trialdata": {"rt": -1, "stimulus": "<p id=\"stim\">VALLEY</p>", "key_press": -1, "type": "PRES_VIS", "word": "valley", "wordID": 1544, "conditions": [18, 1200, "v", 18000], "trial": 1, "serialpos": 4, "trial_type": "single-stim", "trial_index": 59, "time_elapsed": 369676, "internal_node_id": "0.0-41.0"}}, {"uniqueid": "MTK0826:3137ONMDKHC0IYBRV7NM2C9P37SEGS", "current_trial": 60, "dateTime": 1512760650218, "trialdata": {"rt": -1, "stimulus": "<p id=\"stim\">STAMP</p>", "key_press": -1, "type": "PRES_VIS", "word": "stamp", "wordID": 1369, "conditions": [18, 1200, "v", 18000], "trial": 1, "serialpos": 5, "trial_type": "single-stim", "trial_index": 60, "time_elapsed": 372042, "internal_node_id": "0.0-42.0"}}, {"uniqueid": "MTK0826:3137ONMDKHC0IYBRV7NM2C9P37SEGS", "current_trial": 61, "dateTime": 1512760652365, "trialdata": {"rt": -1, "stimulus": "<p id=\"stim\">CLOUD</p>", "key_press": -1, "type": "PRES_VIS", "word": "cloud", "wordID": 327, "conditions": [18, 1200, "v", 18000], "trial": 1, "serialpos": 6, "trial_type": "single-stim", "trial_index": 61, "time_elapsed": 374189, "internal_node_id": "0.0-43.0"}}, {"uniqueid": "MTK0826:3137ONMDKHC0IYBRV7NM2C9P37SEGS", "current_trial": 62, "dateTime": 1512760654453, "trialdata": {"rt": -1, "stimulus": "<p id=\"stim\">GROUND</p>", "key_press": -1, "type": "PRES_VIS", "word": "ground", "wordID": 665, "conditions": [18, 1200, "v", 18000], "trial": 1, "serialpos": 7, "trial_type": "single-stim", "trial_index": 62, "time_elapsed": 376277, "internal_node_id": "0.0-44.0"}}, {"uniqueid": "MTK0826:3137ONMDKHC0IYBRV7NM2C9P37SEGS", "current_trial": 63, "dateTime": 1512760656799, "trialdata": {"rt": -1, "stimulus": "<p id=\"stim\">FINGER</p>", "key_press": -1, "type": "PRES_VIS", "word": "finger", "wordID": 566, "conditions": [18, 1200, "v", 18000], "trial": 1, "serialpos": 8, "trial_type": "single-stim", "trial_index": 63, "time_elapsed": 378622, "internal_node_id": "0.0-45.0"}}, {"uniqueid": "MTK0826:3137ONMDKHC0IYBRV7NM2C9P37SEGS", "current_trial": 64, "dateTime": 1512760659379, "trialdata": {"rt": -1, "stimulus": "<p id=\"stim\">ORANGE</p>", "key_press": -1, "type": "PRES_VIS", "word": "orange", "wordID": 979, "conditions": [18, 1200, "v", 18000], "trial": 1, "serialpos": 9, "trial_type": "single-stim", "trial_index": 64, "time_elapsed": 381202, "internal_node_id": "0.0-46.0"}}, {"uniqueid": "MTK0826:3137ONMDKHC0IYBRV7NM2C9P37SEGS", "current_trial": 65, "dateTime": 1512760661581, "trialdata": {"rt": -1, "stimulus": "<p id=\"stim\">HAWK</p>", "key_press": -1, "type": "PRES_VIS", "word": "hawk", "wordID": 691, "conditions": [18, 1200, "v", 18000], "trial": 1, "serialpos": 10, "trial_type": "single-stim", "trial_index": 65, "time_elapsed": 383405, "internal_node_id": "0.0-47.0"}}, {"uniqueid": "MTK0826:3137ONMDKHC0IYBRV7NM2C9P37SEGS", "current_trial": 66, "dateTime": 1512760663857, "trialdata": {"rt": -1, "stimulus": "<p id=\"stim\">MAILMAN</p>", "key_press": -1, "type": "PRES_VIS", "word": "mailman", "wordID": 857, "conditions": [18, 1200, "v", 18000], "trial": 1, "serialpos": 11, "trial_type": "single-stim", "trial_index": 66, "time_elapsed": 385681, "internal_node_id": "0.0-48.0"}}, {"uniqueid": "MTK0826:3137ONMDKHC0IYBRV7NM2C9P37SEGS", "current_trial": 67, "dateTime": 1512760666139, "trialdata": {"rt": -1, "stimulus": "<p id=\"stim\">SCALLOP</p>", "key_press": -1, "type": "PRES_VIS", "word": "scallop", "wordID": 1241, "conditions": [18, 1200, "v", 18000], "trial": 1, "serialpos": 12, "trial_type": "single-stim", "trial_index": 67, "time_elapsed": 387963, "internal_node_id": "0.0-49.0"}}, {"uniqueid": "MTK0826:3137ONMDKHC0IYBRV7NM2C9P37SEGS", "current_trial": 68, "dateTime": 1512760668488, "trialdata": {"rt": -1, "stimulus": "<p id=\"stim\">ULCER</p>", "key_press": -1, "type": "PRES_VIS", "word": "ulcer", "wordID": 1532, "conditions": [18, 1200, "v", 18000], "trial": 1, "serialpos": 13, "trial_type": "single-stim", "trial_index": 68, "time_elapsed": 390312, "internal_node_id": "0.0-50.0"}}, {"uniqueid": "MTK0826:3137ONMDKHC0IYBRV7NM2C9P37SEGS", "current_trial": 69, "dateTime": 1512760670661, "trialdata": {"rt": -1, "stimulus": "<p id=\"stim\">OUTLAW</p>", "key_press": -1, "type": "PRES_VIS", "word": "outlaw", "wordID": 988, "conditions": [18, 1200, "v", 18000], "trial": 1, "serialpos": 14, "trial_type": "single-stim", "trial_index": 69, "time_elapsed": 392485, "internal_node_id": "0.0-51.0"}}, {"uniqueid": "MTK0826:3137ONMDKHC0IYBRV7NM2C9P37SEGS", "current_trial": 70, "dateTime": 1512760672794, "trialdata": {"rt": -1, "stimulus": "<p id=\"stim\">WORKER</p>", "key_press": -1, "type": "PRES_VIS", "word": "worker", "wordID": 1620, "conditions": [18, 1200, "v", 18000], "trial": 1, "serialpos": 15, "trial_type": "single-stim", "trial_index": 70, "time_elapsed": 394618, "internal_node_id": "0.0-52.0"}}, {"uniqueid": "MTK0826:3137ONMDKHC0IYBRV7NM2C9P37SEGS", "current_trial": 71, "dateTime": 1512760674861, "trialdata": {"rt": -1, "stimulus": "<p id=\"stim\">THIEF</p>", "key_press": -1, "type": "PRES_VIS", "word": "thief", "wordID": 1455, "conditions": [18, 1200, "v", 18000], "trial": 1, "serialpos": 16, "trial_type": "single-stim", "trial_index": 71, "time_elapsed": 396685, "internal_node_id": "0.0-53.0"}}, {"uniqueid": "MTK0826:3137ONMDKHC0IYBRV7NM2C9P37SEGS", "current_trial": 72, "dateTime": 1512760677472, "trialdata": {"rt": -1, "stimulus": "<p id=\"stim\">BUGGY</p>", "key_press": -1, "type": "PRES_VIS", "word": "buggy", "wordID": 187, "conditions": [18, 1200, "v", 18000], "trial": 1, "serialpos": 17, "trial_type": "single-stim", "trial_index": 72, "time_elapsed": 399296, "internal_node_id": "0.0-54.0"}}, {"uniqueid": "MTK0826:3137ONMDKHC0IYBRV7NM2C9P37SEGS", "current_trial": 73, "dateTime": 1512760679645, "trialdata": {"rt": -1, "stimulus": "", "key_press": -1, "type": "PRE_RECALL_DELAY", "trial_type": "single-stim", "trial_index": 73, "time_elapsed": 401469, "internal_node_id": "0.0-55.0-0.0"}}, {"uniqueid": "MTK0826:3137ONMDKHC0IYBRV7NM2C9P37SEGS", "current_trial": 74, "dateTime": 1512760680146, "trialdata": {"rt": -1000, "stimulus": "/static/audio/400Hz.wav", "key_press": -1, "type": "PRE_RECALL_ALERT", "trial_type": "single-audio", "trial_index": 74, "time_elapsed": 401970, "internal_node_id": "0.0-56.0"}}, {"uniqueid": "MTK0826:3137ONMDKHC0IYBRV7NM2C9P37SEGS", "current_trial": 75, "dateTime": 1512760740151, "trialdata": {"rt": [4154, 9869, 10121, 13449, 45437, 50077, 57565], "recwords": ["buggy", "worker", "", "theif", "oyster", "gazzell", "cloud"], "type": "FREE_RECALL", "conditions": [18, 1200, "v", 18000], "trial": 1, "trial_type": "free-recall", "trial_index": 75, "time_elapsed": 461973, "internal_node_id": "0.0-57.0-0.0"}}, {"uniqueid": "MTK0826:3137ONMDKHC0IYBRV7NM2C9P37SEGS", "current_trial": 76, "dateTime": 1512760744813, "trialdata": {"rt": 2653, "key_press": 32, "type": "INSTRUCTIONS", "trial_type": "text", "trial_index": 76, "time_elapsed": 466633, "internal_node_id": "0.0-58.0"}}, {"uniqueid": "MTK0826:3137ONMDKHC0IYBRV7NM2C9P37SEGS", "current_trial": 77, "dateTime": 1512760757817, "trialdata": {"rt": [11267], "responses": ["10"], "num1": [3, 1], "num2": [1, 2], "num3": [6, 7], "type": "DISTRACTOR", "conditions": [24, 800, "v", 12000], "trial": 2, "trial_type": "math-distractor", "trial_index": 77, "time_elapsed": 479641, "internal_node_id": "0.0-59.0"}}, {"uniqueid": "MTK0826:3137ONMDKHC0IYBRV7NM2C9P37SEGS", "current_trial": 78, "dateTime": 1512760760820, "trialdata": {"rt": -1, "stimulus": "<p id=\"stim\">10</p>", "key_press": -1, "trial_type": "single-stim", "trial_index": 78, "time_elapsed": 482643, "internal_node_id": "0.0-60.0-0.0"}}, {"uniqueid": "MTK0826:3137ONMDKHC0IYBRV7NM2C9P37SEGS", "current_trial": 79, "dateTime": 1512760761821, "trialdata": {"rt": -1, "stimulus": "<p id=\"stim\">9</p>", "key_press": -1, "trial_type": "single-stim", "trial_index": 79, "time_elapsed": 483645, "internal_node_id": "0.0-60.0-1.0"}}, {"uniqueid": "MTK0826:3137ONMDKHC0IYBRV7NM2C9P37SEGS", "current_trial": 80, "dateTime": 1512760762823, "trialdata": {"rt": -1, "stimulus": "<p id=\"stim\">8</p>", "key_press": -1, "trial_type": "single-stim", "trial_index": 80, "time_elapsed": 484647, "internal_node_id": "0.0-60.0-2.0"}}, {"uniqueid": "MTK0826:3137ONMDKHC0IYBRV7NM2C9P37SEGS", "current_trial": 81, "dateTime": 1512760763825, "trialdata": {"rt": -1, "stimulus": "<p id=\"stim\">7</p>", "key_press": -1, "trial_type": "single-stim", "trial_index": 81, "time_elapsed": 485648, "internal_node_id": "0.0-60.0-3.0"}}, {"uniqueid": "MTK0826:3137ONMDKHC0IYBRV7NM2C9P37SEGS", "current_trial": 82, "dateTime": 1512760764827, "trialdata": {"rt": -1, "stimulus": "<p id=\"stim\">6</p>", "key_press": -1, "trial_type": "single-stim", "trial_index": 82, "time_elapsed": 486651, "internal_node_id": "0.0-60.0-4.0"}}, {"uniqueid": "MTK0826:3137ONMDKHC0IYBRV7NM2C9P37SEGS", "current_trial": 83, "dateTime": 1512760765831, "trialdata": {"rt": -1, "stimulus": "<p id=\"stim\">5</p>", "key_press": -1, "trial_type": "single-stim", "trial_index": 83, "time_elapsed": 487655, "internal_node_id": "0.0-60.0-5.0"}}, {"uniqueid": "MTK0826:3137ONMDKHC0IYBRV7NM2C9P37SEGS", "current_trial": 84, "dateTime": 1512760766833, "trialdata": {"rt": -1, "stimulus": "<p id=\"stim\">4</p>", "key_press": -1, "trial_type": "single-stim", "trial_index": 84, "time_elapsed": 488657, "internal_node_id": "0.0-60.0-6.0"}}, {"uniqueid": "MTK0826:3137ONMDKHC0IYBRV7NM2C9P37SEGS", "current_trial": 85, "dateTime": 1512760767834, "trialdata": {"rt": -1, "stimulus": "<p id=\"stim\">3</p>", "key_press": -1, "trial_type": "single-stim", "trial_index": 85, "time_elapsed": 489658, "internal_node_id": "0.0-60.0-7.0"}}, {"uniqueid": "MTK0826:3137ONMDKHC0IYBRV7NM2C9P37SEGS", "current_trial": 86, "dateTime": 1512760769000, "trialdata": {"rt": -1, "stimulus": "<p id=\"stim\">2</p>", "key_press": -1, "trial_type": "single-stim", "trial_index": 86, "time_elapsed": 490824, "internal_node_id": "0.0-60.0-8.0"}}, {"uniqueid": "MTK0826:3137ONMDKHC0IYBRV7NM2C9P37SEGS", "current_trial": 87, "dateTime": 1512760770005, "trialdata": {"rt": -1, "stimulus": "<p id=\"stim\">1</p>", "key_press": -1, "trial_type": "single-stim", "trial_index": 87, "time_elapsed": 491828, "internal_node_id": "0.0-60.0-9.0"}}, {"uniqueid": "MTK0826:3137ONMDKHC0IYBRV7NM2C9P37SEGS", "current_trial": 88, "dateTime": 1512760771506, "trialdata": {"rt": -1, "stimulus": "<p id=\"stim\">+</p>", "key_press": -1, "type": "FIXATION", "trial_type": "single-stim", "trial_index": 88, "time_elapsed": 493330, "internal_node_id": "0.0-61.0-0.0"}}, {"uniqueid": "MTK0826:3137ONMDKHC0IYBRV7NM2C9P37SEGS", "current_trial": 89, "dateTime": 1512760772309, "trialdata": {"rt": -1, "stimulus": "<p id=\"stim\">LIVER</p>", "key_press": -1, "type": "PRES_VIS", "word": "liver", "wordID": 832, "conditions": [24, 800, "v", 12000], "trial": 2, "serialpos": 0, "trial_type": "single-stim", "trial_index": 89, "time_elapsed": 494133, "internal_node_id": "0.0-62.0"}}, {"uniqueid": "MTK0826:3137ONMDKHC0IYBRV7NM2C9P37SEGS", "current_trial": 90, "dateTime": 1512760774346, "trialdata": {"rt": -1, "stimulus": "<p id=\"stim\">FIREPLACE</p>", "key_press": -1, "type": "PRES_VIS", "word": "fireplace", "wordID": 569, "conditions": [24, 800, "v", 12000], "trial": 2, "serialpos": 1, "trial_type": "single-stim", "trial_index": 90, "time_elapsed": 496169, "internal_node_id": "0.0-63.0"}}, {"uniqueid": "MTK0826:3137ONMDKHC0IYBRV7NM2C9P37SEGS", "current_trial": 91, "dateTime": 1512760776024, "trialdata": {"rt": -1, "stimulus": "<p id=\"stim\">LEG</p>", "key_press": -1, "type": "PRES_VIS", "word": "leg", "wordID": 808, "conditions": [24, 800, "v", 12000], "trial": 2, "serialpos": 2, "trial_type": "single-stim", "trial_index": 91, "time_elapsed": 497848, "internal_node_id": "0.0-64.0"}}, {"uniqueid": "MTK0826:3137ONMDKHC0IYBRV7NM2C9P37SEGS", "current_trial": 92, "dateTime": 1512760777655, "trialdata": {"rt": -1, "stimulus": "<p id=\"stim\">COFFEE</p>", "key_press": -1, "type": "PRES_VIS", "word": "coffee", "wordID": 340, "conditions": [24, 800, "v", 12000], "trial": 2, "serialpos": 3, "trial_type": "single-stim", "trial_index": 92, "time_elapsed": 499479, "internal_node_id": "0.0-65.0"}}, {"uniqueid": "MTK0826:3137ONMDKHC0IYBRV7NM2C9P37SEGS", "current_trial": 93, "dateTime": 1512760779320, "trialdata": {"rt": -1, "stimulus": "<p id=\"stim\">STATUE</p>", "key_press": -1, "type": "PRES_VIS", "word": "statue", "wordID": 1373, "conditions": [24, 800, "v", 12000], "trial": 2, "serialpos": 4, "trial_type": "single-stim", "trial_index": 93, "time_elapsed": 501144, "internal_node_id": "0.0-66.0"}}, {"uniqueid": "MTK0826:3137ONMDKHC0IYBRV7NM2C9P37SEGS", "current_trial": 94, "dateTime": 1512760781115, "trialdata": {"rt": -1, "stimulus": "<p id=\"stim\">SCULPTURE</p>", "key_press": -1, "type": "PRES_VIS", "word": "sculpture", "wordID": 1257, "conditions": [24, 800, "v", 12000], "trial": 2, "serialpos": 5, "trial_type": "single-stim", "trial_index": 94, "time_elapsed": 502939, "internal_node_id": "0.0-67.0"}}, {"uniqueid": "MTK0826:3137ONMDKHC0IYBRV7NM2C9P37SEGS", "current_trial": 95, "dateTime": 1512760782996, "trialdata": {"rt": -1, "stimulus": "<p id=\"stim\">CROWN</p>", "key_press": -1, "type": "PRES_VIS", "word": "crown", "wordID": 414, "conditions": [24, 800, "v", 12000], "trial": 2, "serialpos": 6, "trial_type": "single-stim", "trial_index": 95, "time_elapsed": 504820, "internal_node_id": "0.0-68.0"}}, {"uniqueid": "MTK0826:3137ONMDKHC0IYBRV7NM2C9P37SEGS", "current_trial": 96, "dateTime": 1512760784636, "trialdata": {"rt": -1, "stimulus": "<p id=\"stim\">KIDNEY</p>", "key_press": -1, "type": "PRES_VIS", "word": "kidney", "wordID": 775, "conditions": [24, 800, "v", 12000], "trial": 2, "serialpos": 7, "trial_type": "single-stim", "trial_index": 96, "time_elapsed": 506460, "internal_node_id": "0.0-69.0"}}, {"uniqueid": "MTK0826:3137ONMDKHC0IYBRV7NM2C9P37SEGS", "current_trial": 97, "dateTime": 1512760786325, "trialdata": {"rt": -1, "stimulus": "<p id=\"stim\">PLASTER</p>", "key_press": -1, "type": "PRES_VIS", "word": "plaster", "wordID": 1084, "conditions": [24, 800, "v", 12000], "trial": 2, "serialpos": 8, "trial_type": "single-stim", "trial_index": 97, "time_elapsed": 508149, "internal_node_id": "0.0-70.0"}}, {"uniqueid": "MTK0826:3137ONMDKHC0IYBRV7NM2C9P37SEGS", "current_trial": 98, "dateTime": 1512760787938, "trialdata": {"rt": -1, "stimulus": "<p id=\"stim\">CLAM</p>", "key_press": -1, "type": "PRES_VIS", "word": "clam", "wordID": 314, "conditions": [24, 800, "v", 12000], "trial": 2, "serialpos": 9, "trial_type": "single-stim", "trial_index": 98, "time_elapsed": 509762, "internal_node_id": "0.0-71.0"}}, {"uniqueid": "MTK0826:3137ONMDKHC0IYBRV7NM2C9P37SEGS", "current_trial": 99, "dateTime": 1512760789697, "trialdata": {"rt": -1, "stimulus": "<p id=\"stim\">SALT</p>", "key_press": -1, "type": "PRES_VIS", "word": "salt", "wordID": 1228, "conditions": [24, 800, "v", 12000], "trial": 2, "serialpos": 10, "trial_type": "single-stim", "trial_index": 99, "time_elapsed": 511520, "internal_node_id": "0.0-72.0"}}, {"uniqueid": "MTK0826:3137ONMDKHC0IYBRV7NM2C9P37SEGS", "current_trial": 100, "dateTime": 1512760791490, "trialdata": {"rt": -1, "stimulus": "<p id=\"stim\">LACE</p>", "key_press": -1, "type": "PRES_VIS", "word": "lace", "wordID": 791, "conditions": [24, 800, "v", 12000], "trial": 2, "serialpos": 11, "trial_type": "single-stim", "trial_index": 100, "time_elapsed": 513314, "internal_node_id": "0.0-73.0"}}, {"uniqueid": "MTK0826:3137ONMDKHC0IYBRV7NM2C9P37SEGS", "current_trial": 101, "dateTime": 1512760793169, "trialdata": {"rt": -1, "stimulus": "<p id=\"stim\">APPLE</p>", "key_press": -1, "type": "PRES_VIS", "word": "apple", "wordID": 32, "conditions": [24, 800, "v", 12000], "trial": 2, "serialpos": 12, "trial_type": "single-stim", "trial_index": 101, "time_elapsed": 514993, "internal_node_id": "0.0-74.0"}}, {"uniqueid": "MTK0826:3137ONMDKHC0IYBRV7NM2C9P37SEGS", "current_trial": 102, "dateTime": 1512760795126, "trialdata": {"rt": -1, "stimulus": "<p id=\"stim\">CLOCK</p>", "key_press": -1, "type": "PRES_VIS", "word": "clock", "wordID": 324, "conditions": [24, 800, "v", 12000], "trial": 2, "serialpos": 13, "trial_type": "single-stim", "trial_index": 102, "time_elapsed": 516950, "internal_node_id": "0.0-75.0"}}, {"uniqueid": "MTK0826:3137ONMDKHC0IYBRV7NM2C9P37SEGS", "current_trial": 103, "dateTime": 1512760797084, "trialdata": {"rt": -1, "stimulus": "<p id=\"stim\">CUPBOARD</p>", "key_press": -1, "type": "PRES_VIS", "word": "cupboard", "wordID": 424, "conditions": [24, 800, "v", 12000], "trial": 2, "serialpos": 14, "trial_type": "single-stim", "trial_index": 103, "time_elapsed": 518908, "internal_node_id": "0.0-76.0"}}, {"uniqueid": "MTK0826:3137ONMDKHC0IYBRV7NM2C9P37SEGS", "current_trial": 104, "dateTime": 1512760799012, "trialdata": {"rt": -1, "stimulus": "<p id=\"stim\">UNCLE</p>", "key_press": -1, "type": "PRES_VIS", "word": "uncle", "wordID": 1535, "conditions": [24, 800, "v", 12000], "trial": 2, "serialpos": 15, "trial_type": "single-stim", "trial_index": 104, "time_elapsed": 520836, "internal_node_id": "0.0-77.0"}}, {"uniqueid": "MTK0826:3137ONMDKHC0IYBRV7NM2C9P37SEGS", "current_trial": 105, "dateTime": 1512760800968, "trialdata": {"rt": -1, "stimulus": "<p id=\"stim\">COUNTY</p>", "key_press": -1, "type": "PRES_VIS", "word": "county", "wordID": 388, "conditions": [24, 800, "v", 12000], "trial": 2, "serialpos": 16, "trial_type": "single-stim", "trial_index": 105, "time_elapsed": 522791, "internal_node_id": "0.0-78.0"}}, {"uniqueid": "MTK0826:3137ONMDKHC0IYBRV7NM2C9P37SEGS", "current_trial": 106, "dateTime": 1512760802837, "trialdata": {"rt": -1, "stimulus": "<p id=\"stim\">CASHIER</p>", "key_press": -1, "type": "PRES_VIS", "word": "cashier", "wordID": 253, "conditions": [24, 800, "v", 12000], "trial": 2, "serialpos": 17, "trial_type": "single-stim", "trial_index": 106, "time_elapsed": 524661, "internal_node_id": "0.0-79.0"}}, {"uniqueid": "MTK0826:3137ONMDKHC0IYBRV7NM2C9P37SEGS", "current_trial": 107, "dateTime": 1512760804808, "trialdata": {"rt": -1, "stimulus": "<p id=\"stim\">WAITRESS</p>", "key_press": -1, "type": "PRES_VIS", "word": "waitress", "wordID": 1580, "conditions": [24, 800, "v", 12000], "trial": 2, "serialpos": 18, "trial_type": "single-stim", "trial_index": 107, "time_elapsed": 526631, "internal_node_id": "0.0-80.0"}}, {"uniqueid": "MTK0826:3137ONMDKHC0IYBRV7NM2C9P37SEGS", "current_trial": 108, "dateTime": 1512760806748, "trialdata": {"rt": -1, "stimulus": "<p id=\"stim\">FRUIT</p>", "key_press": -1, "type": "PRES_VIS", "word": "fruit", "wordID": 609, "conditions": [24, 800, "v", 12000], "trial": 2, "serialpos": 19, "trial_type": "single-stim", "trial_index": 108, "time_elapsed": 528572, "internal_node_id": "0.0-81.0"}}, {"uniqueid": "MTK0826:3137ONMDKHC0IYBRV7NM2C9P37SEGS", "current_trial": 109, "dateTime": 1512760808616, "trialdata": {"rt": -1, "stimulus": "<p id=\"stim\">SNAKE</p>", "key_press": -1, "type": "PRES_VIS", "word": "snake", "wordID": 1332, "conditions": [24, 800, "v", 12000], "trial": 2, "serialpos": 20, "trial_type": "single-stim", "trial_index": 109, "time_elapsed": 530439, "internal_node_id": "0.0-82.0"}}, {"uniqueid": "MTK0826:3137ONMDKHC0IYBRV7NM2C9P37SEGS", "current_trial": 110, "dateTime": 1512760810423, "trialdata": {"rt": -1, "stimulus": "<p id=\"stim\">BUG</p>", "key_press": -1, "type": "PRES_VIS", "word": "bug", "wordID": 186, "conditions": [24, 800, "v", 12000], "trial": 2, "serialpos": 21, "trial_type": "single-stim", "trial_index": 110, "time_elapsed": 532246, "internal_node_id": "0.0-83.0"}}, {"uniqueid": "MTK0826:3137ONMDKHC0IYBRV7NM2C9P37SEGS", "current_trial": 111, "dateTime": 1512760812048, "trialdata": {"rt": -1, "stimulus": "<p id=\"stim\">HATCHET</p>", "key_press": -1, "type": "PRES_VIS", "word": "hatchet", "wordID": 690, "conditions": [24, 800, "v", 12000], "trial": 2, "serialpos": 22, "trial_type": "single-stim", "trial_index": 111, "time_elapsed": 533872, "internal_node_id": "0.0-84.0"}}, {"uniqueid": "MTK0826:3137ONMDKHC0IYBRV7NM2C9P37SEGS", "current_trial": 112, "dateTime": 1512760813984, "trialdata": {"rt": -1, "stimulus": "<p id=\"stim\">SMOG</p>", "key_press": -1, "type": "PRES_VIS", "word": "smog", "wordID": 1329, "conditions": [24, 800, "v", 12000], "trial": 2, "serialpos": 23, "trial_type": "single-stim", "trial_index": 112, "time_elapsed": 535808, "internal_node_id": "0.0-85.0"}}, {"uniqueid": "MTK0826:3137ONMDKHC0IYBRV7NM2C9P37SEGS", "current_trial": 113, "dateTime": 1512760816488, "trialdata": {"rt": -1, "stimulus": "", "key_press": -1, "type": "PRE_RECALL_DELAY", "trial_type": "single-stim", "trial_index": 113, "time_elapsed": 538312, "internal_node_id": "0.0-86.0-0.0"}}, {"uniqueid": "MTK0826:3137ONMDKHC0IYBRV7NM2C9P37SEGS", "current_trial": 114, "dateTime": 1512760816990, "trialdata": {"rt": -1000, "stimulus": "/static/audio/400Hz.wav", "key_press": -1, "type": "PRE_RECALL_ALERT", "trial_type": "single-audio", "trial_index": 114, "time_elapsed": 538813, "internal_node_id": "0.0-87.0"}}, {"uniqueid": "MTK0826:3137ONMDKHC0IYBRV7NM2C9P37SEGS", "current_trial": 115, "dateTime": 1512760876995, "trialdata": {"rt": [7442, 10786, 12730, 15611, 26407, 30558, 35635, 39211, 44710, 45318, 48222, 50990, 55557, 58398], "recwords": ["smog", "waitress", "liver", "leg", "sculpure", "cashier", "apple", "clock", "clown", "", "fruit", "bug", "smog", "hatchet"], "type": "FREE_RECALL", "conditions": [24, 800, "v", 12000], "trial": 2, "trial_type": "free-recall", "trial_index": 115, "time_elapsed": 598816, "internal_node_id": "0.0-88.0-0.0"}}, {"uniqueid": "MTK0826:3137ONMDKHC0IYBRV7NM2C9P37SEGS", "current_trial": 116, "dateTime": 1512760915615, "trialdata": {"rt": 36620, "key_press": 32, "type": "INSTRUCTIONS", "trial_type": "text", "trial_index": 116, "time_elapsed": 637439, "internal_node_id": "0.0-89.0"}}, {"uniqueid": "MTK0826:3137ONMDKHC0IYBRV7NM2C9P37SEGS", "current_trial": 117, "dateTime": 1512760941620, "trialdata": {"rt": [6398, 9991, 13542, 18282], "responses": ["21", "12", "14", "16"], "num1": [7, 2, 2, 8, 7], "num2": [6, 9, 6, 6, 4], "num3": [9, 1, 6, 2, 6], "type": "DISTRACTOR", "conditions": [24, 800, "a", 24000], "trial": 3, "trial_type": "math-distractor", "trial_index": 117, "time_elapsed": 663444, "internal_node_id": "0.0-90.0"}}, {"uniqueid": "MTK0826:3137ONMDKHC0IYBRV7NM2C9P37SEGS", "current_trial": 118, "dateTime": 1512760944624, "trialdata": {"rt": -1, "stimulus": "<p id=\"stim\">10</p>", "key_press": -1, "trial_type": "single-stim", "trial_index": 118, "time_elapsed": 666448, "internal_node_id": "0.0-91.0-0.0"}}, {"uniqueid": "MTK0826:3137ONMDKHC0IYBRV7NM2C9P37SEGS", "current_trial": 119, "dateTime": 1512760945627, "trialdata": {"rt": -1, "stimulus": "<p id=\"stim\">9</p>", "key_press": -1, "trial_type": "single-stim", "trial_index": 119, "time_elapsed": 667450, "internal_node_id": "0.0-91.0-1.0"}}, {"uniqueid": "MTK0826:3137ONMDKHC0IYBRV7NM2C9P37SEGS", "current_trial": 120, "dateTime": 1512760946633, "trialdata": {"rt": -1, "stimulus": "<p id=\"stim\">8</p>", "key_press": -1, "trial_type": "single-stim", "trial_index": 120, "time_elapsed": 668456, "internal_node_id": "0.0-91.0-2.0"}}, {"uniqueid": "MTK0826:3137ONMDKHC0IYBRV7NM2C9P37SEGS", "current_trial": 121, "dateTime": 1512760947637, "trialdata": {"rt": -1, "stimulus": "<p id=\"stim\">7</p>", "key_press": -1, "trial_type": "single-stim", "trial_index": 121, "time_elapsed": 669460, "internal_node_id": "0.0-91.0-3.0"}}, {"uniqueid": "MTK0826:3137ONMDKHC0IYBRV7NM2C9P37SEGS", "current_trial": 122, "dateTime": 1512760948639, "trialdata": {"rt": -1, "stimulus": "<p id=\"stim\">6</p>", "key_press": -1, "trial_type": "single-stim", "trial_index": 122, "time_elapsed": 670463, "internal_node_id": "0.0-91.0-4.0"}}, {"uniqueid": "MTK0826:3137ONMDKHC0IYBRV7NM2C9P37SEGS", "current_trial": 123, "dateTime": 1512760949642, "trialdata": {"rt": -1, "stimulus": "<p id=\"stim\">5</p>", "key_press": -1, "trial_type": "single-stim", "trial_index": 123, "time_elapsed": 671466, "internal_node_id": "0.0-91.0-5.0"}}, {"uniqueid": "MTK0826:3137ONMDKHC0IYBRV7NM2C9P37SEGS", "current_trial": 124, "dateTime": 1512760950814, "trialdata": {"rt": -1, "stimulus": "<p id=\"stim\">4</p>", "key_press": -1, "trial_type": "single-stim", "trial_index": 124, "time_elapsed": 672638, "internal_node_id": "0.0-91.0-6.0"}}, {"uniqueid": "MTK0826:3137ONMDKHC0IYBRV7NM2C9P37SEGS", "current_trial": 125, "dateTime": 1512760951817, "trialdata": {"rt": -1, "stimulus": "<p id=\"stim\">3</p>", "key_press": -1, "trial_type": "single-stim", "trial_index": 125, "time_elapsed": 673640, "internal_node_id": "0.0-91.0-7.0"}}, {"uniqueid": "MTK0826:3137ONMDKHC0IYBRV7NM2C9P37SEGS", "current_trial": 126, "dateTime": 1512760952818, "trialdata": {"rt": -1, "stimulus": "<p id=\"stim\">2</p>", "key_press": -1, "trial_type": "single-stim", "trial_index": 126, "time_elapsed": 674642, "internal_node_id": "0.0-91.0-8.0"}}, {"uniqueid": "MTK0826:3137ONMDKHC0IYBRV7NM2C9P37SEGS", "current_trial": 127, "dateTime": 1512760953821, "trialdata": {"rt": -1, "stimulus": "<p id=\"stim\">1</p>", "key_press": -1, "trial_type": "single-stim", "trial_index": 127, "time_elapsed": 675644, "internal_node_id": "0.0-91.0-9.0"}}, {"uniqueid": "MTK0826:3137ONMDKHC0IYBRV7NM2C9P37SEGS", "current_trial": 128, "dateTime": 1512760955323, "trialdata": {"rt": -1, "stimulus": "<p id=\"stim\">+</p>", "key_press": -1, "type": "FIXATION", "trial_type": "single-stim", "trial_index": 128, "time_elapsed": 677147, "internal_node_id": "0.0-92.0-0.0"}}, {"uniqueid": "MTK0826:3137ONMDKHC0IYBRV7NM2C9P37SEGS", "current_trial": 129, "dateTime": 1512760957324, "trialdata": {"rt": -1000, "stimulus": "/static/audio/wordpool/CABBAGE.wav", "key_press": -1, "type": "PRES_AUD", "word": "cabbage", "wordID": 209, "conditions": [24, 800, "a", 24000], "trial": 3, "serialpos": 0, "trial_type": "single-audio", "trial_index": 129, "time_elapsed": 679148, "internal_node_id": "0.0-93.0"}}, {"uniqueid": "MTK0826:3137ONMDKHC0IYBRV7NM2C9P37SEGS", "current_trial": 130, "dateTime": 1512760959010, "trialdata": {"rt": -1000, "stimulus": "/static/audio/wordpool/MARROW.wav", "key_press": -1, "type": "PRES_AUD", "word": "marrow", "wordID": 871, "conditions": [24, 800, "a", 24000], "trial": 3, "serialpos": 1, "trial_type": "single-audio", "trial_index": 130, "time_elapsed": 680834, "internal_node_id": "0.0-94.0"}}, {"uniqueid": "MTK0826:3137ONMDKHC0IYBRV7NM2C9P37SEGS", "current_trial": 131, "dateTime": 1512760960983, "trialdata": {"rt": -1000, "stimulus": "/static/audio/wordpool/PALACE.wav", "key_press": -1, "type": "PRES_AUD", "word": "palace", "wordID": 1005, "conditions": [24, 800, "a", 24000], "trial": 3, "serialpos": 2, "trial_type": "single-audio", "trial_index": 131, "time_elapsed": 682807, "internal_node_id": "0.0-95.0"}}, {"uniqueid": "MTK0826:3137ONMDKHC0IYBRV7NM2C9P37SEGS", "current_trial": 132, "dateTime": 1512760962844, "trialdata": {"rt": -1000, "stimulus": "/static/audio/wordpool/ONION.wav", "key_press": -1, "type": "PRES_AUD", "word": "onion", "wordID": 976, "conditions": [24, 800, "a", 24000], "trial": 3, "serialpos": 3, "trial_type": "single-audio", "trial_index": 132, "time_elapsed": 684668, "internal_node_id": "0.0-96.0"}}, {"uniqueid": "MTK0826:3137ONMDKHC0IYBRV7NM2C9P37SEGS", "current_trial": 133, "dateTime": 1512760964678, "trialdata": {"rt": -1000, "stimulus": "/static/audio/wordpool/BUREAU.wav", "key_press": -1, "type": "PRES_AUD", "word": "bureau", "wordID": 198, "conditions": [24, 800, "a", 24000], "trial": 3, "serialpos": 4, "trial_type": "single-audio", "trial_index": 133, "time_elapsed": 686502, "internal_node_id": "0.0-97.0"}}, {"uniqueid": "MTK0826:3137ONMDKHC0IYBRV7NM2C9P37SEGS", "current_trial": 134, "dateTime": 1512760966292, "trialdata": {"rt": -1000, "stimulus": "/static/audio/wordpool/REPORT.wav", "key_press": -1, "type": "PRES_AUD", "word": "report", "wordID": 1183, "conditions": [24, 800, "a", 24000], "trial": 3, "serialpos": 5, "trial_type": "single-audio", "trial_index": 134, "time_elapsed": 688116, "internal_node_id": "0.0-98.0"}}, {"uniqueid": "MTK0826:3137ONMDKHC0IYBRV7NM2C9P37SEGS", "current_trial": 135, "dateTime": 1512760968673, "trialdata": {"rt": -1000, "stimulus": "/static/audio/wordpool/CASKET.wav", "key_press": -1, "type": "PRES_AUD", "word": "casket", "wordID": 254, "conditions": [24, 800, "a", 24000], "trial": 3, "serialpos": 6, "trial_type": "single-audio", "trial_index": 135, "time_elapsed": 690497, "internal_node_id": "0.0-99.0"}}, {"uniqueid": "MTK0826:3137ONMDKHC0IYBRV7NM2C9P37SEGS", "current_trial": 136, "dateTime": 1512760970599, "trialdata": {"rt": -1000, "stimulus": "/static/audio/wordpool/SLOPE.wav", "key_press": -1, "type": "PRES_AUD", "word": "slope", "wordID": 1327, "conditions": [24, 800, "a", 24000], "trial": 3, "serialpos": 7, "trial_type": "single-audio", "trial_index": 136, "time_elapsed": 692423, "internal_node_id": "0.0-100.0"}}, {"uniqueid": "MTK0826:3137ONMDKHC0IYBRV7NM2C9P37SEGS", "current_trial": 137, "dateTime": 1512760972316, "trialdata": {"rt": -1000, "stimulus": "/static/audio/wordpool/PLATE.wav", "key_press": -1, "type": "PRES_AUD", "word": "plate", "wordID": 1085, "conditions": [24, 800, "a", 24000], "trial": 3, "serialpos": 8, "trial_type": "single-audio", "trial_index": 137, "time_elapsed": 694139, "internal_node_id": "0.0-101.0"}}, {"uniqueid": "MTK0826:3137ONMDKHC0IYBRV7NM2C9P37SEGS", "current_trial": 138, "dateTime": 1512760974309, "trialdata": {"rt": -1000, "stimulus": "/static/audio/wordpool/DAUGHTER.wav", "key_press": -1, "type": "PRES_AUD", "word": "daughter", "wordID": 441, "conditions": [24, 800, "a", 24000], "trial": 3, "serialpos": 9, "trial_type": "single-audio", "trial_index": 138, "time_elapsed": 696133, "internal_node_id": "0.0-102.0"}}, {"uniqueid": "MTK0826:3137ONMDKHC0IYBRV7NM2C9P37SEGS", "current_trial": 139, "dateTime": 1512760975971, "trialdata": {"rt": -1000, "stimulus": "/static/audio/wordpool/CHILD.wav", "key_press": -1, "type": "PRES_AUD", "word": "child", "wordID": 298, "conditions": [24, 800, "a", 24000], "trial": 3, "serialpos": 10, "trial_type": "single-audio", "trial_index": 139, "time_elapsed": 697794, "internal_node_id": "0.0-103.0"}}, {"uniqueid": "MTK0826:3137ONMDKHC0IYBRV7NM2C9P37SEGS", "current_trial": 140, "dateTime": 1512760977825, "trialdata": {"rt": -1000, "stimulus": "/static/audio/wordpool/TOMBSTONE.wav", "key_press": -1, "type": "PRES_AUD", "word": "tombstone", "wordID": 1477, "conditions": [24, 800, "a", 24000], "trial": 3, "serialpos": 11, "trial_type": "single-audio", "trial_index": 140, "time_elapsed": 699649, "internal_node_id": "0.0-104.0"}}, {"uniqueid": "MTK0826:3137ONMDKHC0IYBRV7NM2C9P37SEGS", "current_trial": 141, "dateTime": 1512760979772, "trialdata": {"rt": -1000, "stimulus": "/static/audio/wordpool/CASHEW.wav", "key_press": -1, "type": "PRES_AUD", "word": "cashew", "wordID": 252, "conditions": [24, 800, "a", 24000], "trial": 3, "serialpos": 12, "trial_type": "single-audio", "trial_index": 141, "time_elapsed": 701596, "internal_node_id": "0.0-105.0"}}, {"uniqueid": "MTK0826:3137ONMDKHC0IYBRV7NM2C9P37SEGS", "current_trial": 142, "dateTime": 1512760981743, "trialdata": {"rt": -1000, "stimulus": "/static/audio/wordpool/SHRUB.wav", "key_press": -1, "type": "PRES_AUD", "word": "shrub", "wordID": 1298, "conditions": [24, 800, "a", 24000], "trial": 3, "serialpos": 13, "trial_type": "single-audio", "trial_index": 142, "time_elapsed": 703567, "internal_node_id": "0.0-106.0"}}, {"uniqueid": "MTK0826:3137ONMDKHC0IYBRV7NM2C9P37SEGS", "current_trial": 143, "dateTime": 1512760983533, "trialdata": {"rt": -1000, "stimulus": "/static/audio/wordpool/REBEL.wav", "key_press": -1, "type": "PRES_AUD", "word": "rebel", "wordID": 1171, "conditions": [24, 800, "a", 24000], "trial": 3, "serialpos": 14, "trial_type": "single-audio", "trial_index": 143, "time_elapsed": 705357, "internal_node_id": "0.0-107.0"}}, {"uniqueid": "MTK0826:3137ONMDKHC0IYBRV7NM2C9P37SEGS", "current_trial": 144, "dateTime": 1512760985203, "trialdata": {"rt": -1000, "stimulus": "/static/audio/wordpool/HAMPER.wav", "key_press": -1, "type": "PRES_AUD", "word": "hamper", "wordID": 681, "conditions": [24, 800, "a", 24000], "trial": 3, "serialpos": 15, "trial_type": "single-audio", "trial_index": 144, "time_elapsed": 707027, "internal_node_id": "0.0-108.0"}}, {"uniqueid": "MTK0826:3137ONMDKHC0IYBRV7NM2C9P37SEGS", "current_trial": 145, "dateTime": 1512760986829, "trialdata": {"rt": -1000, "stimulus": "/static/audio/wordpool/SPHINX.wav", "key_press": -1, "type": "PRES_AUD", "word": "sphinx", "wordID": 1348, "conditions": [24, 800, "a", 24000], "trial": 3, "serialpos": 16, "trial_type": "single-audio", "trial_index": 145, "time_elapsed": 708653, "internal_node_id": "0.0-109.0"}}, {"uniqueid": "MTK0826:3137ONMDKHC0IYBRV7NM2C9P37SEGS", "current_trial": 146, "dateTime": 1512760988627, "trialdata": {"rt": -1000, "stimulus": "/static/audio/wordpool/WRIST.wav", "key_press": -1, "type": "PRES_AUD", "word": "wrist", "wordID": 1625, "conditions": [24, 800, "a", 24000], "trial": 3, "serialpos": 17, "trial_type": "single-audio", "trial_index": 146, "time_elapsed": 710451, "internal_node_id": "0.0-110.0"}}, {"uniqueid": "MTK0826:3137ONMDKHC0IYBRV7NM2C9P37SEGS", "current_trial": 147, "dateTime": 1512760990478, "trialdata": {"rt": -1000, "stimulus": "/static/audio/wordpool/ANTLER.wav", "key_press": -1, "type": "PRES_AUD", "word": "antler", "wordID": 28, "conditions": [24, 800, "a", 24000], "trial": 3, "serialpos": 18, "trial_type": "single-audio", "trial_index": 147, "time_elapsed": 712302, "internal_node_id": "0.0-111.0"}}, {"uniqueid": "MTK0826:3137ONMDKHC0IYBRV7NM2C9P37SEGS", "current_trial": 148, "dateTime": 1512760992248, "trialdata": {"rt": -1000, "stimulus": "/static/audio/wordpool/SHORTCAKE.wav", "key_press": -1, "type": "PRES_AUD", "word": "shortcake", "wordID": 1291, "conditions": [24, 800, "a", 24000], "trial": 3, "serialpos": 19, "trial_type": "single-audio", "trial_index": 148, "time_elapsed": 714072, "internal_node_id": "0.0-112.0"}}, {"uniqueid": "MTK0826:3137ONMDKHC0IYBRV7NM2C9P37SEGS", "current_trial": 149, "dateTime": 1512760994205, "trialdata": {"rt": -1000, "stimulus": "/static/audio/wordpool/SHOULDER.wav", "key_press": -1, "type": "PRES_AUD", "word": "shoulder", "wordID": 1293, "conditions": [24, 800, "a", 24000], "trial": 3, "serialpos": 20, "trial_type": "single-audio", "trial_index": 149, "time_elapsed": 716029, "internal_node_id": "0.0-113.0"}}, {"uniqueid": "MTK0826:3137ONMDKHC0IYBRV7NM2C9P37SEGS", "current_trial": 150, "dateTime": 1512760995985, "trialdata": {"rt": -1000, "stimulus": "/static/audio/wordpool/CATTLE.wav", "key_press": -1, "type": "PRES_AUD", "word": "cattle", "wordID": 260, "conditions": [24, 800, "a", 24000], "trial": 3, "serialpos": 21, "trial_type": "single-audio", "trial_index": 150, "time_elapsed": 717809, "internal_node_id": "0.0-114.0"}}, {"uniqueid": "MTK0826:3137ONMDKHC0IYBRV7NM2C9P37SEGS", "current_trial": 151, "dateTime": 1512760997899, "trialdata": {"rt": -1000, "stimulus": "/static/audio/wordpool/BEEF.wav", "key_press": -1, "type": "PRES_AUD", "word": "beef", "wordID": 112, "conditions": [24, 800, "a", 24000], "trial": 3, "serialpos": 22, "trial_type": "single-audio", "trial_index": 151, "time_elapsed": 719723, "internal_node_id": "0.0-115.0"}}, {"uniqueid": "MTK0826:3137ONMDKHC0IYBRV7NM2C9P37SEGS", "current_trial": 152, "dateTime": 1512760999756, "trialdata": {"rt": -1000, "stimulus": "/static/audio/wordpool/ORCHID.wav", "key_press": -1, "type": "PRES_AUD", "word": "orchid", "wordID": 981, "conditions": [24, 800, "a", 24000], "trial": 3, "serialpos": 23, "trial_type": "single-audio", "trial_index": 152, "time_elapsed": 721580, "internal_node_id": "0.0-116.0"}}, {"uniqueid": "MTK0826:3137ONMDKHC0IYBRV7NM2C9P37SEGS", "current_trial": 153, "dateTime": 1512761001000, "trialdata": {"rt": -1, "stimulus": "", "key_press": -1, "type": "PRE_RECALL_DELAY", "trial_type": "single-stim", "trial_index": 153, "time_elapsed": 722824, "internal_node_id": "0.0-117.0-0.0"}}, {"uniqueid": "MTK0826:3137ONMDKHC0IYBRV7NM2C9P37SEGS", "current_trial": 154, "dateTime": 1512761001501, "trialdata": {"rt": -1000, "stimulus": "/static/audio/400Hz.wav", "key_press": -1, "type": "PRE_RECALL_ALERT", "trial_type": "single-audio", "trial_index": 154, "time_elapsed": 723325, "internal_node_id": "0.0-118.0"}}, {"uniqueid": "MTK0826:3137ONMDKHC0IYBRV7NM2C9P37SEGS", "current_trial": 155, "dateTime": 1512761061507, "trialdata": {"rt": [6428, 9262, 11148, 13837, 16341, 22126, 27966, 32640, 32840, 37633, 44361, 44498, 50941, 52901, 58949], "recwords": ["orchid", "beef", "cattle", "slope", "antler", "cabbage", "marrow", "onion", "", "report", "child", "", "rebel", "hamper", "wrist"], "type": "FREE_RECALL", "conditions": [24, 800, "a", 24000], "trial": 3, "trial_type": "free-recall", "trial_index": 155, "time_elapsed": 783328, "internal_node_id": "0.0-119.0-0.0"}}, {"uniqueid": "MTK0826:3137ONMDKHC0IYBRV7NM2C9P37SEGS", "current_trial": 156, "dateTime": 1512761069578, "trialdata": {"rt": 6070, "key_press": 13, "type": "INSTRUCTIONS", "trial_type": "text", "trial_index": 156, "time_elapsed": 791402, "internal_node_id": "0.0-120.0"}}, {"uniqueid": "MTK0826:3137ONMDKHC0IYBRV7NM2C9P37SEGS", "current_trial": 157, "dateTime": 1512761095582, "trialdata": {"rt": [3503, 9564, 13839, 17694, 22218], "responses": ["9", "17", "15", "9", "15"], "num1": [3, 9, 5, 1, 8, 6], "num2": [5, 1, 8, 2, 2, 9], "num3": [1, 7, 2, 6, 5, 6], "type": "DISTRACTOR", "conditions": [24, 1600, "v", 24000], "trial": 4, "trial_type": "math-distractor", "trial_index": 157, "time_elapsed": 817405, "internal_node_id": "0.0-121.0"}}, {"uniqueid": "MTK0826:3137ONMDKHC0IYBRV7NM2C9P37SEGS", "current_trial": 158, "dateTime": 1512761098584, "trialdata": {"rt": -1, "stimulus": "<p id=\"stim\">10</p>", "key_press": -1, "trial_type": "single-stim", "trial_index": 158, "time_elapsed": 820408, "internal_node_id": "0.0-122.0-0.0"}}, {"uniqueid": "MTK0826:3137ONMDKHC0IYBRV7NM2C9P37SEGS", "current_trial": 159, "dateTime": 1512761099587, "trialdata": {"rt": -1, "stimulus": "<p id=\"stim\">9</p>", "key_press": -1, "trial_type": "single-stim", "trial_index": 159, "time_elapsed": 821411, "internal_node_id": "0.0-122.0-1.0"}}, {"uniqueid": "MTK0826:3137ONMDKHC0IYBRV7NM2C9P37SEGS", "current_trial": 160, "dateTime": 1512761100588, "trialdata": {"rt": -1, "stimulus": "<p id=\"stim\">8</p>", "key_press": -1, "trial_type": "single-stim", "trial_index": 160, "time_elapsed": 822412, "internal_node_id": "0.0-122.0-2.0"}}, {"uniqueid": "MTK0826:3137ONMDKHC0IYBRV7NM2C9P37SEGS", "current_trial": 161, "dateTime": 1512761101590, "trialdata": {"rt": -1, "stimulus": "<p id=\"stim\">7</p>", "key_press": -1, "trial_type": "single-stim", "trial_index": 161, "time_elapsed": 823414, "internal_node_id": "0.0-122.0-3.0"}}, {"uniqueid": "MTK0826:3137ONMDKHC0IYBRV7NM2C9P37SEGS", "current_trial": 162, "dateTime": 1512761102591, "trialdata": {"rt": -1, "stimulus": "<p id=\"stim\">6</p>", "key_press": -1, "trial_type": "single-stim", "trial_index": 162, "time_elapsed": 824415, "internal_node_id": "0.0-122.0-4.0"}}, {"uniqueid": "MTK0826:3137ONMDKHC0IYBRV7NM2C9P37SEGS", "current_trial": 163, "dateTime": 1512761103595, "trialdata": {"rt": -1, "stimulus": "<p id=\"stim\">5</p>", "key_press": -1, "trial_type": "single-stim", "trial_index": 163, "time_elapsed": 825419, "internal_node_id": "0.0-122.0-5.0"}}, {"uniqueid": "MTK0826:3137ONMDKHC0IYBRV7NM2C9P37SEGS", "current_trial": 164, "dateTime": 1512761104597, "trialdata": {"rt": -1, "stimulus": "<p id=\"stim\">4</p>", "key_press": -1, "trial_type": "single-stim", "trial_index": 164, "time_elapsed": 826421, "internal_node_id": "0.0-122.0-6.0"}}, {"uniqueid": "MTK0826:3137ONMDKHC0IYBRV7NM2C9P37SEGS", "current_trial": 165, "dateTime": 1512761105598, "trialdata": {"rt": -1, "stimulus": "<p id=\"stim\">3</p>", "key_press": -1, "trial_type": "single-stim", "trial_index": 165, "time_elapsed": 827422, "internal_node_id": "0.0-122.0-7.0"}}, {"uniqueid": "MTK0826:3137ONMDKHC0IYBRV7NM2C9P37SEGS", "current_trial": 166, "dateTime": 1512761106602, "trialdata": {"rt": -1, "stimulus": "<p id=\"stim\">2</p>", "key_press": -1, "trial_type": "single-stim", "trial_index": 166, "time_elapsed": 828426, "internal_node_id": "0.0-122.0-8.0"}}, {"uniqueid": "MTK0826:3137ONMDKHC0IYBRV7NM2C9P37SEGS", "current_trial": 167, "dateTime": 1512761107603, "trialdata": {"rt": -1, "stimulus": "<p id=\"stim\">1</p>", "key_press": -1, "trial_type": "single-stim", "trial_index": 167, "time_elapsed": 829427, "internal_node_id": "0.0-122.0-9.0"}}, {"uniqueid": "MTK0826:3137ONMDKHC0IYBRV7NM2C9P37SEGS", "current_trial": 168, "dateTime": 1512761109105, "trialdata": {"rt": -1, "stimulus": "<p id=\"stim\">+</p>", "key_press": -1, "type": "FIXATION", "trial_type": "single-stim", "trial_index": 168, "time_elapsed": 830929, "internal_node_id": "0.0-123.0-0.0"}}, {"uniqueid": "MTK0826:3137ONMDKHC0IYBRV7NM2C9P37SEGS", "current_trial": 169, "dateTime": 1512761110708, "trialdata": {"rt": -1, "stimulus": "<p id=\"stim\">PIGEON</p>", "key_press": -1, "type": "PRES_VIS", "word": "pigeon", "wordID": 1064, "conditions": [24, 1600, "v", 24000], "trial": 4, "serialpos": 0, "trial_type": "single-stim", "trial_index": 169, "time_elapsed": 832531, "internal_node_id": "0.0-124.0"}}, {"uniqueid": "MTK0826:3137ONMDKHC0IYBRV7NM2C9P37SEGS", "current_trial": 170, "dateTime": 1512761113181, "trialdata": {"rt": -1, "stimulus": "<p id=\"stim\">RAZOR</p>", "key_press": -1, "type": "PRES_VIS", "word": "razor", "wordID": 1170, "conditions": [24, 1600, "v", 24000], "trial": 4, "serialpos": 1, "trial_type": "single-stim", "trial_index": 170, "time_elapsed": 835005, "internal_node_id": "0.0-125.0"}}, {"uniqueid": "MTK0826:3137ONMDKHC0IYBRV7NM2C9P37SEGS", "current_trial": 171, "dateTime": 1512761115623, "trialdata": {"rt": -1, "stimulus": "<p id=\"stim\">SIBLING</p>", "key_press": -1, "type": "PRES_VIS", "word": "sibling", "wordID": 1300, "conditions": [24, 1600, "v", 24000], "trial": 4, "serialpos": 2, "trial_type": "single-stim", "trial_index": 171, "time_elapsed": 837447, "internal_node_id": "0.0-126.0"}}, {"uniqueid": "MTK0826:3137ONMDKHC0IYBRV7NM2C9P37SEGS", "current_trial": 172, "dateTime": 1512761118167, "trialdata": {"rt": -1, "stimulus": "<p id=\"stim\">MILK</p>", "key_press": -1, "type": "PRES_VIS", "word": "milk", "wordID": 894, "conditions": [24, 1600, "v", 24000], "trial": 4, "serialpos": 3, "trial_type": "single-stim", "trial_index": 172, "time_elapsed": 839990, "internal_node_id": "0.0-127.0"}}, {"uniqueid": "MTK0826:3137ONMDKHC0IYBRV7NM2C9P37SEGS", "current_trial": 173, "dateTime": 1512761120868, "trialdata": {"rt": -1, "stimulus": "<p id=\"stim\">SCISSORS</p>", "key_press": -1, "type": "PRES_VIS", "word": "scissors", "wordID": 1249, "conditions": [24, 1600, "v", 24000], "trial": 4, "serialpos": 4, "trial_type": "single-stim", "trial_index": 173, "time_elapsed": 842692, "internal_node_id": "0.0-128.0"}}, {"uniqueid": "MTK0826:3137ONMDKHC0IYBRV7NM2C9P37SEGS", "current_trial": 174, "dateTime": 1512761123613, "trialdata": {"rt": -1, "stimulus": "<p id=\"stim\">PEANUT</p>", "key_press": -1, "type": "PRES_VIS", "word": "peanut", "wordID": 1031, "conditions": [24, 1600, "v", 24000], "trial": 4, "serialpos": 5, "trial_type": "single-stim", "trial_index": 174, "time_elapsed": 845437, "internal_node_id": "0.0-129.0"}}, {"uniqueid": "MTK0826:3137ONMDKHC0IYBRV7NM2C9P37SEGS", "current_trial": 175, "dateTime": 1512761126093, "trialdata": {"rt": -1, "stimulus": "<p id=\"stim\">BRANDY</p>", "key_press": -1, "type": "PRES_VIS", "word": "brandy", "wordID": 168, "conditions": [24, 1600, "v", 24000], "trial": 4, "serialpos": 6, "trial_type": "single-stim", "trial_index": 175, "time_elapsed": 847917, "internal_node_id": "0.0-130.0"}}, {"uniqueid": "MTK0826:3137ONMDKHC0IYBRV7NM2C9P37SEGS", "current_trial": 176, "dateTime": 1512761128521, "trialdata": {"rt": -1, "stimulus": "<p id=\"stim\">NEUTRON</p>", "key_press": -1, "type": "PRES_VIS", "word": "neutron", "wordID": 946, "conditions": [24, 1600, "v", 24000], "trial": 4, "serialpos": 7, "trial_type": "single-stim", "trial_index": 176, "time_elapsed": 850345, "internal_node_id": "0.0-131.0"}}, {"uniqueid": "MTK0826:3137ONMDKHC0IYBRV7NM2C9P37SEGS", "current_trial": 177, "dateTime": 1512761131074, "trialdata": {"rt": -1, "stimulus": "<p id=\"stim\">ROD</p>", "key_press": -1, "type": "PRES_VIS", "word": "rod", "wordID": 1202, "conditions": [24, 1600, "v", 24000], "trial": 4, "serialpos": 8, "trial_type": "single-stim", "trial_index": 177, "time_elapsed": 852897, "internal_node_id": "0.0-132.0"}}, {"uniqueid": "MTK0826:3137ONMDKHC0IYBRV7NM2C9P37SEGS", "current_trial": 178, "dateTime": 1512761133528, "trialdata": {"rt": -1, "stimulus": "<p id=\"stim\">CANAL</p>", "key_press": -1, "type": "PRES_VIS", "word": "canal", "wordID": 225, "conditions": [24, 1600, "v", 24000], "trial": 4, "serialpos": 9, "trial_type": "single-stim", "trial_index": 178, "time_elapsed": 855352, "internal_node_id": "0.0-133.0"}}, {"uniqueid": "MTK0826:3137ONMDKHC0IYBRV7NM2C9P37SEGS", "current_trial": 179, "dateTime": 1512761136277, "trialdata": {"rt": -1, "stimulus": "<p id=\"stim\">SUNRISE</p>", "key_press": -1, "type": "PRES_VIS", "word": "sunrise", "wordID": 1406, "conditions": [24, 1600, "v", 24000], "trial": 4, "serialpos": 10, "trial_type": "single-stim", "trial_index": 179, "time_elapsed": 858101, "internal_node_id": "0.0-134.0"}}, {"uniqueid": "MTK0826:3137ONMDKHC0IYBRV7NM2C9P37SEGS", "current_trial": 180, "dateTime": 1512761139382, "trialdata": {"rt": -1, "stimulus": "<p id=\"stim\">SUNSET</p>", "key_press": -1, "type": "PRES_VIS", "word": "sunset", "wordID": 1407, "conditions": [24, 1600, "v", 24000], "trial": 4, "serialpos": 11, "trial_type": "single-stim", "trial_index": 180, "time_elapsed": 861206, "internal_node_id": "0.0-135.0"}}, {"uniqueid": "MTK0826:3137ONMDKHC0IYBRV7NM2C9P37SEGS", "current_trial": 181, "dateTime": 1512761142110, "trialdata": {"rt": -1, "stimulus": "<p id=\"stim\">TRUCK</p>", "key_press": -1, "type": "PRES_VIS", "word": "truck", "wordID": 1511, "conditions": [24, 1600, "v", 24000], "trial": 4, "serialpos": 12, "trial_type": "single-stim", "trial_index": 181, "time_elapsed": 863934, "internal_node_id": "0.0-136.0"}}, {"uniqueid": "MTK0826:3137ONMDKHC0IYBRV7NM2C9P37SEGS", "current_trial": 182, "dateTime": 1512761144832, "trialdata": {"rt": -1, "stimulus": "<p id=\"stim\">SCARF</p>", "key_press": -1, "type": "PRES_VIS", "word": "scarf", "wordID": 1245, "conditions": [24, 1600, "v", 24000], "trial": 4, "serialpos": 13, "trial_type": "single-stim", "trial_index": 182, "time_elapsed": 866656, "internal_node_id": "0.0-137.0"}}, {"uniqueid": "MTK0826:3137ONMDKHC0IYBRV7NM2C9P37SEGS", "current_trial": 183, "dateTime": 1512761147592, "trialdata": {"rt": -1, "stimulus": "<p id=\"stim\">ATOM</p>", "key_press": -1, "type": "PRES_VIS", "word": "atom", "wordID": 54, "conditions": [24, 1600, "v", 24000], "trial": 4, "serialpos": 14, "trial_type": "single-stim", "trial_index": 183, "time_elapsed": 869416, "internal_node_id": "0.0-138.0"}}, {"uniqueid": "MTK0826:3137ONMDKHC0IYBRV7NM2C9P37SEGS", "current_trial": 184, "dateTime": 1512761150067, "trialdata": {"rt": -1, "stimulus": "<p id=\"stim\">SKETCH</p>", "key_press": -1, "type": "PRES_VIS", "word": "sketch", "wordID": 1314, "conditions": [24, 1600, "v", 24000], "trial": 4, "serialpos": 15, "trial_type": "single-stim", "trial_index": 184, "time_elapsed": 871891, "internal_node_id": "0.0-139.0"}}, {"uniqueid": "MTK0826:3137ONMDKHC0IYBRV7NM2C9P37SEGS", "current_trial": 185, "dateTime": 1512761152656, "trialdata": {"rt": -1, "stimulus": "<p id=\"stim\">ROBOT</p>", "key_press": -1, "type": "PRES_VIS", "word": "robot", "wordID": 1199, "conditions": [24, 1600, "v", 24000], "trial": 4, "serialpos": 16, "trial_type": "single-stim", "trial_index": 185, "time_elapsed": 874480, "internal_node_id": "0.0-140.0"}}, {"uniqueid": "MTK0826:3137ONMDKHC0IYBRV7NM2C9P37SEGS", "current_trial": 186, "dateTime": 1512761155114, "trialdata": {"rt": -1, "stimulus": "<p id=\"stim\">SANDWICH</p>", "key_press": -1, "type": "PRES_VIS", "word": "sandwich", "wordID": 1231, "conditions": [24, 1600, "v", 24000], "trial": 4, "serialpos": 17, "trial_type": "single-stim", "trial_index": 186, "time_elapsed": 876938, "internal_node_id": "0.0-141.0"}}, {"uniqueid": "MTK0826:3137ONMDKHC0IYBRV7NM2C9P37SEGS", "current_trial": 187, "dateTime": 1512761157634, "trialdata": {"rt": -1, "stimulus": "<p id=\"stim\">DRIVER</p>", "key_press": -1, "type": "PRES_VIS", "word": "driver", "wordID": 498, "conditions": [24, 1600, "v", 24000], "trial": 4, "serialpos": 18, "trial_type": "single-stim", "trial_index": 187, "time_elapsed": 879458, "internal_node_id": "0.0-142.0"}}, {"uniqueid": "MTK0826:3137ONMDKHC0IYBRV7NM2C9P37SEGS", "current_trial": 188, "dateTime": 1512761160286, "trialdata": {"rt": -1, "stimulus": "<p id=\"stim\">POET</p>", "key_press": -1, "type": "PRES_VIS", "word": "poet", "wordID": 1094, "conditions": [24, 1600, "v", 24000], "trial": 4, "serialpos": 19, "trial_type": "single-stim", "trial_index": 188, "time_elapsed": 882110, "internal_node_id": "0.0-143.0"}}, {"uniqueid": "MTK0826:3137ONMDKHC0IYBRV7NM2C9P37SEGS", "current_trial": 189, "dateTime": 1512761162876, "trialdata": {"rt": -1, "stimulus": "<p id=\"stim\">RIVER</p>", "key_press": -1, "type": "PRES_VIS", "word": "river", "wordID": 1193, "conditions": [24, 1600, "v", 24000], "trial": 4, "serialpos": 20, "trial_type": "single-stim", "trial_index": 189, "time_elapsed": 884700, "internal_node_id": "0.0-144.0"}}, {"uniqueid": "MTK0826:3137ONMDKHC0IYBRV7NM2C9P37SEGS", "current_trial": 190, "dateTime": 1512761165480, "trialdata": {"rt": -1, "stimulus": "<p id=\"stim\">LAKE</p>", "key_press": -1, "type": "PRES_VIS", "word": "lake", "wordID": 795, "conditions": [24, 1600, "v", 24000], "trial": 4, "serialpos": 21, "trial_type": "single-stim", "trial_index": 190, "time_elapsed": 887304, "internal_node_id": "0.0-145.0"}}, {"uniqueid": "MTK0826:3137ONMDKHC0IYBRV7NM2C9P37SEGS", "current_trial": 191, "dateTime": 1512761168267, "trialdata": {"rt": -1, "stimulus": "<p id=\"stim\">HIKER</p>", "key_press": -1, "type": "PRES_VIS", "word": "hiker", "wordID": 707, "conditions": [24, 1600, "v", 24000], "trial": 4, "serialpos": 22, "trial_type": "single-stim", "trial_index": 191, "time_elapsed": 890091, "internal_node_id": "0.0-146.0"}}, {"uniqueid": "MTK0826:3137ONMDKHC0IYBRV7NM2C9P37SEGS", "current_trial": 192, "dateTime": 1512761170873, "trialdata": {"rt": -1, "stimulus": "<p id=\"stim\">GYMNAST</p>", "key_press": -1, "type": "PRES_VIS", "word": "gymnast", "wordID": 674, "conditions": [24, 1600, "v", 24000], "trial": 4, "serialpos": 23, "trial_type": "single-stim", "trial_index": 192, "time_elapsed": 892697, "internal_node_id": "0.0-147.0"}}, {"uniqueid": "MTK0826:3137ONMDKHC0IYBRV7NM2C9P37SEGS", "current_trial": 193, "dateTime": 1512761172962, "trialdata": {"rt": -1, "stimulus": "", "key_press": -1, "type": "PRE_RECALL_DELAY", "trial_type": "single-stim", "trial_index": 193, "time_elapsed": 894786, "internal_node_id": "0.0-148.0-0.0"}}, {"uniqueid": "MTK0826:3137ONMDKHC0IYBRV7NM2C9P37SEGS", "current_trial": 194, "dateTime": 1512761173765, "trialdata": {"rt": -1000, "stimulus": "/static/audio/400Hz.wav", "key_press": -1, "type": "PRE_RECALL_ALERT", "trial_type": "single-audio", "trial_index": 194, "time_elapsed": 895589, "internal_node_id": "0.0-149.0"}}, {"uniqueid": "MTK0826:3137ONMDKHC0IYBRV7NM2C9P37SEGS", "current_trial": 195, "dateTime": 1512761233772, "trialdata": {"rt": [8035, 10131, 40820, 49588, 52813, 53148, 56700], "recwords": ["gymnist", "hiker", "razor", "scissors", "sibling", "", "brandy"], "type": "FREE_RECALL", "conditions": [24, 1600, "v", 24000], "trial": 4, "trial_type": "free-recall", "trial_index": 195, "time_elapsed": 955593, "internal_node_id": "0.0-150.0-0.0"}}, {"uniqueid": "MTK0826:3137ONMDKHC0IYBRV7NM2C9P37SEGS", "current_trial": 196, "dateTime": 1512761238129, "trialdata": {"rt": 2353, "key_press": 32, "type": "INSTRUCTIONS", "trial_type": "text", "trial_index": 196, "time_elapsed": 959953, "internal_node_id": "0.0-151.0"}}, {"uniqueid": "MTK0826:3137ONMDKHC0IYBRV7NM2C9P37SEGS", "current_trial": 197, "dateTime": 1512761252132, "trialdata": {"rt": [10876], "responses": ["26"], "num1": [9, 2], "num2": [8, 7], "num3": [9, 8], "type": "DISTRACTOR", "conditions": [24, 800, "a", 12000], "trial": 5, "trial_type": "math-distractor", "trial_index": 197, "time_elapsed": 973956, "internal_node_id": "0.0-152.0"}}, {"uniqueid": "MTK0826:3137ONMDKHC0IYBRV7NM2C9P37SEGS", "current_trial": 198, "dateTime": 1512761255138, "trialdata": {"rt": -1, "stimulus": "<p id=\"stim\">10</p>", "key_press": -1, "trial_type": "single-stim", "trial_index": 198, "time_elapsed": 976962, "internal_node_id": "0.0-153.0-0.0"}}, {"uniqueid": "MTK0826:3137ONMDKHC0IYBRV7NM2C9P37SEGS", "current_trial": 199, "dateTime": 1512761256141, "trialdata": {"rt": -1, "stimulus": "<p id=\"stim\">9</p>", "key_press": -1, "trial_type": "single-stim", "trial_index": 199, "time_elapsed": 977965, "internal_node_id": "0.0-153.0-1.0"}}, {"uniqueid": "MTK0826:3137ONMDKHC0IYBRV7NM2C9P37SEGS", "current_trial": 200, "dateTime": 1512761257144, "trialdata": {"rt": -1, "stimulus": "<p id=\"stim\">8</p>", "key_press": -1, "trial_type": "single-stim", "trial_index": 200, "time_elapsed": 978968, "internal_node_id": "0.0-153.0-2.0"}}, {"uniqueid": "MTK0826:3137ONMDKHC0IYBRV7NM2C9P37SEGS", "current_trial": 201, "dateTime": 1512761258271, "trialdata": {"rt": -1, "stimulus": "<p id=\"stim\">7</p>", "key_press": -1, "trial_type": "single-stim", "trial_index": 201, "time_elapsed": 980095, "internal_node_id": "0.0-153.0-3.0"}}, {"uniqueid": "MTK0826:3137ONMDKHC0IYBRV7NM2C9P37SEGS", "current_trial": 202, "dateTime": 1512761259276, "trialdata": {"rt": -1, "stimulus": "<p id=\"stim\">6</p>", "key_press": -1, "trial_type": "single-stim", "trial_index": 202, "time_elapsed": 981100, "internal_node_id": "0.0-153.0-4.0"}}, {"uniqueid": "MTK0826:3137ONMDKHC0IYBRV7NM2C9P37SEGS", "current_trial": 203, "dateTime": 1512761260278, "trialdata": {"rt": -1, "stimulus": "<p id=\"stim\">5</p>", "key_press": -1, "trial_type": "single-stim", "trial_index": 203, "time_elapsed": 982102, "internal_node_id": "0.0-153.0-5.0"}}, {"uniqueid": "MTK0826:3137ONMDKHC0IYBRV7NM2C9P37SEGS", "current_trial": 204, "dateTime": 1512761261282, "trialdata": {"rt": -1, "stimulus": "<p id=\"stim\">4</p>", "key_press": -1, "trial_type": "single-stim", "trial_index": 204, "time_elapsed": 983105, "internal_node_id": "0.0-153.0-6.0"}}, {"uniqueid": "MTK0826:3137ONMDKHC0IYBRV7NM2C9P37SEGS", "current_trial": 205, "dateTime": 1512761262284, "trialdata": {"rt": -1, "stimulus": "<p id=\"stim\">3</p>", "key_press": -1, "trial_type": "single-stim", "trial_index": 205, "time_elapsed": 984107, "internal_node_id": "0.0-153.0-7.0"}}, {"uniqueid": "MTK0826:3137ONMDKHC0IYBRV7NM2C9P37SEGS", "current_trial": 206, "dateTime": 1512761263287, "trialdata": {"rt": -1, "stimulus": "<p id=\"stim\">2</p>", "key_press": -1, "trial_type": "single-stim", "trial_index": 206, "time_elapsed": 985111, "internal_node_id": "0.0-153.0-8.0"}}, {"uniqueid": "MTK0826:3137ONMDKHC0IYBRV7NM2C9P37SEGS", "current_trial": 207, "dateTime": 1512761264288, "trialdata": {"rt": -1, "stimulus": "<p id=\"stim\">1</p>", "key_press": -1, "trial_type": "single-stim", "trial_index": 207, "time_elapsed": 986112, "internal_node_id": "0.0-153.0-9.0"}}, {"uniqueid": "MTK0826:3137ONMDKHC0IYBRV7NM2C9P37SEGS", "current_trial": 208, "dateTime": 1512761265790, "trialdata": {"rt": -1, "stimulus": "<p id=\"stim\">+</p>", "key_press": -1, "type": "FIXATION", "trial_type": "single-stim", "trial_index": 208, "time_elapsed": 987614, "internal_node_id": "0.0-154.0-0.0"}}, {"uniqueid": "MTK0826:3137ONMDKHC0IYBRV7NM2C9P37SEGS", "current_trial": 209, "dateTime": 1512761267510, "trialdata": {"rt": -1000, "stimulus": "/static/audio/wordpool/OMELET.wav", "key_press": -1, "type": "PRES_AUD", "word": "omelet", "wordID": 975, "conditions": [24, 800, "a", 12000], "trial": 5, "serialpos": 0, "trial_type": "single-audio", "trial_index": 209, "time_elapsed": 989334, "internal_node_id": "0.0-155.0"}}, {"uniqueid": "MTK0826:3137ONMDKHC0IYBRV7NM2C9P37SEGS", "current_trial": 210, "dateTime": 1512761269183, "trialdata": {"rt": -1000, "stimulus": "/static/audio/wordpool/DENIM.wav", "key_press": -1, "type": "PRES_AUD", "word": "denim", "wordID": 445, "conditions": [24, 800, "a", 12000], "trial": 5, "serialpos": 1, "trial_type": "single-audio", "trial_index": 210, "time_elapsed": 991007, "internal_node_id": "0.0-156.0"}}, {"uniqueid": "MTK0826:3137ONMDKHC0IYBRV7NM2C9P37SEGS", "current_trial": 211, "dateTime": 1512761270957, "trialdata": {"rt": -1000, "stimulus": "/static/audio/wordpool/FLESH.wav", "key_press": -1, "type": "PRES_AUD", "word": "flesh", "wordID": 578, "conditions": [24, 800, "a", 12000], "trial": 5, "serialpos": 2, "trial_type": "single-audio", "trial_index": 211, "time_elapsed": 992781, "internal_node_id": "0.0-157.0"}}, {"uniqueid": "MTK0826:3137ONMDKHC0IYBRV7NM2C9P37SEGS", "current_trial": 212, "dateTime": 1512761272911, "trialdata": {"rt": -1000, "stimulus": "/static/audio/wordpool/KNIFE.wav", "key_press": -1, "type": "PRES_AUD", "word": "knife", "wordID": 784, "conditions": [24, 800, "a", 12000], "trial": 5, "serialpos": 3, "trial_type": "single-audio", "trial_index": 212, "time_elapsed": 994735, "internal_node_id": "0.0-158.0"}}, {"uniqueid": "MTK0826:3137ONMDKHC0IYBRV7NM2C9P37SEGS", "current_trial": 213, "dateTime": 1512761274786, "trialdata": {"rt": -1000, "stimulus": "/static/audio/wordpool/DORM.wav", "key_press": -1, "type": "PRES_AUD", "word": "dorm", "wordID": 487, "conditions": [24, 800, "a", 12000], "trial": 5, "serialpos": 4, "trial_type": "single-audio", "trial_index": 213, "time_elapsed": 996610, "internal_node_id": "0.0-159.0"}}, {"uniqueid": "MTK0826:3137ONMDKHC0IYBRV7NM2C9P37SEGS", "current_trial": 214, "dateTime": 1512761276470, "trialdata": {"rt": -1000, "stimulus": "/static/audio/wordpool/STUDENT.wav", "key_press": -1, "type": "PRES_AUD", "word": "student", "wordID": 1394, "conditions": [24, 800, "a", 12000], "trial": 5, "serialpos": 5, "trial_type": "single-audio", "trial_index": 214, "time_elapsed": 998294, "internal_node_id": "0.0-160.0"}}, {"uniqueid": "MTK0826:3137ONMDKHC0IYBRV7NM2C9P37SEGS", "current_trial": 215, "dateTime": 1512761278099, "trialdata": {"rt": -1000, "stimulus": "/static/audio/wordpool/SKIRT.wav", "key_press": -1, "type": "PRES_AUD", "word": "skirt", "wordID": 1318, "conditions": [24, 800, "a", 12000], "trial": 5, "serialpos": 6, "trial_type": "single-audio", "trial_index": 215, "time_elapsed": 999922, "internal_node_id": "0.0-161.0"}}, {"uniqueid": "MTK0826:3137ONMDKHC0IYBRV7NM2C9P37SEGS", "current_trial": 216, "dateTime": 1512761279730, "trialdata": {"rt": -1000, "stimulus": "/static/audio/wordpool/NURSE.wav", "key_press": -1, "type": "PRES_AUD", "word": "nurse", "wordID": 962, "conditions": [24, 800, "a", 12000], "trial": 5, "serialpos": 7, "trial_type": "single-audio", "trial_index": 216, "time_elapsed": 1001554, "internal_node_id": "0.0-162.0"}}, {"uniqueid": "MTK0826:3137ONMDKHC0IYBRV7NM2C9P37SEGS", "current_trial": 217, "dateTime": 1512761281463, "trialdata": {"rt": -1000, "stimulus": "/static/audio/wordpool/QUEEN.wav", "key_press": -1, "type": "PRES_AUD", "word": "queen", "wordID": 1148, "conditions": [24, 800, "a", 12000], "trial": 5, "serialpos": 8, "trial_type": "single-audio", "trial_index": 217, "time_elapsed": 1003287, "internal_node_id": "0.0-163.0"}}, {"uniqueid": "MTK0826:3137ONMDKHC0IYBRV7NM2C9P37SEGS", "current_trial": 218, "dateTime": 1512761283268, "trialdata": {"rt": -1000, "stimulus": "/static/audio/wordpool/CHAUFFEUR.wav", "key_press": -1, "type": "PRES_AUD", "word": "chauffeur", "wordID": 282, "conditions": [24, 800, "a", 12000], "trial": 5, "serialpos": 9, "trial_type": "single-audio", "trial_index": 218, "time_elapsed": 1005092, "internal_node_id": "0.0-164.0"}}, {"uniqueid": "MTK0826:3137ONMDKHC0IYBRV7NM2C9P37SEGS", "current_trial": 219, "dateTime": 1512761285181, "trialdata": {"rt": -1000, "stimulus": "/static/audio/wordpool/DRESS.wav", "key_press": -1, "type": "PRES_AUD", "word": "dress", "wordID": 494, "conditions": [24, 800, "a", 12000], "trial": 5, "serialpos": 10, "trial_type": "single-audio", "trial_index": 219, "time_elapsed": 1007005, "internal_node_id": "0.0-165.0"}}, {"uniqueid": "MTK0826:3137ONMDKHC0IYBRV7NM2C9P37SEGS", "current_trial": 220, "dateTime": 1512761287169, "trialdata": {"rt": -1000, "stimulus": "/static/audio/wordpool/LAVA.wav", "key_press": -1, "type": "PRES_AUD", "word": "lava", "wordID": 803, "conditions": [24, 800, "a", 12000], "trial": 5, "serialpos": 11, "trial_type": "single-audio", "trial_index": 220, "time_elapsed": 1008992, "internal_node_id": "0.0-166.0"}}, {"uniqueid": "MTK0826:3137ONMDKHC0IYBRV7NM2C9P37SEGS", "current_trial": 221, "dateTime": 1512761289103, "trialdata": {"rt": -1000, "stimulus": "/static/audio/wordpool/MAPLE.wav", "key_press": -1, "type": "PRES_AUD", "word": "maple", "wordID": 865, "conditions": [24, 800, "a", 12000], "trial": 5, "serialpos": 12, "trial_type": "single-audio", "trial_index": 221, "time_elapsed": 1010927, "internal_node_id": "0.0-167.0"}}, {"uniqueid": "MTK0826:3137ONMDKHC0IYBRV7NM2C9P37SEGS", "current_trial": 222, "dateTime": 1512761290972, "trialdata": {"rt": -1000, "stimulus": "/static/audio/wordpool/JURY.wav", "key_press": -1, "type": "PRES_AUD", "word": "jury", "wordID": 765, "conditions": [24, 800, "a", 12000], "trial": 5, "serialpos": 13, "trial_type": "single-audio", "trial_index": 222, "time_elapsed": 1012796, "internal_node_id": "0.0-168.0"}}, {"uniqueid": "MTK0826:3137ONMDKHC0IYBRV7NM2C9P37SEGS", "current_trial": 223, "dateTime": 1512761292916, "trialdata": {"rt": -1000, "stimulus": "/static/audio/wordpool/MUFFIN.wav", "key_press": -1, "type": "PRES_AUD", "word": "muffin", "wordID": 928, "conditions": [24, 800, "a", 12000], "trial": 5, "serialpos": 14, "trial_type": "single-audio", "trial_index": 223, "time_elapsed": 1014739, "internal_node_id": "0.0-169.0"}}, {"uniqueid": "MTK0826:3137ONMDKHC0IYBRV7NM2C9P37SEGS", "current_trial": 224, "dateTime": 1512761294617, "trialdata": {"rt": -1000, "stimulus": "/static/audio/wordpool/MAMMAL.wav", "key_press": -1, "type": "PRES_AUD", "word": "mammal", "wordID": 860, "conditions": [24, 800, "a", 12000], "trial": 5, "serialpos": 15, "trial_type": "single-audio", "trial_index": 224, "time_elapsed": 1016441, "internal_node_id": "0.0-170.0"}}, {"uniqueid": "MTK0826:3137ONMDKHC0IYBRV7NM2C9P37SEGS", "current_trial": 225, "dateTime": 1512761296273, "trialdata": {"rt": -1000, "stimulus": "/static/audio/wordpool/FRECKLE.wav", "key_press": -1, "type": "PRES_AUD", "word": "freckle", "wordID": 601, "conditions": [24, 800, "a", 12000], "trial": 5, "serialpos": 16, "trial_type": "single-audio", "trial_index": 225, "time_elapsed": 1018097, "internal_node_id": "0.0-171.0"}}, {"uniqueid": "MTK0826:3137ONMDKHC0IYBRV7NM2C9P37SEGS", "current_trial": 226, "dateTime": 1512761297878, "trialdata": {"rt": -1000, "stimulus": "/static/audio/wordpool/BLADE.wav", "key_press": -1, "type": "PRES_AUD", "word": "blade", "wordID": 133, "conditions": [24, 800, "a", 12000], "trial": 5, "serialpos": 17, "trial_type": "single-audio", "trial_index": 226, "time_elapsed": 1019702, "internal_node_id": "0.0-172.0"}}, {"uniqueid": "MTK0826:3137ONMDKHC0IYBRV7NM2C9P37SEGS", "current_trial": 227, "dateTime": 1512761299768, "trialdata": {"rt": -1000, "stimulus": "/static/audio/wordpool/COMET.wav", "key_press": -1, "type": "PRES_AUD", "word": "comet", "wordID": 352, "conditions": [24, 800, "a", 12000], "trial": 5, "serialpos": 18, "trial_type": "single-audio", "trial_index": 227, "time_elapsed": 1021592, "internal_node_id": "0.0-173.0"}}, {"uniqueid": "MTK0826:3137ONMDKHC0IYBRV7NM2C9P37SEGS", "current_trial": 228, "dateTime": 1512761301700, "trialdata": {"rt": -1000, "stimulus": "/static/audio/wordpool/MESSAGE.wav", "key_press": -1, "type": "PRES_AUD", "word": "message", "wordID": 887, "conditions": [24, 800, "a", 12000], "trial": 5, "serialpos": 19, "trial_type": "single-audio", "trial_index": 228, "time_elapsed": 1023524, "internal_node_id": "0.0-174.0"}}, {"uniqueid": "MTK0826:3137ONMDKHC0IYBRV7NM2C9P37SEGS", "current_trial": 229, "dateTime": 1512761303534, "trialdata": {"rt": -1000, "stimulus": "/static/audio/wordpool/JUDGE.wav", "key_press": -1, "type": "PRES_AUD", "word": "judge", "wordID": 760, "conditions": [24, 800, "a", 12000], "trial": 5, "serialpos": 20, "trial_type": "single-audio", "trial_index": 229, "time_elapsed": 1025358, "internal_node_id": "0.0-175.0"}}, {"uniqueid": "MTK0826:3137ONMDKHC0IYBRV7NM2C9P37SEGS", "current_trial": 230, "dateTime": 1512761305218, "trialdata": {"rt": -1000, "stimulus": "/static/audio/wordpool/CITRUS.wav", "key_press": -1, "type": "PRES_AUD", "word": "citrus", "wordID": 312, "conditions": [24, 800, "a", 12000], "trial": 5, "serialpos": 21, "trial_type": "single-audio", "trial_index": 230, "time_elapsed": 1027042, "internal_node_id": "0.0-176.0"}}, {"uniqueid": "MTK0826:3137ONMDKHC0IYBRV7NM2C9P37SEGS", "current_trial": 231, "dateTime": 1512761306939, "trialdata": {"rt": -1000, "stimulus": "/static/audio/wordpool/PEACH.wav", "key_press": -1, "type": "PRES_AUD", "word": "peach", "wordID": 1030, "conditions": [24, 800, "a", 12000], "trial": 5, "serialpos": 22, "trial_type": "single-audio", "trial_index": 231, "time_elapsed": 1028763, "internal_node_id": "0.0-177.0"}}, {"uniqueid": "MTK0826:3137ONMDKHC0IYBRV7NM2C9P37SEGS", "current_trial": 232, "dateTime": 1512761308609, "trialdata": {"rt": -1000, "stimulus": "/static/audio/wordpool/TUNNEL.wav", "key_press": -1, "type": "PRES_AUD", "word": "tunnel", "wordID": 1518, "conditions": [24, 800, "a", 12000], "trial": 5, "serialpos": 23, "trial_type": "single-audio", "trial_index": 232, "time_elapsed": 1030433, "internal_node_id": "0.0-178.0"}}, {"uniqueid": "MTK0826:3137ONMDKHC0IYBRV7NM2C9P37SEGS", "current_trial": 233, "dateTime": 1512761309908, "trialdata": {"rt": -1, "stimulus": "", "key_press": -1, "type": "PRE_RECALL_DELAY", "trial_type": "single-stim", "trial_index": 233, "time_elapsed": 1031732, "internal_node_id": "0.0-179.0-0.0"}}, {"uniqueid": "MTK0826:3137ONMDKHC0IYBRV7NM2C9P37SEGS", "current_trial": 234, "dateTime": 1512761310410, "trialdata": {"rt": -1000, "stimulus": "/static/audio/400Hz.wav", "key_press": -1, "type": "PRE_RECALL_ALERT", "trial_type": "single-audio", "trial_index": 234, "time_elapsed": 1032234, "internal_node_id": "0.0-180.0"}}, {"uniqueid": "MTK0826:3137ONMDKHC0IYBRV7NM2C9P37SEGS", "current_trial": 235, "dateTime": 1512761370415, "trialdata": {"rt": [6031, 6720, 12087, 15030, 18855, 22759, 24862, 26495, 27047, 30455, 30991, 37231, 46964, 52362], "recwords": ["peach", "", "tunnel", "jury", "knife", "skirt", "jury", "dress", "", "lava", "", "muffin", "judge", "peach"], "type": "FREE_RECALL", "conditions": [24, 800, "a", 12000], "trial": 5, "trial_type": "free-recall", "trial_index": 235, "time_elapsed": 1092236, "internal_node_id": "0.0-181.0-0.0"}}, {"uniqueid": "MTK0826:3137ONMDKHC0IYBRV7NM2C9P37SEGS", "current_trial": 236, "dateTime": 1512761373341, "trialdata": {"rt": 923, "key_press": 32, "type": "INSTRUCTIONS", "trial_type": "text", "trial_index": 236, "time_elapsed": 1095164, "internal_node_id": "0.0-182.0"}}, {"uniqueid": "MTK0826:3137ONMDKHC0IYBRV7NM2C9P37SEGS", "current_trial": 237, "dateTime": 1512761387428, "trialdata": {"rt": [6593], "responses": ["21"], "num1": [7, 7], "num2": [5, 7], "num3": [9, 9], "type": "DISTRACTOR", "conditions": [12, 1600, "v", 12000], "trial": 6, "trial_type": "math-distractor", "trial_index": 237, "time_elapsed": 1109251, "internal_node_id": "0.0-183.0"}}, {"uniqueid": "MTK0826:3137ONMDKHC0IYBRV7NM2C9P37SEGS", "current_trial": 238, "dateTime": 1512761390432, "trialdata": {"rt": -1, "stimulus": "<p id=\"stim\">10</p>", "key_press": -1, "trial_type": "single-stim", "trial_index": 238, "time_elapsed": 1112255, "internal_node_id": "0.0-184.0-0.0"}}, {"uniqueid": "MTK0826:3137ONMDKHC0IYBRV7NM2C9P37SEGS", "current_trial": 239, "dateTime": 1512761391834, "trialdata": {"rt": -1, "stimulus": "<p id=\"stim\">9</p>", "key_press": -1, "trial_type": "single-stim", "trial_index": 239, "time_elapsed": 1113658, "internal_node_id": "0.0-184.0-1.0"}}, {"uniqueid": "MTK0826:3137ONMDKHC0IYBRV7NM2C9P37SEGS", "current_trial": 240, "dateTime": 1512761392836, "trialdata": {"rt": -1, "stimulus": "<p id=\"stim\">8</p>", "key_press": -1, "trial_type": "single-stim", "trial_index": 240, "time_elapsed": 1114659, "internal_node_id": "0.0-184.0-2.0"}}, {"uniqueid": "MTK0826:3137ONMDKHC0IYBRV7NM2C9P37SEGS", "current_trial": 241, "dateTime": 1512761393837, "trialdata": {"rt": -1, "stimulus": "<p id=\"stim\">7</p>", "key_press": -1, "trial_type": "single-stim", "trial_index": 241, "time_elapsed": 1115661, "internal_node_id": "0.0-184.0-3.0"}}, {"uniqueid": "MTK0826:3137ONMDKHC0IYBRV7NM2C9P37SEGS", "current_trial": 242, "dateTime": 1512761394840, "trialdata": {"rt": -1, "stimulus": "<p id=\"stim\">6</p>", "key_press": -1, "trial_type": "single-stim", "trial_index": 242, "time_elapsed": 1116663, "internal_node_id": "0.0-184.0-4.0"}}, {"uniqueid": "MTK0826:3137ONMDKHC0IYBRV7NM2C9P37SEGS", "current_trial": 243, "dateTime": 1512761395841, "trialdata": {"rt": -1, "stimulus": "<p id=\"stim\">5</p>", "key_press": -1, "trial_type": "single-stim", "trial_index": 243, "time_elapsed": 1117665, "internal_node_id": "0.0-184.0-5.0"}}, {"uniqueid": "MTK0826:3137ONMDKHC0IYBRV7NM2C9P37SEGS", "current_trial": 244, "dateTime": 1512761396844, "trialdata": {"rt": -1, "stimulus": "<p id=\"stim\">4</p>", "key_press": -1, "trial_type": "single-stim", "trial_index": 244, "time_elapsed": 1118668, "internal_node_id": "0.0-184.0-6.0"}}, {"uniqueid": "MTK0826:3137ONMDKHC0IYBRV7NM2C9P37SEGS", "current_trial": 245, "dateTime": 1512761397849, "trialdata": {"rt": -1, "stimulus": "<p id=\"stim\">3</p>", "key_press": -1, "trial_type": "single-stim", "trial_index": 245, "time_elapsed": 1119673, "internal_node_id": "0.0-184.0-7.0"}}, {"uniqueid": "MTK0826:3137ONMDKHC0IYBRV7NM2C9P37SEGS", "current_trial": 246, "dateTime": 1512761398850, "trialdata": {"rt": -1, "stimulus": "<p id=\"stim\">2</p>", "key_press": -1, "trial_type": "single-stim", "trial_index": 246, "time_elapsed": 1120674, "internal_node_id": "0.0-184.0-8.0"}}, {"uniqueid": "MTK0826:3137ONMDKHC0IYBRV7NM2C9P37SEGS", "current_trial": 247, "dateTime": 1512761399854, "trialdata": {"rt": -1, "stimulus": "<p id=\"stim\">1</p>", "key_press": -1, "trial_type": "single-stim", "trial_index": 247, "time_elapsed": 1121677, "internal_node_id": "0.0-184.0-9.0"}}, {"uniqueid": "MTK0826:3137ONMDKHC0IYBRV7NM2C9P37SEGS", "current_trial": 248, "dateTime": 1512761401358, "trialdata": {"rt": -1, "stimulus": "<p id=\"stim\">+</p>", "key_press": -1, "type": "FIXATION", "trial_type": "single-stim", "trial_index": 248, "time_elapsed": 1123181, "internal_node_id": "0.0-185.0-0.0"}}, {"uniqueid": "MTK0826:3137ONMDKHC0IYBRV7NM2C9P37SEGS", "current_trial": 249, "dateTime": 1512761402959, "trialdata": {"rt": -1, "stimulus": "<p id=\"stim\">FLUTE</p>", "key_press": -1, "type": "PRES_VIS", "word": "flute", "wordID": 584, "conditions": [12, 1600, "v", 12000], "trial": 6, "serialpos": 0, "trial_type": "single-stim", "trial_index": 249, "time_elapsed": 1124783, "internal_node_id": "0.0-186.0"}}, {"uniqueid": "MTK0826:3137ONMDKHC0IYBRV7NM2C9P37SEGS", "current_trial": 250, "dateTime": 1512761405426, "trialdata": {"rt": -1, "stimulus": "<p id=\"stim\">CHEMIST</p>", "key_press": -1, "type": "PRES_VIS", "word": "chemist", "wordID": 291, "conditions": [12, 1600, "v", 12000], "trial": 6, "serialpos": 1, "trial_type": "single-stim", "trial_index": 250, "time_elapsed": 1127250, "internal_node_id": "0.0-187.0"}}, {"uniqueid": "MTK0826:3137ONMDKHC0IYBRV7NM2C9P37SEGS", "current_trial": 251, "dateTime": 1512761408049, "trialdata": {"rt": -1, "stimulus": "<p id=\"stim\">FEMALE</p>", "key_press": -1, "type": "PRES_VIS", "word": "female", "wordID": 558, "conditions": [12, 1600, "v", 12000], "trial": 6, "serialpos": 2, "trial_type": "single-stim", "trial_index": 251, "time_elapsed": 1129873, "internal_node_id": "0.0-188.0"}}, {"uniqueid": "MTK0826:3137ONMDKHC0IYBRV7NM2C9P37SEGS", "current_trial": 252, "dateTime": 1512761410673, "trialdata": {"rt": -1, "stimulus": "<p id=\"stim\">RABBIT</p>", "key_press": -1, "type": "PRES_VIS", "word": "rabbit", "wordID": 1151, "conditions": [12, 1600, "v", 12000], "trial": 6, "serialpos": 3, "trial_type": "single-stim", "trial_index": 252, "time_elapsed": 1132497, "internal_node_id": "0.0-189.0"}}, {"uniqueid": "MTK0826:3137ONMDKHC0IYBRV7NM2C9P37SEGS", "current_trial": 253, "dateTime": 1512761413198, "trialdata": {"rt": -1, "stimulus": "<p id=\"stim\">SNAIL</p>", "key_press": -1, "type": "PRES_VIS", "word": "snail", "wordID": 1331, "conditions": [12, 1600, "v", 12000], "trial": 6, "serialpos": 4, "trial_type": "single-stim", "trial_index": 253, "time_elapsed": 1135022, "internal_node_id": "0.0-190.0"}}, {"uniqueid": "MTK0826:3137ONMDKHC0IYBRV7NM2C9P37SEGS", "current_trial": 254, "dateTime": 1512761415653, "trialdata": {"rt": -1, "stimulus": "<p id=\"stim\">CAPTIVE</p>", "key_press": -1, "type": "PRES_VIS", "word": "captive", "wordID": 239, "conditions": [12, 1600, "v", 12000], "trial": 6, "serialpos": 5, "trial_type": "single-stim", "trial_index": 254, "time_elapsed": 1137477, "internal_node_id": "0.0-191.0"}}, {"uniqueid": "MTK0826:3137ONMDKHC0IYBRV7NM2C9P37SEGS", "current_trial": 255, "dateTime": 1512761418127, "trialdata": {"rt": -1, "stimulus": "<p id=\"stim\">MONSTER</p>", "key_press": -1, "type": "PRES_VIS", "word": "monster", "wordID": 911, "conditions": [12, 1600, "v", 12000], "trial": 6, "serialpos": 6, "trial_type": "single-stim", "trial_index": 255, "time_elapsed": 1139951, "internal_node_id": "0.0-192.0"}}, {"uniqueid": "MTK0826:3137ONMDKHC0IYBRV7NM2C9P37SEGS", "current_trial": 256, "dateTime": 1512761420740, "trialdata": {"rt": -1, "stimulus": "<p id=\"stim\">CREATURE</p>", "key_press": -1, "type": "PRES_VIS", "word": "creature", "wordID": 402, "conditions": [12, 1600, "v", 12000], "trial": 6, "serialpos": 7, "trial_type": "single-stim", "trial_index": 256, "time_elapsed": 1142564, "internal_node_id": "0.0-193.0"}}, {"uniqueid": "MTK0826:3137ONMDKHC0IYBRV7NM2C9P37SEGS", "current_trial": 257, "dateTime": 1512761423240, "trialdata": {"rt": -1, "stimulus": "<p id=\"stim\">RATTLE</p>", "key_press": -1, "type": "PRES_VIS", "word": "rattle", "wordID": 1169, "conditions": [12, 1600, "v", 12000], "trial": 6, "serialpos": 8, "trial_type": "single-stim", "trial_index": 257, "time_elapsed": 1145064, "internal_node_id": "0.0-194.0"}}, {"uniqueid": "MTK0826:3137ONMDKHC0IYBRV7NM2C9P37SEGS", "current_trial": 258, "dateTime": 1512761425783, "trialdata": {"rt": -1, "stimulus": "<p id=\"stim\">ASIA</p>", "key_press": -1, "type": "PRES_VIS", "word": "asia", "wordID": 45, "conditions": [12, 1600, "v", 12000], "trial": 6, "serialpos": 9, "trial_type": "single-stim", "trial_index": 258, "time_elapsed": 1147607, "internal_node_id": "0.0-195.0"}}, {"uniqueid": "MTK0826:3137ONMDKHC0IYBRV7NM2C9P37SEGS", "current_trial": 259, "dateTime": 1512761428404, "trialdata": {"rt": -1, "stimulus": "<p id=\"stim\">ARMY</p>", "key_press": -1, "type": "PRES_VIS", "word": "army", "wordID": 38, "conditions": [12, 1600, "v", 12000], "trial": 6, "serialpos": 10, "trial_type": "single-stim", "trial_index": 259, "time_elapsed": 1150227, "internal_node_id": "0.0-196.0"}}, {"uniqueid": "MTK0826:3137ONMDKHC0IYBRV7NM2C9P37SEGS", "current_trial": 260, "dateTime": 1512761430945, "trialdata": {"rt": -1, "stimulus": "<p id=\"stim\">BEAVER</p>", "key_press": -1, "type": "PRES_VIS", "word": "beaver", "wordID": 108, "conditions": [12, 1600, "v", 12000], "trial": 6, "serialpos": 11, "trial_type": "single-stim", "trial_index": 260, "time_elapsed": 1152769, "internal_node_id": "0.0-197.0"}}, {"uniqueid": "MTK0826:3137ONMDKHC0IYBRV7NM2C9P37SEGS", "current_trial": 261, "dateTime": 1512761433140, "trialdata": {"rt": -1, "stimulus": "", "key_press": -1, "type": "PRE_RECALL_DELAY", "trial_type": "single-stim", "trial_index": 261, "time_elapsed": 1154963, "internal_node_id": "0.0-198.0-0.0"}}, {"uniqueid": "MTK0826:3137ONMDKHC0IYBRV7NM2C9P37SEGS", "current_trial": 262, "dateTime": 1512761433641, "trialdata": {"rt": -1000, "stimulus": "/static/audio/400Hz.wav", "key_press": -1, "type": "PRE_RECALL_ALERT", "trial_type": "single-audio", "trial_index": 262, "time_elapsed": 1155465, "internal_node_id": "0.0-199.0"}}, {"uniqueid": "MTK0826:3137ONMDKHC0IYBRV7NM2C9P37SEGS", "current_trial": 263, "dateTime": 1512761493648, "trialdata": {"rt": [9319, 13263, 17550, 17815, 21367, 25982, 29350, 31158, 38639, 41438, 53974], "recwords": ["female", "snail", "creature", "", "monsture", "asia", "army", "beaver", "snail", "rapture", "rabbit"], "type": "FREE_RECALL", "conditions": [12, 1600, "v", 12000], "trial": 6, "trial_type": "free-recall", "trial_index": 263, "time_elapsed": 1215469, "internal_node_id": "0.0-200.0-0.0"}}, {"uniqueid": "MTK0826:3137ONMDKHC0IYBRV7NM2C9P37SEGS", "current_trial": 264, "dateTime": 1512761496866, "trialdata": {"rt": 886, "key_press": 13, "type": "INSTRUCTIONS", "trial_type": "text", "trial_index": 264, "time_elapsed": 1218690, "internal_node_id": "0.0-201.0"}}, {"uniqueid": "MTK0826:3137ONMDKHC0IYBRV7NM2C9P37SEGS", "current_trial": 265, "dateTime": 1512761511029, "trialdata": {"rt": [7039], "responses": ["19"], "num1": [6, 8], "num2": [7, 6], "num3": [6, 7], "type": "DISTRACTOR", "conditions": [12, 1600, "a", 12000], "trial": 7, "trial_type": "math-distractor", "trial_index": 265, "time_elapsed": 1232853, "internal_node_id": "0.0-202.0"}}, {"uniqueid": "MTK0826:3137ONMDKHC0IYBRV7NM2C9P37SEGS", "current_trial": 266, "dateTime": 1512761514034, "trialdata": {"rt": -1, "stimulus": "<p id=\"stim\">10</p>", "key_press": -1, "trial_type": "single-stim", "trial_index": 266, "time_elapsed": 1235857, "internal_node_id": "0.0-203.0-0.0"}}, {"uniqueid": "MTK0826:3137ONMDKHC0IYBRV7NM2C9P37SEGS", "current_trial": 267, "dateTime": 1512761515035, "trialdata": {"rt": -1, "stimulus": "<p id=\"stim\">9</p>", "key_press": -1, "trial_type": "single-stim", "trial_index": 267, "time_elapsed": 1236859, "internal_node_id": "0.0-203.0-1.0"}}, {"uniqueid": "MTK0826:3137ONMDKHC0IYBRV7NM2C9P37SEGS", "current_trial": 268, "dateTime": 1512761516038, "trialdata": {"rt": -1, "stimulus": "<p id=\"stim\">8</p>", "key_press": -1, "trial_type": "single-stim", "trial_index": 268, "time_elapsed": 1237861, "internal_node_id": "0.0-203.0-2.0"}}, {"uniqueid": "MTK0826:3137ONMDKHC0IYBRV7NM2C9P37SEGS", "current_trial": 269, "dateTime": 1512761517040, "trialdata": {"rt": -1, "stimulus": "<p id=\"stim\">7</p>", "key_press": -1, "trial_type": "single-stim", "trial_index": 269, "time_elapsed": 1238864, "internal_node_id": "0.0-203.0-3.0"}}, {"uniqueid": "MTK0826:3137ONMDKHC0IYBRV7NM2C9P37SEGS", "current_trial": 270, "dateTime": 1512761518044, "trialdata": {"rt": -1, "stimulus": "<p id=\"stim\">6</p>", "key_press": -1, "trial_type": "single-stim", "trial_index": 270, "time_elapsed": 1239868, "internal_node_id": "0.0-203.0-4.0"}}, {"uniqueid": "MTK0826:3137ONMDKHC0IYBRV7NM2C9P37SEGS", "current_trial": 271, "dateTime": 1512761519048, "trialdata"