{"condition": 0, "counterbalance": 375, "assignmentId": "3KKG4CDWKJ53BMRQSV5Z19BBJ1G49N", "workerId": "MTK0343", "hitId": "3SBNLSTU6UCTUPU2Z2VPSHBQYWZDZW", "currenttrial": 627, "bonus": 0, "data": [{"uniqueid": "MTK0343:3KKG4CDWKJ53BMRQSV5Z19BBJ1G49N", "current_trial": 0, "dateTime": 1510727353744, "trialdata": {"rt": 26550, "key_press": 32, "type": "INSTRUCTIONS", "trial_type": "text", "trial_index": 0, "time_elapsed": 26556, "internal_node_id": "0.0-0.0"}}, {"uniqueid": "MTK0343:3KKG4CDWKJ53BMRQSV5Z19BBJ1G49N", "current_trial": 1, "dateTime": 1510727355237, "trialdata": {"rt": 1487, "key_press": 32, "type": "INSTRUCTIONS", "trial_type": "text", "trial_index": 1, "time_elapsed": 28053, "internal_node_id": "0.0-1.0"}}, {"uniqueid": "MTK0343:3KKG4CDWKJ53BMRQSV5Z19BBJ1G49N", "current_trial": 2, "dateTime": 1510727419091, "trialdata": {"rt": [63825], "responses": ["ocean"], "type": "AUDIO_TEST", "trial_type": "audio-test", "trial_index": 2, "time_elapsed": 91907, "internal_node_id": "0.0-2.0"}}, {"uniqueid": "MTK0343:3KKG4CDWKJ53BMRQSV5Z19BBJ1G49N", "current_trial": 3, "dateTime": 1510727427963, "trialdata": {"rt": [8864], "responses": ["crystal"], "type": "AUDIO_TEST", "trial_type": "audio-test", "trial_index": 3, "time_elapsed": 100779, "internal_node_id": "0.0-3.0"}}, {"uniqueid": "MTK0343:3KKG4CDWKJ53BMRQSV5Z19BBJ1G49N", "current_trial": 4, "dateTime": 1510727438109, "trialdata": {"rt": [10140], "responses": ["spice"], "type": "AUDIO_TEST", "trial_type": "audio-test", "trial_index": 4, "time_elapsed": 110925, "internal_node_id": "0.0-4.0"}}, {"uniqueid": "MTK0343:3KKG4CDWKJ53BMRQSV5Z19BBJ1G49N", "current_trial": 5, "dateTime": 1510727456914, "trialdata": {"rt": 18044, "responses": "{\"Q0\":\"12am\",\"Q1\":\"8am\",\"Q2\":\"5\"}", "type": "SLEEP_SURVEY", "trial_type": "survey-text", "trial_index": 5, "time_elapsed": 129730, "internal_node_id": "0.0-5.0"}}, {"uniqueid": "MTK0343:3KKG4CDWKJ53BMRQSV5Z19BBJ1G49N", "current_trial": 6, "dateTime": 1510727458672, "trialdata": {"rt": 753, "key_press": 9, "type": "INSTRUCTIONS", "trial_type": "text", "trial_index": 6, "time_elapsed": 131487, "internal_node_id": "0.0-6.0"}}, {"uniqueid": "MTK0343:3KKG4CDWKJ53BMRQSV5Z19BBJ1G49N", "current_trial": 7, "dateTime": 1510727463360, "trialdata": {"rt": 4185, "key_press": 13, "type": "INSTRUCTIONS", "trial_type": "text", "trial_index": 7, "time_elapsed": 136176, "internal_node_id": "0.0-7.0"}}, {"uniqueid": "MTK0343:3KKG4CDWKJ53BMRQSV5Z19BBJ1G49N", "current_trial": 8, "dateTime": 1510727464502, "trialdata": {"rt": 639, "key_press": 13, "type": "INSTRUCTIONS", "trial_type": "text", "trial_index": 8, "time_elapsed": 137318, "internal_node_id": "0.0-8.0"}}, {"uniqueid": "MTK0343:3KKG4CDWKJ53BMRQSV5Z19BBJ1G49N", "current_trial": 9, "dateTime": 1510727483533, "trialdata": {"rt": [4980, 9065, 12419, 17821], "responses": ["11", "9", "10", "14"], "num1": [5, 2, 1, 1, 4], "num2": [4, 5, 6, 6, 6], "num3": [2, 2, 3, 7, 1], "type": "DISTRACTOR", "conditions": [18, 1200, "v", 18000], "trial": 0, "trial_type": "math-distractor", "trial_index": 9, "time_elapsed": 156349, "internal_node_id": "0.0-9.0"}}, {"uniqueid": "MTK0343:3KKG4CDWKJ53BMRQSV5Z19BBJ1G49N", "current_trial": 10, "dateTime": 1510727486541, "trialdata": {"rt": -1, "stimulus": "<p id=\"stim\">10</p>", "key_press": -1, "trial_type": "single-stim", "trial_index": 10, "time_elapsed": 159357, "internal_node_id": "0.0-10.0-0.0"}}, {"uniqueid": "MTK0343:3KKG4CDWKJ53BMRQSV5Z19BBJ1G49N", "current_trial": 11, "dateTime": 1510727487546, "trialdata": {"rt": -1, "stimulus": "<p id=\"stim\">9</p>", "key_press": -1, "trial_type": "single-stim", "trial_index": 11, "time_elapsed": 160362, "internal_node_id": "0.0-10.0-1.0"}}, {"uniqueid": "MTK0343:3KKG4CDWKJ53BMRQSV5Z19BBJ1G49N", "current_trial": 12, "dateTime": 1510727488549, "trialdata": {"rt": -1, "stimulus": "<p id=\"stim\">8</p>", "key_press": -1, "trial_type": "single-stim", "trial_index": 12, "time_elapsed": 161365, "internal_node_id": "0.0-10.0-2.0"}}, {"uniqueid": "MTK0343:3KKG4CDWKJ53BMRQSV5Z19BBJ1G49N", "current_trial": 13, "dateTime": 1510727489555, "trialdata": {"rt": -1, "stimulus": "<p id=\"stim\">7</p>", "key_press": -1, "trial_type": "single-stim", "trial_index": 13, "time_elapsed": 162370, "internal_node_id": "0.0-10.0-3.0"}}, {"uniqueid": "MTK0343:3KKG4CDWKJ53BMRQSV5Z19BBJ1G49N", "current_trial": 14, "dateTime": 1510727490558, "trialdata": {"rt": -1, "stimulus": "<p id=\"stim\">6</p>", "key_press": -1, "trial_type": "single-stim", "trial_index": 14, "time_elapsed": 163374, "internal_node_id": "0.0-10.0-4.0"}}, {"uniqueid": "MTK0343:3KKG4CDWKJ53BMRQSV5Z19BBJ1G49N", "current_trial": 15, "dateTime": 1510727491564, "trialdata": {"rt": -1, "stimulus": "<p id=\"stim\">5</p>", "key_press": -1, "trial_type": "single-stim", "trial_index": 15, "time_elapsed": 164380, "internal_node_id": "0.0-10.0-5.0"}}, {"uniqueid": "MTK0343:3KKG4CDWKJ53BMRQSV5Z19BBJ1G49N", "current_trial": 16, "dateTime": 1510727492567, "trialdata": {"rt": -1, "stimulus": "<p id=\"stim\">4</p>", "key_press": -1, "trial_type": "single-stim", "trial_index": 16, "time_elapsed": 165382, "internal_node_id": "0.0-10.0-6.0"}}, {"uniqueid": "MTK0343:3KKG4CDWKJ53BMRQSV5Z19BBJ1G49N", "current_trial": 17, "dateTime": 1510727493570, "trialdata": {"rt": -1, "stimulus": "<p id=\"stim\">3</p>", "key_press": -1, "trial_type": "single-stim", "trial_index": 17, "time_elapsed": 166386, "internal_node_id": "0.0-10.0-7.0"}}, {"uniqueid": "MTK0343:3KKG4CDWKJ53BMRQSV5Z19BBJ1G49N", "current_trial": 18, "dateTime": 1510727494572, "trialdata": {"rt": -1, "stimulus": "<p id=\"stim\">2</p>", "key_press": -1, "trial_type": "single-stim", "trial_index": 18, "time_elapsed": 167388, "internal_node_id": "0.0-10.0-8.0"}}, {"uniqueid": "MTK0343:3KKG4CDWKJ53BMRQSV5Z19BBJ1G49N", "current_trial": 19, "dateTime": 1510727495578, "trialdata": {"rt": -1, "stimulus": "<p id=\"stim\">1</p>", "key_press": -1, "trial_type": "single-stim", "trial_index": 19, "time_elapsed": 168394, "internal_node_id": "0.0-10.0-9.0"}}, {"uniqueid": "MTK0343:3KKG4CDWKJ53BMRQSV5Z19BBJ1G49N", "current_trial": 20, "dateTime": 1510727497081, "trialdata": {"rt": -1, "stimulus": "<p id=\"stim\">+</p>", "key_press": -1, "type": "FIXATION", "trial_type": "single-stim", "trial_index": 20, "time_elapsed": 169896, "internal_node_id": "0.0-11.0-0.0"}}, {"uniqueid": "MTK0343:3KKG4CDWKJ53BMRQSV5Z19BBJ1G49N", "current_trial": 21, "dateTime": 1510727498288, "trialdata": {"rt": -1, "stimulus": "<p id=\"stim\">UMPIRE</p>", "key_press": -1, "type": "PRES_VIS", "word": "umpire", "wordID": 1534, "conditions": [18, 1200, "v", 18000], "trial": 0, "serialpos": 0, "trial_type": "single-stim", "trial_index": 21, "time_elapsed": 171103, "internal_node_id": "0.0-12.0"}}, {"uniqueid": "MTK0343:3KKG4CDWKJ53BMRQSV5Z19BBJ1G49N", "current_trial": 22, "dateTime": 1510727500528, "trialdata": {"rt": -1, "stimulus": "<p id=\"stim\">WIFE</p>", "key_press": -1, "type": "PRES_VIS", "word": "wife", "wordID": 1608, "conditions": [18, 1200, "v", 18000], "trial": 0, "serialpos": 1, "trial_type": "single-stim", "trial_index": 22, "time_elapsed": 173343, "internal_node_id": "0.0-13.0"}}, {"uniqueid": "MTK0343:3KKG4CDWKJ53BMRQSV5Z19BBJ1G49N", "current_trial": 23, "dateTime": 1510727502628, "trialdata": {"rt": -1, "stimulus": "<p id=\"stim\">LASER</p>", "key_press": -1, "type": "PRES_VIS", "word": "laser", "wordID": 800, "conditions": [18, 1200, "v", 18000], "trial": 0, "serialpos": 2, "trial_type": "single-stim", "trial_index": 23, "time_elapsed": 175443, "internal_node_id": "0.0-14.0"}}, {"uniqueid": "MTK0343:3KKG4CDWKJ53BMRQSV5Z19BBJ1G49N", "current_trial": 24, "dateTime": 1510727504791, "trialdata": {"rt": -1, "stimulus": "<p id=\"stim\">LAPEL</p>", "key_press": -1, "type": "PRES_VIS", "word": "lapel", "wordID": 799, "conditions": [18, 1200, "v", 18000], "trial": 0, "serialpos": 3, "trial_type": "single-stim", "trial_index": 24, "time_elapsed": 177607, "internal_node_id": "0.0-15.0"}}, {"uniqueid": "MTK0343:3KKG4CDWKJ53BMRQSV5Z19BBJ1G49N", "current_trial": 25, "dateTime": 1510727506951, "trialdata": {"rt": -1, "stimulus": "<p id=\"stim\">DENIM</p>", "key_press": -1, "type": "PRES_VIS", "word": "denim", "wordID": 445, "conditions": [18, 1200, "v", 18000], "trial": 0, "serialpos": 4, "trial_type": "single-stim", "trial_index": 25, "time_elapsed": 179766, "internal_node_id": "0.0-16.0"}}, {"uniqueid": "MTK0343:3KKG4CDWKJ53BMRQSV5Z19BBJ1G49N", "current_trial": 26, "dateTime": 1510727509304, "trialdata": {"rt": -1, "stimulus": "<p id=\"stim\">PLAID</p>", "key_press": -1, "type": "PRES_VIS", "word": "plaid", "wordID": 1079, "conditions": [18, 1200, "v", 18000], "trial": 0, "serialpos": 5, "trial_type": "single-stim", "trial_index": 26, "time_elapsed": 182119, "internal_node_id": "0.0-17.0"}}, {"uniqueid": "MTK0343:3KKG4CDWKJ53BMRQSV5Z19BBJ1G49N", "current_trial": 27, "dateTime": 1510727511352, "trialdata": {"rt": -1, "stimulus": "<p id=\"stim\">OZONE</p>", "key_press": -1, "type": "PRES_VIS", "word": "ozone", "wordID": 995, "conditions": [18, 1200, "v", 18000], "trial": 0, "serialpos": 6, "trial_type": "single-stim", "trial_index": 27, "time_elapsed": 184167, "internal_node_id": "0.0-18.0"}}, {"uniqueid": "MTK0343:3KKG4CDWKJ53BMRQSV5Z19BBJ1G49N", "current_trial": 28, "dateTime": 1510727513482, "trialdata": {"rt": -1, "stimulus": "<p id=\"stim\">DRESSER</p>", "key_press": -1, "type": "PRES_VIS", "word": "dresser", "wordID": 495, "conditions": [18, 1200, "v", 18000], "trial": 0, "serialpos": 7, "trial_type": "single-stim", "trial_index": 28, "time_elapsed": 186298, "internal_node_id": "0.0-19.0"}}, {"uniqueid": "MTK0343:3KKG4CDWKJ53BMRQSV5Z19BBJ1G49N", "current_trial": 29, "dateTime": 1510727515715, "trialdata": {"rt": -1, "stimulus": "<p id=\"stim\">STAR</p>", "key_press": -1, "type": "PRES_VIS", "word": "star", "wordID": 1372, "conditions": [18, 1200, "v", 18000], "trial": 0, "serialpos": 8, "trial_type": "single-stim", "trial_index": 29, "time_elapsed": 188531, "internal_node_id": "0.0-20.0"}}, {"uniqueid": "MTK0343:3KKG4CDWKJ53BMRQSV5Z19BBJ1G49N", "current_trial": 30, "dateTime": 1510727517933, "trialdata": {"rt": -1, "stimulus": "<p id=\"stim\">SILK</p>", "key_press": -1, "type": "PRES_VIS", "word": "silk", "wordID": 1306, "conditions": [18, 1200, "v", 18000], "trial": 0, "serialpos": 9, "trial_type": "single-stim", "trial_index": 30, "time_elapsed": 190748, "internal_node_id": "0.0-21.0"}}, {"uniqueid": "MTK0343:3KKG4CDWKJ53BMRQSV5Z19BBJ1G49N", "current_trial": 31, "dateTime": 1510727520087, "trialdata": {"rt": -1, "stimulus": "<p id=\"stim\">FLEET</p>", "key_press": -1, "type": "PRES_VIS", "word": "fleet", "wordID": 577, "conditions": [18, 1200, "v", 18000], "trial": 0, "serialpos": 10, "trial_type": "single-stim", "trial_index": 31, "time_elapsed": 192902, "internal_node_id": "0.0-22.0"}}, {"uniqueid": "MTK0343:3KKG4CDWKJ53BMRQSV5Z19BBJ1G49N", "current_trial": 32, "dateTime": 1510727522479, "trialdata": {"rt": -1, "stimulus": "<p id=\"stim\">MISTER</p>", "key_press": -1, "type": "PRES_VIS", "word": "mister", "wordID": 900, "conditions": [18, 1200, "v", 18000], "trial": 0, "serialpos": 11, "trial_type": "single-stim", "trial_index": 32, "time_elapsed": 195295, "internal_node_id": "0.0-23.0"}}, {"uniqueid": "MTK0343:3KKG4CDWKJ53BMRQSV5Z19BBJ1G49N", "current_trial": 33, "dateTime": 1510727524706, "trialdata": {"rt": -1, "stimulus": "<p id=\"stim\">BLUEPRINT</p>", "key_press": -1, "type": "PRES_VIS", "word": "blueprint", "wordID": 141, "conditions": [18, 1200, "v", 18000], "trial": 0, "serialpos": 12, "trial_type": "single-stim", "trial_index": 33, "time_elapsed": 197521, "internal_node_id": "0.0-24.0"}}, {"uniqueid": "MTK0343:3KKG4CDWKJ53BMRQSV5Z19BBJ1G49N", "current_trial": 34, "dateTime": 1510727526859, "trialdata": {"rt": -1, "stimulus": "<p id=\"stim\">RELISH</p>", "key_press": -1, "type": "PRES_VIS", "word": "relish", "wordID": 1182, "conditions": [18, 1200, "v", 18000], "trial": 0, "serialpos": 13, "trial_type": "single-stim", "trial_index": 34, "time_elapsed": 199675, "internal_node_id": "0.0-25.0"}}, {"uniqueid": "MTK0343:3KKG4CDWKJ53BMRQSV5Z19BBJ1G49N", "current_trial": 35, "dateTime": 1510727529146, "trialdata": {"rt": -1, "stimulus": "<p id=\"stim\">TRIBE</p>", "key_press": -1, "type": "PRES_VIS", "word": "tribe", "wordID": 1504, "conditions": [18, 1200, "v", 18000], "trial": 0, "serialpos": 14, "trial_type": "single-stim", "trial_index": 35, "time_elapsed": 201961, "internal_node_id": "0.0-26.0"}}, {"uniqueid": "MTK0343:3KKG4CDWKJ53BMRQSV5Z19BBJ1G49N", "current_trial": 36, "dateTime": 1510727531487, "trialdata": {"rt": -1, "stimulus": "<p id=\"stim\">JUGGLER</p>", "key_press": -1, "type": "PRES_VIS", "word": "juggler", "wordID": 762, "conditions": [18, 1200, "v", 18000], "trial": 0, "serialpos": 15, "trial_type": "single-stim", "trial_index": 36, "time_elapsed": 204303, "internal_node_id": "0.0-27.0"}}, {"uniqueid": "MTK0343:3KKG4CDWKJ53BMRQSV5Z19BBJ1G49N", "current_trial": 37, "dateTime": 1510727533805, "trialdata": {"rt": -1, "stimulus": "<p id=\"stim\">WORLD</p>", "key_press": -1, "type": "PRES_VIS", "word": "world", "wordID": 1621, "conditions": [18, 1200, "v", 18000], "trial": 0, "serialpos": 16, "trial_type": "single-stim", "trial_index": 37, "time_elapsed": 206621, "internal_node_id": "0.0-28.0"}}, {"uniqueid": "MTK0343:3KKG4CDWKJ53BMRQSV5Z19BBJ1G49N", "current_trial": 38, "dateTime": 1510727536189, "trialdata": {"rt": -1, "stimulus": "<p id=\"stim\">BUGGY</p>", "key_press": -1, "type": "PRES_VIS", "word": "buggy", "wordID": 187, "conditions": [18, 1200, "v", 18000], "trial": 0, "serialpos": 17, "trial_type": "single-stim", "trial_index": 38, "time_elapsed": 209005, "internal_node_id": "0.0-29.0"}}, {"uniqueid": "MTK0343:3KKG4CDWKJ53BMRQSV5Z19BBJ1G49N", "current_trial": 39, "dateTime": 1510727538490, "trialdata": {"rt": -1, "stimulus": "", "key_press": -1, "type": "PRE_RECALL_DELAY", "trial_type": "single-stim", "trial_index": 39, "time_elapsed": 211306, "internal_node_id": "0.0-30.0-0.0"}}, {"uniqueid": "MTK0343:3KKG4CDWKJ53BMRQSV5Z19BBJ1G49N", "current_trial": 40, "dateTime": 1510727538997, "trialdata": {"rt": -1000, "stimulus": "/static/audio/400Hz.wav", "key_press": -1, "type": "PRE_RECALL_ALERT", "trial_type": "single-audio", "trial_index": 40, "time_elapsed": 211813, "internal_node_id": "0.0-31.0"}}, {"uniqueid": "MTK0343:3KKG4CDWKJ53BMRQSV5Z19BBJ1G49N", "current_trial": 41, "dateTime": 1510727599018, "trialdata": {"rt": [57976], "recwords": ["umpire"], "type": "FREE_RECALL", "conditions": [18, 1200, "v", 18000], "trial": 0, "trial_type": "free-recall", "trial_index": 41, "time_elapsed": 271819, "internal_node_id": "0.0-32.0-0.0"}}, {"uniqueid": "MTK0343:3KKG4CDWKJ53BMRQSV5Z19BBJ1G49N", "current_trial": 42, "dateTime": 1510727602546, "trialdata": {"rt": 1527, "key_press": 13, "type": "INSTRUCTIONS", "trial_type": "text", "trial_index": 42, "time_elapsed": 275362, "internal_node_id": "0.0-33.0"}}, {"uniqueid": "MTK0343:3KKG4CDWKJ53BMRQSV5Z19BBJ1G49N", "current_trial": 43, "dateTime": 1510727622559, "trialdata": {"rt": [5029, 7261, 9565, 13846], "responses": ["16", "13", "12", "8"], "num1": [6, 5, 7, 2, 2], "num2": [1, 5, 2, 1, 5], "num3": [9, 3, 3, 5, 8], "type": "DISTRACTOR", "conditions": [18, 1200, "a", 18000], "trial": 1, "trial_type": "math-distractor", "trial_index": 43, "time_elapsed": 295375, "internal_node_id": "0.0-34.0"}}, {"uniqueid": "MTK0343:3KKG4CDWKJ53BMRQSV5Z19BBJ1G49N", "current_trial": 44, "dateTime": 1510727625565, "trialdata": {"rt": -1, "stimulus": "<p id=\"stim\">10</p>", "key_press": -1, "trial_type": "single-stim", "trial_index": 44, "time_elapsed": 298380, "internal_node_id": "0.0-35.0-0.0"}}, {"uniqueid": "MTK0343:3KKG4CDWKJ53BMRQSV5Z19BBJ1G49N", "current_trial": 45, "dateTime": 1510727626572, "trialdata": {"rt": -1, "stimulus": "<p id=\"stim\">9</p>", "key_press": -1, "trial_type": "single-stim", "trial_index": 45, "time_elapsed": 299387, "internal_node_id": "0.0-35.0-1.0"}}, {"uniqueid": "MTK0343:3KKG4CDWKJ53BMRQSV5Z19BBJ1G49N", "current_trial": 46, "dateTime": 1510727627577, "trialdata": {"rt": -1, "stimulus": "<p id=\"stim\">8</p>", "key_press": -1, "trial_type": "single-stim", "trial_index": 46, "time_elapsed": 300393, "internal_node_id": "0.0-35.0-2.0"}}, {"uniqueid": "MTK0343:3KKG4CDWKJ53BMRQSV5Z19BBJ1G49N", "current_trial": 47, "dateTime": 1510727628580, "trialdata": {"rt": -1, "stimulus": "<p id=\"stim\">7</p>", "key_press": -1, "trial_type": "single-stim", "trial_index": 47, "time_elapsed": 301396, "internal_node_id": "0.0-35.0-3.0"}}, {"uniqueid": "MTK0343:3KKG4CDWKJ53BMRQSV5Z19BBJ1G49N", "current_trial": 48, "dateTime": 1510727629585, "trialdata": {"rt": -1, "stimulus": "<p id=\"stim\">6</p>", "key_press": -1, "trial_type": "single-stim", "trial_index": 48, "time_elapsed": 302400, "internal_node_id": "0.0-35.0-4.0"}}, {"uniqueid": "MTK0343:3KKG4CDWKJ53BMRQSV5Z19BBJ1G49N", "current_trial": 49, "dateTime": 1510727630590, "trialdata": {"rt": -1, "stimulus": "<p id=\"stim\">5</p>", "key_press": -1, "trial_type": "single-stim", "trial_index": 49, "time_elapsed": 303405, "internal_node_id": "0.0-35.0-5.0"}}, {"uniqueid": "MTK0343:3KKG4CDWKJ53BMRQSV5Z19BBJ1G49N", "current_trial": 50, "dateTime": 1510727631596, "trialdata": {"rt": -1, "stimulus": "<p id=\"stim\">4</p>", "key_press": -1, "trial_type": "single-stim", "trial_index": 50, "time_elapsed": 304412, "internal_node_id": "0.0-35.0-6.0"}}, {"uniqueid": "MTK0343:3KKG4CDWKJ53BMRQSV5Z19BBJ1G49N", "current_trial": 51, "dateTime": 1510727632601, "trialdata": {"rt": -1, "stimulus": "<p id=\"stim\">3</p>", "key_press": -1, "trial_type": "single-stim", "trial_index": 51, "time_elapsed": 305416, "internal_node_id": "0.0-35.0-7.0"}}, {"uniqueid": "MTK0343:3KKG4CDWKJ53BMRQSV5Z19BBJ1G49N", "current_trial": 52, "dateTime": 1510727633606, "trialdata": {"rt": -1, "stimulus": "<p id=\"stim\">2</p>", "key_press": -1, "trial_type": "single-stim", "trial_index": 52, "time_elapsed": 306421, "internal_node_id": "0.0-35.0-8.0"}}, {"uniqueid": "MTK0343:3KKG4CDWKJ53BMRQSV5Z19BBJ1G49N", "current_trial": 53, "dateTime": 1510727634612, "trialdata": {"rt": -1, "stimulus": "<p id=\"stim\">1</p>", "key_press": -1, "trial_type": "single-stim", "trial_index": 53, "time_elapsed": 307428, "internal_node_id": "0.0-35.0-9.0"}}, {"uniqueid": "MTK0343:3KKG4CDWKJ53BMRQSV5Z19BBJ1G49N", "current_trial": 54, "dateTime": 1510727636118, "trialdata": {"rt": -1, "stimulus": "<p id=\"stim\">+</p>", "key_press": -1, "type": "FIXATION", "trial_type": "single-stim", "trial_index": 54, "time_elapsed": 308934, "internal_node_id": "0.0-36.0-0.0"}}, {"uniqueid": "MTK0343:3KKG4CDWKJ53BMRQSV5Z19BBJ1G49N", "current_trial": 55, "dateTime": 1510727638214, "trialdata": {"rt": -1000, "stimulus": "/static/audio/wordpool/GLOVE.wav", "key_press": -1, "type": "PRES_AUD", "word": "glove", "wordID": 641, "conditions": [18, 1200, "a", 18000], "trial": 1, "serialpos": 0, "trial_type": "single-audio", "trial_index": 55, "time_elapsed": 311030, "internal_node_id": "0.0-37.0"}}, {"uniqueid": "MTK0343:3KKG4CDWKJ53BMRQSV5Z19BBJ1G49N", "current_trial": 56, "dateTime": 1510727640593, "trialdata": {"rt": -1000, "stimulus": "/static/audio/wordpool/GUARD.wav", "key_press": -1, "type": "PRES_AUD", "word": "guard", "wordID": 666, "conditions": [18, 1200, "a", 18000], "trial": 1, "serialpos": 1, "trial_type": "single-audio", "trial_index": 56, "time_elapsed": 313408, "internal_node_id": "0.0-38.0"}}, {"uniqueid": "MTK0343:3KKG4CDWKJ53BMRQSV5Z19BBJ1G49N", "current_trial": 57, "dateTime": 1510727642683, "trialdata": {"rt": -1000, "stimulus": "/static/audio/wordpool/CATCHER.wav", "key_press": -1, "type": "PRES_AUD", "word": "catcher", "wordID": 257, "conditions": [18, 1200, "a", 18000], "trial": 1, "serialpos": 2, "trial_type": "single-audio", "trial_index": 57, "time_elapsed": 315499, "internal_node_id": "0.0-39.0"}}, {"uniqueid": "MTK0343:3KKG4CDWKJ53BMRQSV5Z19BBJ1G49N", "current_trial": 58, "dateTime": 1510727644747, "trialdata": {"rt": -1000, "stimulus": "/static/audio/wordpool/EYELASH.wav", "key_press": -1, "type": "PRES_AUD", "word": "eyelash", "wordID": 545, "conditions": [18, 1200, "a", 18000], "trial": 1, "serialpos": 3, "trial_type": "single-audio", "trial_index": 58, "time_elapsed": 317562, "internal_node_id": "0.0-40.0"}}, {"uniqueid": "MTK0343:3KKG4CDWKJ53BMRQSV5Z19BBJ1G49N", "current_trial": 59, "dateTime": 1510727647128, "trialdata": {"rt": -1000, "stimulus": "/static/audio/wordpool/TABLE.wav", "key_press": -1, "type": "PRES_AUD", "word": "table", "wordID": 1425, "conditions": [18, 1200, "a", 18000], "trial": 1, "serialpos": 4, "trial_type": "single-audio", "trial_index": 59, "time_elapsed": 319943, "internal_node_id": "0.0-41.0"}}, {"uniqueid": "MTK0343:3KKG4CDWKJ53BMRQSV5Z19BBJ1G49N", "current_trial": 60, "dateTime": 1510727649174, "trialdata": {"rt": -1000, "stimulus": "/static/audio/wordpool/HATCHET.wav", "key_press": -1, "type": "PRES_AUD", "word": "hatchet", "wordID": 690, "conditions": [18, 1200, "a", 18000], "trial": 1, "serialpos": 5, "trial_type": "single-audio", "trial_index": 60, "time_elapsed": 321989, "internal_node_id": "0.0-42.0"}}, {"uniqueid": "MTK0343:3KKG4CDWKJ53BMRQSV5Z19BBJ1G49N", "current_trial": 61, "dateTime": 1510727651179, "trialdata": {"rt": -1000, "stimulus": "/static/audio/wordpool/UNCLE.wav", "key_press": -1, "type": "PRES_AUD", "word": "uncle", "wordID": 1535, "conditions": [18, 1200, "a", 18000], "trial": 1, "serialpos": 6, "trial_type": "single-audio", "trial_index": 61, "time_elapsed": 323995, "internal_node_id": "0.0-43.0"}}, {"uniqueid": "MTK0343:3KKG4CDWKJ53BMRQSV5Z19BBJ1G49N", "current_trial": 62, "dateTime": 1510727653358, "trialdata": {"rt": -1000, "stimulus": "/static/audio/wordpool/MONSTER.wav", "key_press": -1, "type": "PRES_AUD", "word": "monster", "wordID": 911, "conditions": [18, 1200, "a", 18000], "trial": 1, "serialpos": 7, "trial_type": "single-audio", "trial_index": 62, "time_elapsed": 326173, "internal_node_id": "0.0-44.0"}}, {"uniqueid": "MTK0343:3KKG4CDWKJ53BMRQSV5Z19BBJ1G49N", "current_trial": 63, "dateTime": 1510727655518, "trialdata": {"rt": -1000, "stimulus": "/static/audio/wordpool/PIGMENT.wav", "key_press": -1, "type": "PRES_AUD", "word": "pigment", "wordID": 1065, "conditions": [18, 1200, "a", 18000], "trial": 1, "serialpos": 8, "trial_type": "single-audio", "trial_index": 63, "time_elapsed": 328333, "internal_node_id": "0.0-45.0"}}, {"uniqueid": "MTK0343:3KKG4CDWKJ53BMRQSV5Z19BBJ1G49N", "current_trial": 64, "dateTime": 1510727657653, "trialdata": {"rt": -1000, "stimulus": "/static/audio/wordpool/VALLEY.wav", "key_press": -1, "type": "PRES_AUD", "word": "valley", "wordID": 1544, "conditions": [18, 1200, "a", 18000], "trial": 1, "serialpos": 9, "trial_type": "single-audio", "trial_index": 64, "time_elapsed": 330468, "internal_node_id": "0.0-46.0"}}, {"uniqueid": "MTK0343:3KKG4CDWKJ53BMRQSV5Z19BBJ1G49N", "current_trial": 65, "dateTime": 1510727659910, "trialdata": {"rt": -1000, "stimulus": "/static/audio/wordpool/FLUTE.wav", "key_press": -1, "type": "PRES_AUD", "word": "flute", "wordID": 584, "conditions": [18, 1200, "a", 18000], "trial": 1, "serialpos": 10, "trial_type": "single-audio", "trial_index": 65, "time_elapsed": 332725, "internal_node_id": "0.0-47.0"}}, {"uniqueid": "MTK0343:3KKG4CDWKJ53BMRQSV5Z19BBJ1G49N", "current_trial": 66, "dateTime": 1510727662174, "trialdata": {"rt": -1000, "stimulus": "/static/audio/wordpool/CHEMIST.wav", "key_press": -1, "type": "PRES_AUD", "word": "chemist", "wordID": 291, "conditions": [18, 1200, "a", 18000], "trial": 1, "serialpos": 11, "trial_type": "single-audio", "trial_index": 66, "time_elapsed": 334989, "internal_node_id": "0.0-48.0"}}, {"uniqueid": "MTK0343:3KKG4CDWKJ53BMRQSV5Z19BBJ1G49N", "current_trial": 67, "dateTime": 1510727664494, "trialdata": {"rt": -1000, "stimulus": "/static/audio/wordpool/TUNNEL.wav", "key_press": -1, "type": "PRES_AUD", "word": "tunnel", "wordID": 1518, "conditions": [18, 1200, "a", 18000], "trial": 1, "serialpos": 12, "trial_type": "single-audio", "trial_index": 67, "time_elapsed": 337309, "internal_node_id": "0.0-49.0"}}, {"uniqueid": "MTK0343:3KKG4CDWKJ53BMRQSV5Z19BBJ1G49N", "current_trial": 68, "dateTime": 1510727666540, "trialdata": {"rt": -1000, "stimulus": "/static/audio/wordpool/KIDNEY.wav", "key_press": -1, "type": "PRES_AUD", "word": "kidney", "wordID": 775, "conditions": [18, 1200, "a", 18000], "trial": 1, "serialpos": 13, "trial_type": "single-audio", "trial_index": 68, "time_elapsed": 339350, "internal_node_id": "0.0-50.0"}}, {"uniqueid": "MTK0343:3KKG4CDWKJ53BMRQSV5Z19BBJ1G49N", "current_trial": 69, "dateTime": 1510727668800, "trialdata": {"rt": -1000, "stimulus": "/static/audio/wordpool/HEART.wav", "key_press": -1, "type": "PRES_AUD", "word": "heart", "wordID": 696, "conditions": [18, 1200, "a", 18000], "trial": 1, "serialpos": 14, "trial_type": "single-audio", "trial_index": 69, "time_elapsed": 341616, "internal_node_id": "0.0-51.0"}}, {"uniqueid": "MTK0343:3KKG4CDWKJ53BMRQSV5Z19BBJ1G49N", "current_trial": 70, "dateTime": 1510727671017, "trialdata": {"rt": -1000, "stimulus": "/static/audio/wordpool/STALLION.wav", "key_press": -1, "type": "PRES_AUD", "word": "stallion", "wordID": 1368, "conditions": [18, 1200, "a", 18000], "trial": 1, "serialpos": 15, "trial_type": "single-audio", "trial_index": 70, "time_elapsed": 343833, "internal_node_id": "0.0-52.0"}}, {"uniqueid": "MTK0343:3KKG4CDWKJ53BMRQSV5Z19BBJ1G49N", "current_trial": 71, "dateTime": 1510727673140, "trialdata": {"rt": -1000, "stimulus": "/static/audio/wordpool/DOUGHNUT.wav", "key_press": -1, "type": "PRES_AUD", "word": "doughnut", "wordID": 489, "conditions": [18, 1200, "a", 18000], "trial": 1, "serialpos": 16, "trial_type": "single-audio", "trial_index": 71, "time_elapsed": 345956, "internal_node_id": "0.0-53.0"}}, {"uniqueid": "MTK0343:3KKG4CDWKJ53BMRQSV5Z19BBJ1G49N", "current_trial": 72, "dateTime": 1510727675182, "trialdata": {"rt": -1000, "stimulus": "/static/audio/wordpool/ARMY.wav", "key_press": -1, "type": "PRES_AUD", "word": "army", "wordID": 38, "conditions": [18, 1200, "a", 18000], "trial": 1, "serialpos": 17, "trial_type": "single-audio", "trial_index": 72, "time_elapsed": 347998, "internal_node_id": "0.0-54.0"}}, {"uniqueid": "MTK0343:3KKG4CDWKJ53BMRQSV5Z19BBJ1G49N", "current_trial": 73, "dateTime": 1510727676459, "trialdata": {"rt": -1, "stimulus": "", "key_press": -1, "type": "PRE_RECALL_DELAY", "trial_type": "single-stim", "trial_index": 73, "time_elapsed": 349275, "internal_node_id": "0.0-55.0-0.0"}}, {"uniqueid": "MTK0343:3KKG4CDWKJ53BMRQSV5Z19BBJ1G49N", "current_trial": 74, "dateTime": 1510727676964, "trialdata": {"rt": -1000, "stimulus": "/static/audio/400Hz.wav", "key_press": -1, "type": "PRE_RECALL_ALERT", "trial_type": "single-audio", "trial_index": 74, "time_elapsed": 349780, "internal_node_id": "0.0-56.0"}}, {"uniqueid": "MTK0343:3KKG4CDWKJ53BMRQSV5Z19BBJ1G49N", "current_trial": 75, "dateTime": 1510727736979, "trialdata": {"rt": [3345, 7373, 14584, 20539, 30579], "recwords": ["heart", "valley", "donut", "eyelash", "hummus"], "type": "FREE_RECALL", "conditions": [18, 1200, "a", 18000], "trial": 1, "trial_type": "free-recall", "trial_index": 75, "time_elapsed": 409789, "internal_node_id": "0.0-57.0-0.0"}}, {"uniqueid": "MTK0343:3KKG4CDWKJ53BMRQSV5Z19BBJ1G49N", "current_trial": 76, "dateTime": 1510727741463, "trialdata": {"rt": 2476, "key_press": 13, "type": "INSTRUCTIONS", "trial_type": "text", "trial_index": 76, "time_elapsed": 414272, "internal_node_id": "0.0-58.0"}}, {"uniqueid": "MTK0343:3KKG4CDWKJ53BMRQSV5Z19BBJ1G49N", "current_trial": 77, "dateTime": 1510727754473, "trialdata": {"rt": [11137], "responses": ["13"], "num1": [6, 9], "num2": [5, 3], "num3": [2, 6], "type": "DISTRACTOR", "conditions": [24, 1600, "v", 12000], "trial": 2, "trial_type": "math-distractor", "trial_index": 77, "time_elapsed": 427288, "internal_node_id": "0.0-59.0"}}, {"uniqueid": "MTK0343:3KKG4CDWKJ53BMRQSV5Z19BBJ1G49N", "current_trial": 78, "dateTime": 1510727757481, "trialdata": {"rt": -1, "stimulus": "<p id=\"stim\">10</p>", "key_press": -1, "trial_type": "single-stim", "trial_index": 78, "time_elapsed": 430297, "internal_node_id": "0.0-60.0-0.0"}}, {"uniqueid": "MTK0343:3KKG4CDWKJ53BMRQSV5Z19BBJ1G49N", "current_trial": 79, "dateTime": 1510727758485, "trialdata": {"rt": -1, "stimulus": "<p id=\"stim\">9</p>", "key_press": -1, "trial_type": "single-stim", "trial_index": 79, "time_elapsed": 431301, "internal_node_id": "0.0-60.0-1.0"}}, {"uniqueid": "MTK0343:3KKG4CDWKJ53BMRQSV5Z19BBJ1G49N", "current_trial": 80, "dateTime": 1510727759490, "trialdata": {"rt": -1, "stimulus": "<p id=\"stim\">8</p>", "key_press": -1, "trial_type": "single-stim", "trial_index": 80, "time_elapsed": 432306, "internal_node_id": "0.0-60.0-2.0"}}, {"uniqueid": "MTK0343:3KKG4CDWKJ53BMRQSV5Z19BBJ1G49N", "current_trial": 81, "dateTime": 1510727760493, "trialdata": {"rt": -1, "stimulus": "<p id=\"stim\">7</p>", "key_press": -1, "trial_type": "single-stim", "trial_index": 81, "time_elapsed": 433309, "internal_node_id": "0.0-60.0-3.0"}}, {"uniqueid": "MTK0343:3KKG4CDWKJ53BMRQSV5Z19BBJ1G49N", "current_trial": 82, "dateTime": 1510727761496, "trialdata": {"rt": -1, "stimulus": "<p id=\"stim\">6</p>", "key_press": -1, "trial_type": "single-stim", "trial_index": 82, "time_elapsed": 434312, "internal_node_id": "0.0-60.0-4.0"}}, {"uniqueid": "MTK0343:3KKG4CDWKJ53BMRQSV5Z19BBJ1G49N", "current_trial": 83, "dateTime": 1510727762499, "trialdata": {"rt": -1, "stimulus": "<p id=\"stim\">5</p>", "key_press": -1, "trial_type": "single-stim", "trial_index": 83, "time_elapsed": 435315, "internal_node_id": "0.0-60.0-5.0"}}, {"uniqueid": "MTK0343:3KKG4CDWKJ53BMRQSV5Z19BBJ1G49N", "current_trial": 84, "dateTime": 1510727763505, "trialdata": {"rt": -1, "stimulus": "<p id=\"stim\">4</p>", "key_press": -1, "trial_type": "single-stim", "trial_index": 84, "time_elapsed": 436321, "internal_node_id": "0.0-60.0-6.0"}}, {"uniqueid": "MTK0343:3KKG4CDWKJ53BMRQSV5Z19BBJ1G49N", "current_trial": 85, "dateTime": 1510727764509, "trialdata": {"rt": -1, "stimulus": "<p id=\"stim\">3</p>", "key_press": -1, "trial_type": "single-stim", "trial_index": 85, "time_elapsed": 437324, "internal_node_id": "0.0-60.0-7.0"}}, {"uniqueid": "MTK0343:3KKG4CDWKJ53BMRQSV5Z19BBJ1G49N", "current_trial": 86, "dateTime": 1510727765513, "trialdata": {"rt": -1, "stimulus": "<p id=\"stim\">2</p>", "key_press": -1, "trial_type": "single-stim", "trial_index": 86, "time_elapsed": 438329, "internal_node_id": "0.0-60.0-8.0"}}, {"uniqueid": "MTK0343:3KKG4CDWKJ53BMRQSV5Z19BBJ1G49N", "current_trial": 87, "dateTime": 1510727766515, "trialdata": {"rt": -1, "stimulus": "<p id=\"stim\">1</p>", "key_press": -1, "trial_type": "single-stim", "trial_index": 87, "time_elapsed": 439331, "internal_node_id": "0.0-60.0-9.0"}}, {"uniqueid": "MTK0343:3KKG4CDWKJ53BMRQSV5Z19BBJ1G49N", "current_trial": 88, "dateTime": 1510727768018, "trialdata": {"rt": -1, "stimulus": "<p id=\"stim\">+</p>", "key_press": -1, "type": "FIXATION", "trial_type": "single-stim", "trial_index": 88, "time_elapsed": 440834, "internal_node_id": "0.0-61.0-0.0"}}, {"uniqueid": "MTK0343:3KKG4CDWKJ53BMRQSV5Z19BBJ1G49N", "current_trial": 89, "dateTime": 1510727769621, "trialdata": {"rt": -1, "stimulus": "<p id=\"stim\">TURTLE</p>", "key_press": -1, "type": "PRES_VIS", "word": "turtle", "wordID": 1521, "conditions": [24, 1600, "v", 12000], "trial": 2, "serialpos": 0, "trial_type": "single-stim", "trial_index": 89, "time_elapsed": 442437, "internal_node_id": "0.0-62.0"}}, {"uniqueid": "MTK0343:3KKG4CDWKJ53BMRQSV5Z19BBJ1G49N", "current_trial": 90, "dateTime": 1510727772233, "trialdata": {"rt": -1, "stimulus": "<p id=\"stim\">SHARK</p>", "key_press": -1, "type": "PRES_VIS", "word": "shark", "wordID": 1274, "conditions": [24, 1600, "v", 12000], "trial": 2, "serialpos": 1, "trial_type": "single-stim", "trial_index": 90, "time_elapsed": 445048, "internal_node_id": "0.0-63.0"}}, {"uniqueid": "MTK0343:3KKG4CDWKJ53BMRQSV5Z19BBJ1G49N", "current_trial": 91, "dateTime": 1510727774858, "trialdata": {"rt": -1, "stimulus": "<p id=\"stim\">PASSAGE</p>", "key_press": -1, "type": "PRES_VIS", "word": "passage", "wordID": 1018, "conditions": [24, 1600, "v", 12000], "trial": 2, "serialpos": 2, "trial_type": "single-stim", "trial_index": 91, "time_elapsed": 447674, "internal_node_id": "0.0-64.0"}}, {"uniqueid": "MTK0343:3KKG4CDWKJ53BMRQSV5Z19BBJ1G49N", "current_trial": 92, "dateTime": 1510727777453, "trialdata": {"rt": -1, "stimulus": "<p id=\"stim\">FIDDLE</p>", "key_press": -1, "type": "PRES_VIS", "word": "fiddle", "wordID": 560, "conditions": [24, 1600, "v", 12000], "trial": 2, "serialpos": 3, "trial_type": "single-stim", "trial_index": 92, "time_elapsed": 450269, "internal_node_id": "0.0-65.0"}}, {"uniqueid": "MTK0343:3KKG4CDWKJ53BMRQSV5Z19BBJ1G49N", "current_trial": 93, "dateTime": 1510727779966, "trialdata": {"rt": -1, "stimulus": "<p id=\"stim\">APRON</p>", "key_press": -1, "type": "PRES_VIS", "word": "apron", "wordID": 34, "conditions": [24, 1600, "v", 12000], "trial": 2, "serialpos": 4, "trial_type": "single-stim", "trial_index": 93, "time_elapsed": 452782, "internal_node_id": "0.0-66.0"}}, {"uniqueid": "MTK0343:3KKG4CDWKJ53BMRQSV5Z19BBJ1G49N", "current_trial": 94, "dateTime": 1510727782514, "trialdata": {"rt": -1, "stimulus": "<p id=\"stim\">JELLY</p>", "key_press": -1, "type": "PRES_VIS", "word": "jelly", "wordID": 754, "conditions": [24, 1600, "v", 12000], "trial": 2, "serialpos": 5, "trial_type": "single-stim", "trial_index": 94, "time_elapsed": 455329, "internal_node_id": "0.0-67.0"}}, {"uniqueid": "MTK0343:3KKG4CDWKJ53BMRQSV5Z19BBJ1G49N", "current_trial": 95, "dateTime": 1510727785191, "trialdata": {"rt": -1, "stimulus": "<p id=\"stim\">TUTU</p>", "key_press": -1, "type": "PRES_VIS", "word": "tutu", "wordID": 1523, "conditions": [24, 1600, "v", 12000], "trial": 2, "serialpos": 6, "trial_type": "single-stim", "trial_index": 95, "time_elapsed": 458007, "internal_node_id": "0.0-68.0"}}, {"uniqueid": "MTK0343:3KKG4CDWKJ53BMRQSV5Z19BBJ1G49N", "current_trial": 96, "dateTime": 1510727787977, "trialdata": {"rt": -1, "stimulus": "<p id=\"stim\">GRAVEL</p>", "key_press": -1, "type": "PRES_VIS", "word": "gravel", "wordID": 658, "conditions": [24, 1600, "v", 12000], "trial": 2, "serialpos": 7, "trial_type": "single-stim", "trial_index": 96, "time_elapsed": 460793, "internal_node_id": "0.0-69.0"}}, {"uniqueid": "MTK0343:3KKG4CDWKJ53BMRQSV5Z19BBJ1G49N", "current_trial": 97, "dateTime": 1510727790765, "trialdata": {"rt": -1, "stimulus": "<p id=\"stim\">SLIME</p>", "key_press": -1, "type": "PRES_VIS", "word": "slime", "wordID": 1326, "conditions": [24, 1600, "v", 12000], "trial": 2, "serialpos": 8, "trial_type": "single-stim", "trial_index": 97, "time_elapsed": 463581, "internal_node_id": "0.0-70.0"}}, {"uniqueid": "MTK0343:3KKG4CDWKJ53BMRQSV5Z19BBJ1G49N", "current_trial": 98, "dateTime": 1510727793566, "trialdata": {"rt": -1, "stimulus": "<p id=\"stim\">BLOUSE</p>", "key_press": -1, "type": "PRES_VIS", "word": "blouse", "wordID": 138, "conditions": [24, 1600, "v", 12000], "trial": 2, "serialpos": 9, "trial_type": "single-stim", "trial_index": 98, "time_elapsed": 466382, "internal_node_id": "0.0-71.0"}}, {"uniqueid": "MTK0343:3KKG4CDWKJ53BMRQSV5Z19BBJ1G49N", "current_trial": 99, "dateTime": 1510727796093, "trialdata": {"rt": -1, "stimulus": "<p id=\"stim\">SCARECROW</p>", "key_press": -1, "type": "PRES_VIS", "word": "scarecrow", "wordID": 1244, "conditions": [24, 1600, "v", 12000], "trial": 2, "serialpos": 10, "trial_type": "single-stim", "trial_index": 99, "time_elapsed": 468909, "internal_node_id": "0.0-72.0"}}, {"uniqueid": "MTK0343:3KKG4CDWKJ53BMRQSV5Z19BBJ1G49N", "current_trial": 100, "dateTime": 1510727798801, "trialdata": {"rt": -1, "stimulus": "<p id=\"stim\">JELLO</p>", "key_press": -1, "type": "PRES_VIS", "word": "jello", "wordID": 753, "conditions": [24, 1600, "v", 12000], "trial": 2, "serialpos": 11, "trial_type": "single-stim", "trial_index": 100, "time_elapsed": 471616, "internal_node_id": "0.0-73.0"}}, {"uniqueid": "MTK0343:3KKG4CDWKJ53BMRQSV5Z19BBJ1G49N", "current_trial": 101, "dateTime": 1510727801333, "trialdata": {"rt": -1, "stimulus": "<p id=\"stim\">TABLET</p>", "key_press": -1, "type": "PRES_VIS", "word": "tablet", "wordID": 1426, "conditions": [24, 1600, "v", 12000], "trial": 2, "serialpos": 12, "trial_type": "single-stim", "trial_index": 101, "time_elapsed": 474148, "internal_node_id": "0.0-74.0"}}, {"uniqueid": "MTK0343:3KKG4CDWKJ53BMRQSV5Z19BBJ1G49N", "current_trial": 102, "dateTime": 1510727804138, "trialdata": {"rt": -1, "stimulus": "<p id=\"stim\">SALMON</p>", "key_press": -1, "type": "PRES_VIS", "word": "salmon", "wordID": 1226, "conditions": [24, 1600, "v", 12000], "trial": 2, "serialpos": 13, "trial_type": "single-stim", "trial_index": 102, "time_elapsed": 476954, "internal_node_id": "0.0-75.0"}}, {"uniqueid": "MTK0343:3KKG4CDWKJ53BMRQSV5Z19BBJ1G49N", "current_trial": 103, "dateTime": 1510727806637, "trialdata": {"rt": -1, "stimulus": "<p id=\"stim\">SEAFOOD</p>", "key_press": -1, "type": "PRES_VIS", "word": "seafood", "wordID": 1259, "conditions": [24, 1600, "v", 12000], "trial": 2, "serialpos": 14, "trial_type": "single-stim", "trial_index": 103, "time_elapsed": 479453, "internal_node_id": "0.0-76.0"}}, {"uniqueid": "MTK0343:3KKG4CDWKJ53BMRQSV5Z19BBJ1G49N", "current_trial": 104, "dateTime": 1510727809230, "trialdata": {"rt": -1, "stimulus": "<p id=\"stim\">TURNIP</p>", "key_press": -1, "type": "PRES_VIS", "word": "turnip", "wordID": 1520, "conditions": [24, 1600, "v", 12000], "trial": 2, "serialpos": 15, "trial_type": "single-stim", "trial_index": 104, "time_elapsed": 482045, "internal_node_id": "0.0-77.0"}}, {"uniqueid": "MTK0343:3KKG4CDWKJ53BMRQSV5Z19BBJ1G49N", "current_trial": 105, "dateTime": 1510727811738, "trialdata": {"rt": -1, "stimulus": "<p id=\"stim\">LUGGAGE</p>", "key_press": -1, "type": "PRES_VIS", "word": "luggage", "wordID": 846, "conditions": [24, 1600, "v", 12000], "trial": 2, "serialpos": 16, "trial_type": "single-stim", "trial_index": 105, "time_elapsed": 484553, "internal_node_id": "0.0-78.0"}}, {"uniqueid": "MTK0343:3KKG4CDWKJ53BMRQSV5Z19BBJ1G49N", "current_trial": 106, "dateTime": 1510727814257, "trialdata": {"rt": -1, "stimulus": "<p id=\"stim\">WAGON</p>", "key_press": -1, "type": "PRES_VIS", "word": "wagon", "wordID": 1577, "conditions": [24, 1600, "v", 12000], "trial": 2, "serialpos": 17, "trial_type": "single-stim", "trial_index": 106, "time_elapsed": 487073, "internal_node_id": "0.0-79.0"}}, {"uniqueid": "MTK0343:3KKG4CDWKJ53BMRQSV5Z19BBJ1G49N", "current_trial": 107, "dateTime": 1510727816905, "trialdata": {"rt": -1, "stimulus": "<p id=\"stim\">FRAGRANCE</p>", "key_press": -1, "type": "PRES_VIS", "word": "fragrance", "wordID": 598, "conditions": [24, 1600, "v", 12000], "trial": 2, "serialpos": 18, "trial_type": "single-stim", "trial_index": 107, "time_elapsed": 489721, "internal_node_id": "0.0-80.0"}}, {"uniqueid": "MTK0343:3KKG4CDWKJ53BMRQSV5Z19BBJ1G49N", "current_trial": 108, "dateTime": 1510727819519, "trialdata": {"rt": -1, "stimulus": "<p id=\"stim\">GRAVE</p>", "key_press": -1, "type": "PRES_VIS", "word": "grave", "wordID": 657, "conditions": [24, 1600, "v", 12000], "trial": 2, "serialpos": 19, "trial_type": "single-stim", "trial_index": 108, "time_elapsed": 492335, "internal_node_id": "0.0-81.0"}}, {"uniqueid": "MTK0343:3KKG4CDWKJ53BMRQSV5Z19BBJ1G49N", "current_trial": 109, "dateTime": 1510727822094, "trialdata": {"rt": -1, "stimulus": "<p id=\"stim\">VELVET</p>", "key_press": -1, "type": "PRES_VIS", "word": "velvet", "wordID": 1554, "conditions": [24, 1600, "v", 12000], "trial": 2, "serialpos": 20, "trial_type": "single-stim", "trial_index": 109, "time_elapsed": 494910, "internal_node_id": "0.0-82.0"}}, {"uniqueid": "MTK0343:3KKG4CDWKJ53BMRQSV5Z19BBJ1G49N", "current_trial": 110, "dateTime": 1510727824807, "trialdata": {"rt": -1, "stimulus": "<p id=\"stim\">SURVEY</p>", "key_press": -1, "type": "PRES_VIS", "word": "survey", "wordID": 1413, "conditions": [24, 1600, "v", 12000], "trial": 2, "serialpos": 21, "trial_type": "single-stim", "trial_index": 110, "time_elapsed": 497623, "internal_node_id": "0.0-83.0"}}, {"uniqueid": "MTK0343:3KKG4CDWKJ53BMRQSV5Z19BBJ1G49N", "current_trial": 111, "dateTime": 1510727827430, "trialdata": {"rt": -1, "stimulus": "<p id=\"stim\">CABBAGE</p>", "key_press": -1, "type": "PRES_VIS", "word": "cabbage", "wordID": 209, "conditions": [24, 1600, "v", 12000], "trial": 2, "serialpos": 22, "trial_type": "single-stim", "trial_index": 111, "time_elapsed": 500245, "internal_node_id": "0.0-84.0"}}, {"uniqueid": "MTK0343:3KKG4CDWKJ53BMRQSV5Z19BBJ1G49N", "current_trial": 112, "dateTime": 1510727830141, "trialdata": {"rt": -1, "stimulus": "<p id=\"stim\">MUFFIN</p>", "key_press": -1, "type": "PRES_VIS", "word": "muffin", "wordID": 928, "conditions": [24, 1600, "v", 12000], "trial": 2, "serialpos": 23, "trial_type": "single-stim", "trial_index": 112, "time_elapsed": 502957, "internal_node_id": "0.0-85.0"}}, {"uniqueid": "MTK0343:3KKG4CDWKJ53BMRQSV5Z19BBJ1G49N", "current_trial": 113, "dateTime": 1510727832494, "trialdata": {"rt": -1, "stimulus": "", "key_press": -1, "type": "PRE_RECALL_DELAY", "trial_type": "single-stim", "trial_index": 113, "time_elapsed": 505310, "internal_node_id": "0.0-86.0-0.0"}}, {"uniqueid": "MTK0343:3KKG4CDWKJ53BMRQSV5Z19BBJ1G49N", "current_trial": 114, "dateTime": 1510727832999, "trialdata": {"rt": -1000, "stimulus": "/static/audio/400Hz.wav", "key_press": -1, "type": "PRE_RECALL_ALERT", "trial_type": "single-audio", "trial_index": 114, "time_elapsed": 505815, "internal_node_id": "0.0-87.0"}}, {"uniqueid": "MTK0343:3KKG4CDWKJ53BMRQSV5Z19BBJ1G49N", "current_trial": 115, "dateTime": 1510727893025, "trialdata": {"rt": [6304, 9475, 14607, 19173, 23655, 40041], "recwords": ["turtle", "shark", "salmon", "scarecrow", "ribbon", "seafood"], "type": "FREE_RECALL", "conditions": [24, 1600, "v", 12000], "trial": 2, "trial_type": "free-recall", "trial_index": 115, "time_elapsed": 565827, "internal_node_id": "0.0-88.0-0.0"}}, {"uniqueid": "MTK0343:3KKG4CDWKJ53BMRQSV5Z19BBJ1G49N", "current_trial": 116, "dateTime": 1510727898653, "trialdata": {"rt": 3623, "key_press": 32, "type": "INSTRUCTIONS", "trial_type": "text", "trial_index": 116, "time_elapsed": 571469, "internal_node_id": "0.0-89.0"}}, {"uniqueid": "MTK0343:3KKG4CDWKJ53BMRQSV5Z19BBJ1G49N", "current_trial": 117, "dateTime": 1510727912671, "trialdata": {"rt": [], "responses": [], "num1": [3], "num2": [9], "num3": [8], "type": "DISTRACTOR", "conditions": [12, 800, "a", 12000], "trial": 3, "trial_type": "math-distractor", "trial_index": 117, "time_elapsed": 585486, "internal_node_id": "0.0-90.0"}}, {"uniqueid": "MTK0343:3KKG4CDWKJ53BMRQSV5Z19BBJ1G49N", "current_trial": 118, "dateTime": 1510727915677, "trialdata": {"rt": -1, "stimulus": "<p id=\"stim\">10</p>", "key_press": -1, "trial_type": "single-stim", "trial_index": 118, "time_elapsed": 588493, "internal_node_id": "0.0-91.0-0.0"}}, {"uniqueid": "MTK0343:3KKG4CDWKJ53BMRQSV5Z19BBJ1G49N", "current_trial": 119, "dateTime": 1510727916682, "trialdata": {"rt": -1, "stimulus": "<p id=\"stim\">9</p>", "key_press": -1, "trial_type": "single-stim", "trial_index": 119, "time_elapsed": 589498, "internal_node_id": "0.0-91.0-1.0"}}, {"uniqueid": "MTK0343:3KKG4CDWKJ53BMRQSV5Z19BBJ1G49N", "current_trial": 120, "dateTime": 1510727917687, "trialdata": {"rt": -1, "stimulus": "<p id=\"stim\">8</p>", "key_press": -1, "trial_type": "single-stim", "trial_index": 120, "time_elapsed": 590503, "internal_node_id": "0.0-91.0-2.0"}}, {"uniqueid": "MTK0343:3KKG4CDWKJ53BMRQSV5Z19BBJ1G49N", "current_trial": 121, "dateTime": 1510727918692, "trialdata": {"rt": -1, "stimulus": "<p id=\"stim\">7</p>", "key_press": -1, "trial_type": "single-stim", "trial_index": 121, "time_elapsed": 591507, "internal_node_id": "0.0-91.0-3.0"}}, {"uniqueid": "MTK0343:3KKG4CDWKJ53BMRQSV5Z19BBJ1G49N", "current_trial": 122, "dateTime": 1510727919696, "trialdata": {"rt": -1, "stimulus": "<p id=\"stim\">6</p>", "key_press": -1, "trial_type": "single-stim", "trial_index": 122, "time_elapsed": 592512, "internal_node_id": "0.0-91.0-4.0"}}, {"uniqueid": "MTK0343:3KKG4CDWKJ53BMRQSV5Z19BBJ1G49N", "current_trial": 123, "dateTime": 1510727920702, "trialdata": {"rt": -1, "stimulus": "<p id=\"stim\">5</p>", "key_press": -1, "trial_type": "single-stim", "trial_index": 123, "time_elapsed": 593518, "internal_node_id": "0.0-91.0-5.0"}}, {"uniqueid": "MTK0343:3KKG4CDWKJ53BMRQSV5Z19BBJ1G49N", "current_trial": 124, "dateTime": 1510727921705, "trialdata": {"rt": -1, "stimulus": "<p id=\"stim\">4</p>", "key_press": -1, "trial_type": "single-stim", "trial_index": 124, "time_elapsed": 594521, "internal_node_id": "0.0-91.0-6.0"}}, {"uniqueid": "MTK0343:3KKG4CDWKJ53BMRQSV5Z19BBJ1G49N", "current_trial": 125, "dateTime": 1510727922706, "trialdata": {"rt": -1, "stimulus": "<p id=\"stim\">3</p>", "key_press": -1, "trial_type": "single-stim", "trial_index": 125, "time_elapsed": 595522, "internal_node_id": "0.0-91.0-7.0"}}, {"uniqueid": "MTK0343:3KKG4CDWKJ53BMRQSV5Z19BBJ1G49N", "current_trial": 126, "dateTime": 1510727923712, "trialdata": {"rt": -1, "stimulus": "<p id=\"stim\">2</p>", "key_press": -1, "trial_type": "single-stim", "trial_index": 126, "time_elapsed": 596527, "internal_node_id": "0.0-91.0-8.0"}}, {"uniqueid": "MTK0343:3KKG4CDWKJ53BMRQSV5Z19BBJ1G49N", "current_trial": 127, "dateTime": 1510727924716, "trialdata": {"rt": -1, "stimulus": "<p id=\"stim\">1</p>", "key_press": -1, "trial_type": "single-stim", "trial_index": 127, "time_elapsed": 597532, "internal_node_id": "0.0-91.0-9.0"}}, {"uniqueid": "MTK0343:3KKG4CDWKJ53BMRQSV5Z19BBJ1G49N", "current_trial": 128, "dateTime": 1510727926240, "trialdata": {"rt": -1, "stimulus": "<p id=\"stim\">+</p>", "key_press": -1, "type": "FIXATION", "trial_type": "single-stim", "trial_index": 128, "time_elapsed": 599055, "internal_node_id": "0.0-92.0-0.0"}}, {"uniqueid": "MTK0343:3KKG4CDWKJ53BMRQSV5Z19BBJ1G49N", "current_trial": 129, "dateTime": 1510727928043, "trialdata": {"rt": -1000, "stimulus": "/static/audio/wordpool/LADY.wav", "key_press": -1, "type": "PRES_AUD", "word": "lady", "wordID": 793, "conditions": [12, 800, "a", 12000], "trial": 3, "serialpos": 0, "trial_type": "single-audio", "trial_index": 129, "time_elapsed": 600858, "internal_node_id": "0.0-93.0"}}, {"uniqueid": "MTK0343:3KKG4CDWKJ53BMRQSV5Z19BBJ1G49N", "current_trial": 130, "dateTime": 1510727929977, "trialdata": {"rt": -1000, "stimulus": "/static/audio/wordpool/ORANGE.wav", "key_press": -1, "type": "PRES_AUD", "word": "orange", "wordID": 979, "conditions": [12, 800, "a", 12000], "trial": 3, "serialpos": 1, "trial_type": "single-audio", "trial_index": 130, "time_elapsed": 602793, "internal_node_id": "0.0-94.0"}}, {"uniqueid": "MTK0343:3KKG4CDWKJ53BMRQSV5Z19BBJ1G49N", "current_trial": 131, "dateTime": 1510727931693, "trialdata": {"rt": -1000, "stimulus": "/static/audio/wordpool/PARSLEY.wav", "key_press": -1, "type": "PRES_AUD", "word": "parsley", "wordID": 1015, "conditions": [12, 800, "a", 12000], "trial": 3, "serialpos": 2, "trial_type": "single-audio", "trial_index": 131, "time_elapsed": 604509, "internal_node_id": "0.0-95.0"}}, {"uniqueid": "MTK0343:3KKG4CDWKJ53BMRQSV5Z19BBJ1G49N", "current_trial": 132, "dateTime": 1510727933589, "trialdata": {"rt": -1000, "stimulus": "/static/audio/wordpool/TOMBSTONE.wav", "key_press": -1, "type": "PRES_AUD", "word": "tombstone", "wordID": 1477, "conditions": [12, 800, "a", 12000], "trial": 3, "serialpos": 3, "trial_type": "single-audio", "trial_index": 132, "time_elapsed": 606405, "internal_node_id": "0.0-96.0"}}, {"uniqueid": "MTK0343:3KKG4CDWKJ53BMRQSV5Z19BBJ1G49N", "current_trial": 133, "dateTime": 1510727935524, "trialdata": {"rt": -1000, "stimulus": "/static/audio/wordpool/SCISSORS.wav", "key_press": -1, "type": "PRES_AUD", "word": "scissors", "wordID": 1249, "conditions": [12, 800, "a", 12000], "trial": 3, "serialpos": 4, "trial_type": "single-audio", "trial_index": 133, "time_elapsed": 608340, "internal_node_id": "0.0-97.0"}}, {"uniqueid": "MTK0343:3KKG4CDWKJ53BMRQSV5Z19BBJ1G49N", "current_trial": 134, "dateTime": 1510727937361, "trialdata": {"rt": -1000, "stimulus": "/static/audio/wordpool/SHERIFF.wav", "key_press": -1, "type": "PRES_AUD", "word": "sheriff", "wordID": 1283, "conditions": [12, 800, "a", 12000], "trial": 3, "serialpos": 5, "trial_type": "single-audio", "trial_index": 134, "time_elapsed": 610176, "internal_node_id": "0.0-98.0"}}, {"uniqueid": "MTK0343:3KKG4CDWKJ53BMRQSV5Z19BBJ1G49N", "current_trial": 135, "dateTime": 1510727939077, "trialdata": {"rt": -1000, "stimulus": "/static/audio/wordpool/DRUG.wav", "key_press": -1, "type": "PRES_AUD", "word": "drug", "wordID": 500, "conditions": [12, 800, "a", 12000], "trial": 3, "serialpos": 6, "trial_type": "single-audio", "trial_index": 135, "time_elapsed": 611893, "internal_node_id": "0.0-99.0"}}, {"uniqueid": "MTK0343:3KKG4CDWKJ53BMRQSV5Z19BBJ1G49N", "current_trial": 136, "dateTime": 1510727941014, "trialdata": {"rt": -1000, "stimulus": "/static/audio/wordpool/CURTAIN.wav", "key_press": -1, "type": "PRES_AUD", "word": "curtain", "wordID": 426, "conditions": [12, 800, "a", 12000], "trial": 3, "serialpos": 7, "trial_type": "single-audio", "trial_index": 136, "time_elapsed": 613830, "internal_node_id": "0.0-100.0"}}, {"uniqueid": "MTK0343:3KKG4CDWKJ53BMRQSV5Z19BBJ1G49N", "current_trial": 137, "dateTime": 1510727942711, "trialdata": {"rt": -1000, "stimulus": "/static/audio/wordpool/MARKER.wav", "key_press": -1, "type": "PRES_AUD", "word": "marker", "wordID": 869, "conditions": [12, 800, "a", 12000], "trial": 3, "serialpos": 8, "trial_type": "single-audio", "trial_index": 137, "time_elapsed": 615527, "internal_node_id": "0.0-101.0"}}, {"uniqueid": "MTK0343:3KKG4CDWKJ53BMRQSV5Z19BBJ1G49N", "current_trial": 138, "dateTime": 1510727944362, "trialdata": {"rt": -1000, "stimulus": "/static/audio/wordpool/PLIERS.wav", "key_press": -1, "type": "PRES_AUD", "word": "pliers", "wordID": 1088, "conditions": [12, 800, "a", 12000], "trial": 3, "serialpos": 9, "trial_type": "single-audio", "trial_index": 138, "time_elapsed": 617178, "internal_node_id": "0.0-102.0"}}, {"uniqueid": "MTK0343:3KKG4CDWKJ53BMRQSV5Z19BBJ1G49N", "current_trial": 139, "dateTime": 1510727946168, "trialdata": {"rt": -1000, "stimulus": "/static/audio/wordpool/BRICK.wav", "key_press": -1, "type": "PRES_AUD", "word": "brick", "wordID": 171, "conditions": [12, 800, "a", 12000], "trial": 3, "serialpos": 10, "trial_type": "single-audio", "trial_index": 139, "time_elapsed": 618984, "internal_node_id": "0.0-103.0"}}, {"uniqueid": "MTK0343:3KKG4CDWKJ53BMRQSV5Z19BBJ1G49N", "current_trial": 140, "dateTime": 1510727947798, "trialdata": {"rt": -1000, "stimulus": "/static/audio/wordpool/TILE.wav", "key_press": -1, "type": "PRES_AUD", "word": "tile", "wordID": 1467, "conditions": [12, 800, "a", 12000], "trial": 3, "serialpos": 11, "trial_type": "single-audio", "trial_index": 140, "time_elapsed": 620614, "internal_node_id": "0.0-104.0"}}, {"uniqueid": "MTK0343:3KKG4CDWKJ53BMRQSV5Z19BBJ1G49N", "current_trial": 141, "dateTime": 1510727949108, "trialdata": {"rt": -1, "stimulus": "", "key_press": -1, "type": "PRE_RECALL_DELAY", "trial_type": "single-stim", "trial_index": 141, "time_elapsed": 621924, "internal_node_id": "0.0-105.0-0.0"}}, {"uniqueid": "MTK0343:3KKG4CDWKJ53BMRQSV5Z19BBJ1G49N", "current_trial": 142, "dateTime": 1510727949611, "trialdata": {"rt": -1000, "stimulus": "/static/audio/400Hz.wav", "key_press": -1, "type": "PRE_RECALL_ALERT", "trial_type": "single-audio", "trial_index": 142, "time_elapsed": 622426, "internal_node_id": "0.0-106.0"}}, {"uniqueid": "MTK0343:3KKG4CDWKJ53BMRQSV5Z19BBJ1G49N", "current_trial": 143, "dateTime": 1510728009639, "trialdata": {"rt": [9462, 12756, 15048, 17629, 22388, 29282, 31815, 34649], "recwords": ["lady", "orange", "tile", "brick", "sheriff", "tombstone", "marker", "drug"], "type": "FREE_RECALL", "conditions": [12, 800, "a", 12000], "trial": 3, "trial_type": "free-recall", "trial_index": 143, "time_elapsed": 682436, "internal_node_id": "0.0-107.0-0.0"}}, {"uniqueid": "MTK0343:3KKG4CDWKJ53BMRQSV5Z19BBJ1G49N", "current_trial": 144, "dateTime": 1510728013757, "trialdata": {"rt": 2114, "key_press": 32, "type": "INSTRUCTIONS", "trial_type": "text", "trial_index": 144, "time_elapsed": 686572, "internal_node_id": "0.0-108.0"}}, {"uniqueid": "MTK0343:3KKG4CDWKJ53BMRQSV5Z19BBJ1G49N", "current_trial": 145, "dateTime": 1510728039763, "trialdata": {"rt": [7990, 20300], "responses": ["22", "17"], "num1": [7, 6, 1], "num2": [7, 7, 5], "num3": [8, 4, 2], "type": "DISTRACTOR", "conditions": [12, 1600, "a", 24000], "trial": 4, "trial_type": "math-distractor", "trial_index": 145, "time_elapsed": 712579, "internal_node_id": "0.0-109.0"}}, {"uniqueid": "MTK0343:3KKG4CDWKJ53BMRQSV5Z19BBJ1G49N", "current_trial": 146, "dateTime": 1510728042767, "trialdata": {"rt": -1, "stimulus": "<p id=\"stim\">10</p>", "key_press": -1, "trial_type": "single-stim", "trial_index": 146, "time_elapsed": 715583, "internal_node_id": "0.0-110.0-0.0"}}, {"uniqueid": "MTK0343:3KKG4CDWKJ53BMRQSV5Z19BBJ1G49N", "current_trial": 147, "dateTime": 1510728043772, "trialdata": {"rt": -1, "stimulus": "<p id=\"stim\">9</p>", "key_press": -1, "trial_type": "single-stim", "trial_index": 147, "time_elapsed": 716588, "internal_node_id": "0.0-110.0-1.0"}}, {"uniqueid": "MTK0343:3KKG4CDWKJ53BMRQSV5Z19BBJ1G49N", "current_trial": 148, "dateTime": 1510728044774, "trialdata": {"rt": -1, "stimulus": "<p id=\"stim\">8</p>", "key_press": -1, "trial_type": "single-stim", "trial_index": 148, "time_elapsed": 717590, "internal_node_id": "0.0-110.0-2.0"}}, {"uniqueid": "MTK0343:3KKG4CDWKJ53BMRQSV5Z19BBJ1G49N", "current_trial": 149, "dateTime": 1510728045777, "trialdata": {"rt": -1, "stimulus": "<p id=\"stim\">7</p>", "key_press": -1, "trial_type": "single-stim", "trial_index": 149, "time_elapsed": 718593, "internal_node_id": "0.0-110.0-3.0"}}, {"uniqueid": "MTK0343:3KKG4CDWKJ53BMRQSV5Z19BBJ1G49N", "current_trial": 150, "dateTime": 1510728046781, "trialdata": {"rt": -1, "stimulus": "<p id=\"stim\">6</p>", "key_press": -1, "trial_type": "single-stim", "trial_index": 150, "time_elapsed": 719596, "internal_node_id": "0.0-110.0-4.0"}}, {"uniqueid": "MTK0343:3KKG4CDWKJ53BMRQSV5Z19BBJ1G49N", "current_trial": 151, "dateTime": 1510728047783, "trialdata": {"rt": -1, "stimulus": "<p id=\"stim\">5</p>", "key_press": -1, "trial_type": "single-stim", "trial_index": 151, "time_elapsed": 720599, "internal_node_id": "0.0-110.0-5.0"}}, {"uniqueid": "MTK0343:3KKG4CDWKJ53BMRQSV5Z19BBJ1G49N", "current_trial": 152, "dateTime": 1510728048785, "trialdata": {"rt": -1, "stimulus": "<p id=\"stim\">4</p>", "key_press": -1, "trial_type": "single-stim", "trial_index": 152, "time_elapsed": 721601, "internal_node_id": "0.0-110.0-6.0"}}, {"uniqueid": "MTK0343:3KKG4CDWKJ53BMRQSV5Z19BBJ1G49N", "current_trial": 153, "dateTime": 1510728049788, "trialdata": {"rt": -1, "stimulus": "<p id=\"stim\">3</p>", "key_press": -1, "trial_type": "single-stim", "trial_index": 153, "time_elapsed": 722604, "internal_node_id": "0.0-110.0-7.0"}}, {"uniqueid": "MTK0343:3KKG4CDWKJ53BMRQSV5Z19BBJ1G49N", "current_trial": 154, "dateTime": 1510728050795, "trialdata": {"rt": -1, "stimulus": "<p id=\"stim\">2</p>", "key_press": -1, "trial_type": "single-stim", "trial_index": 154, "time_elapsed": 723609, "internal_node_id": "0.0-110.0-8.0"}}, {"uniqueid": "MTK0343:3KKG4CDWKJ53BMRQSV5Z19BBJ1G49N", "current_trial": 155, "dateTime": 1510728051797, "trialdata": {"rt": -1, "stimulus": "<p id=\"stim\">1</p>", "key_press": -1, "trial_type": "single-stim", "trial_index": 155, "time_elapsed": 724612, "internal_node_id": "0.0-110.0-9.0"}}, {"uniqueid": "MTK0343:3KKG4CDWKJ53BMRQSV5Z19BBJ1G49N", "current_trial": 156, "dateTime": 1510728053301, "trialdata": {"rt": -1, "stimulus": "<p id=\"stim\">+</p>", "key_press": -1, "type": "FIXATION", "trial_type": "single-stim", "trial_index": 156, "time_elapsed": 726117, "internal_node_id": "0.0-111.0-0.0"}}, {"uniqueid": "MTK0343:3KKG4CDWKJ53BMRQSV5Z19BBJ1G49N", "current_trial": 157, "dateTime": 1510728055874, "trialdata": {"rt": -1000, "stimulus": "/static/audio/wordpool/VAGRANT.wav", "key_press": -1, "type": "PRES_AUD", "word": "vagrant", "wordID": 1543, "conditions": [12, 1600, "a", 24000], "trial": 4, "serialpos": 0, "trial_type": "single-audio", "trial_index": 157, "time_elapsed": 728690, "internal_node_id": "0.0-112.0"}}, {"uniqueid": "MTK0343:3KKG4CDWKJ53BMRQSV5Z19BBJ1G49N", "current_trial": 158, "dateTime": 1510728058523, "trialdata": {"rt": -1000, "stimulus": "/static/audio/wordpool/HANDBAG.wav", "key_press": -1, "type": "PRES_AUD", "word": "handbag", "wordID": 683, "conditions": [12, 1600, "a", 24000], "trial": 4, "serialpos": 1, "trial_type": "single-audio", "trial_index": 158, "time_elapsed": 731339, "internal_node_id": "0.0-113.0"}}, {"uniqueid": "MTK0343:3KKG4CDWKJ53BMRQSV5Z19BBJ1G49N", "current_trial": 159, "dateTime": 1510728061009, "trialdata": {"rt": -1000, "stimulus": "/static/audio/wordpool/BACON.wav", "key_press": -1, "type": "PRES_AUD", "word": "bacon", "wordID": 66, "conditions": [12, 1600, "a", 24000], "trial": 4, "serialpos": 2, "trial_type": "single-audio", "trial_index": 159, "time_elapsed": 733825, "internal_node_id": "0.0-114.0"}}, {"uniqueid": "MTK0343:3KKG4CDWKJ53BMRQSV5Z19BBJ1G49N", "current_trial": 160, "dateTime": 1510728063430, "trialdata": {"rt": -1000, "stimulus": "/static/audio/wordpool/SANDWICH.wav", "key_press": -1, "type": "PRES_AUD", "word": "sandwich", "wordID": 1231, "conditions": [12, 1600, "a", 24000], "trial": 4, "serialpos": 3, "trial_type": "single-audio", "trial_index": 160, "time_elapsed": 736242, "internal_node_id": "0.0-115.0"}}, {"uniqueid": "MTK0343:3KKG4CDWKJ53BMRQSV5Z19BBJ1G49N", "current_trial": 161, "dateTime": 1510728066007, "trialdata": {"rt": -1000, "stimulus": "/static/audio/wordpool/MACHINE.wav", "key_press": -1, "type": "PRES_AUD", "word": "machine", "wordID": 851, "conditions": [12, 1600, "a", 24000], "trial": 4, "serialpos": 4, "trial_type": "single-audio", "trial_index": 161, "time_elapsed": 738823, "internal_node_id": "0.0-116.0"}}, {"uniqueid": "MTK0343:3KKG4CDWKJ53BMRQSV5Z19BBJ1G49N", "current_trial": 162, "dateTime": 1510728068610, "trialdata": {"rt": -1000, "stimulus": "/static/audio/wordpool/SWITCH.wav", "key_press": -1, "type": "PRES_AUD", "word": "switch", "wordID": 1421, "conditions": [12, 1600, "a", 24000], "trial": 4, "serialpos": 5, "trial_type": "single-audio", "trial_index": 162, "time_elapsed": 741426, "internal_node_id": "0.0-117.0"}}, {"uniqueid": "MTK0343:3KKG4CDWKJ53BMRQSV5Z19BBJ1G49N", "current_trial": 163, "dateTime": 1510728071350, "trialdata": {"rt": -1000, "stimulus": "/static/audio/wordpool/POSSUM.wav", "key_press": -1, "type": "PRES_AUD", "word": "possum", "wordID": 1111, "conditions": [12, 1600, "a", 24000], "trial": 4, "serialpos": 6, "trial_type": "single-audio", "trial_index": 163, "time_elapsed": 744166, "internal_node_id": "0.0-118.0"}}, {"uniqueid": "MTK0343:3KKG4CDWKJ53BMRQSV5Z19BBJ1G49N", "current_trial": 164, "dateTime": 1510728073819, "trialdata": {"rt": -1000, "stimulus": "/static/audio/wordpool/CLAM.wav", "key_press": -1, "type": "PRES_AUD", "word": "clam", "wordID": 314, "conditions": [12, 1600, "a", 24000], "trial": 4, "serialpos": 7, "trial_type": "single-audio", "trial_index": 164, "time_elapsed": 746635, "internal_node_id": "0.0-119.0"}}, {"uniqueid": "MTK0343:3KKG4CDWKJ53BMRQSV5Z19BBJ1G49N", "current_trial": 165, "dateTime": 1510728076598, "trialdata": {"rt": -1000, "stimulus": "/static/audio/wordpool/BEAVER.wav", "key_press": -1, "type": "PRES_AUD", "word": "beaver", "wordID": 108, "conditions": [12, 1600, "a", 24000], "trial": 4, "serialpos": 8, "trial_type": "single-audio", "trial_index": 165, "time_elapsed": 749413, "internal_node_id": "0.0-120.0"}}, {"uniqueid": "MTK0343:3KKG4CDWKJ53BMRQSV5Z19BBJ1G49N", "current_trial": 166, "dateTime": 1510728079074, "trialdata": {"rt": -1000, "stimulus": "/static/audio/wordpool/HORNET.wav", "key_press": -1, "type": "PRES_AUD", "word": "hornet", "wordID": 717, "conditions": [12, 1600, "a", 24000], "trial": 4, "serialpos": 9, "trial_type": "single-audio", "trial_index": 166, "time_elapsed": 751889, "internal_node_id": "0.0-121.0"}}, {"uniqueid": "MTK0343:3KKG4CDWKJ53BMRQSV5Z19BBJ1G49N", "current_trial": 167, "dateTime": 1510728081864, "trialdata": {"rt": -1000, "stimulus": "/static/audio/wordpool/BRIEFCASE.wav", "key_press": -1, "type": "PRES_AUD", "word": "briefcase", "wordID": 174, "conditions": [12, 1600, "a", 24000], "trial": 4, "serialpos": 10, "trial_type": "single-audio", "trial_index": 167, "time_elapsed": 754679, "internal_node_id": "0.0-122.0"}}, {"uniqueid": "MTK0343:3KKG4CDWKJ53BMRQSV5Z19BBJ1G49N", "current_trial": 168, "dateTime": 1510728084526, "trialdata": {"rt": -1000, "stimulus": "/static/audio/wordpool/XEROX.wav", "key_press": -1, "type": "PRES_AUD", "word": "xerox", "wordID": 1627, "conditions": [12, 1600, "a", 24000], "trial": 4, "serialpos": 11, "trial_type": "single-audio", "trial_index": 168, "time_elapsed": 757341, "internal_node_id": "0.0-123.0"}}, {"uniqueid": "MTK0343:3KKG4CDWKJ53BMRQSV5Z19BBJ1G49N", "current_trial": 169, "dateTime": 1510728085808, "trialdata": {"rt": -1, "stimulus": "", "key_press": -1, "type": "PRE_RECALL_DELAY", "trial_type": "single-stim", "trial_index": 169, "time_elapsed": 758624, "internal_node_id": "0.0-124.0-0.0"}}, {"uniqueid": "MTK0343:3KKG4CDWKJ53BMRQSV5Z19BBJ1G49N", "current_trial": 170, "dateTime": 1510728086311, "trialdata": {"rt": -1000, "stimulus": "/static/audio/400Hz.wav", "key_press": -1, "type": "PRE_RECALL_ALERT", "trial_type": "single-audio", "trial_index": 170, "time_elapsed": 759127, "internal_node_id": "0.0-125.0"}}, {"uniqueid": "MTK0343:3KKG4CDWKJ53BMRQSV5Z19BBJ1G49N", "current_trial": 171, "dateTime": 1510728146321, "trialdata": {"rt": [7691, 10920, 15171, 18428, 21182, 27583, 31928, 36793], "recwords": ["xerox", "clam", "switch", "possum", "beaver", "breifcase", "switch", "beaver"], "type": "FREE_RECALL", "conditions": [12, 1600, "a", 24000], "trial": 4, "trial_type": "free-recall", "trial_index": 171, "time_elapsed": 819135, "internal_node_id": "0.0-126.0-0.0"}}, {"uniqueid": "MTK0343:3KKG4CDWKJ53BMRQSV5Z19BBJ1G49N", "current_trial": 172, "dateTime": 1510728149694, "trialdata": {"rt": 1367, "key_press": 32, "type": "INSTRUCTIONS", "trial_type": "text", "trial_index": 172, "time_elapsed": 822510, "internal_node_id": "0.0-127.0"}}, {"uniqueid": "MTK0343:3KKG4CDWKJ53BMRQSV5Z19BBJ1G49N", "current_trial": 173, "dateTime": 1510728175702, "trialdata": {"rt": [3882, 8529, 11672, 19562], "responses": ["17", "19", "9", "20"], "num1": [7, 9, 1, 6, 3], "num2": [3, 8, 5, 9, 9], "num3": [7, 2, 3, 5, 5], "type": "DISTRACTOR", "conditions": [24, 1600, "v", 24000], "trial": 5, "trial_type": "math-distractor", "trial_index": 173, "time_elapsed": 848518, "internal_node_id": "0.0-128.0"}}, {"uniqueid": "MTK0343:3KKG4CDWKJ53BMRQSV5Z19BBJ1G49N", "current_trial": 174, "dateTime": 1510728178710, "trialdata": {"rt": -1, "stimulus": "<p id=\"stim\">10</p>", "key_press": -1, "trial_type": "single-stim", "trial_index": 174, "time_elapsed": 851525, "internal_node_id": "0.0-129.0-0.0"}}, {"uniqueid": "MTK0343:3KKG4CDWKJ53BMRQSV5Z19BBJ1G49N", "current_trial": 175, "dateTime": 1510728179716, "trialdata": {"rt": -1, "stimulus": "<p id=\"stim\">9</p>", "key_press": -1, "trial_type": "single-stim", "trial_index": 175, "time_elapsed": 852531, "internal_node_id": "0.0-129.0-1.0"}}, {"uniqueid": "MTK0343:3KKG4CDWKJ53BMRQSV5Z19BBJ1G49N", "current_trial": 176, "dateTime": 1510728180720, "trialdata": {"rt": -1, "stimulus": "<p id=\"stim\">8</p>", "key_press": -1, "trial_type": "single-stim", "trial_index": 176, "time_elapsed": 853536, "internal_node_id": "0.0-129.0-2.0"}}, {"uniqueid": "MTK0343:3KKG4CDWKJ53BMRQSV5Z19BBJ1G49N", "current_trial": 177, "dateTime": 1510728181725, "trialdata": {"rt": -1, "stimulus": "<p id=\"stim\">7</p>", "key_press": -1, "trial_type": "single-stim", "trial_index": 177, "time_elapsed": 854541, "internal_node_id": "0.0-129.0-3.0"}}, {"uniqueid": "MTK0343:3KKG4CDWKJ53BMRQSV5Z19BBJ1G49N", "current_trial": 178, "dateTime": 1510728182729, "trialdata": {"rt": -1, "stimulus": "<p id=\"stim\">6</p>", "key_press": -1, "trial_type": "single-stim", "trial_index": 178, "time_elapsed": 855545, "internal_node_id": "0.0-129.0-4.0"}}, {"uniqueid": "MTK0343:3KKG4CDWKJ53BMRQSV5Z19BBJ1G49N", "current_trial": 179, "dateTime": 1510728183733, "trialdata": {"rt": -1, "stimulus": "<p id=\"stim\">5</p>", "key_press": -1, "trial_type": "single-stim", "trial_index": 179, "time_elapsed": 856549, "internal_node_id": "0.0-129.0-5.0"}}, {"uniqueid": "MTK0343:3KKG4CDWKJ53BMRQSV5Z19BBJ1G49N", "current_trial": 180, "dateTime": 1510728184740, "trialdata": {"rt": -1, "stimulus": "<p id=\"stim\">4</p>", "key_press": -1, "trial_type": "single-stim", "trial_index": 180, "time_elapsed": 857556, "internal_node_id": "0.0-129.0-6.0"}}, {"uniqueid": "MTK0343:3KKG4CDWKJ53BMRQSV5Z19BBJ1G49N", "current_trial": 181, "dateTime": 1510728185746, "trialdata": {"rt": -1, "stimulus": "<p id=\"stim\">3</p>", "key_press": -1, "trial_type": "single-stim", "trial_index": 181, "time_elapsed": 858562, "internal_node_id": "0.0-129.0-7.0"}}, {"uniqueid": "MTK0343:3KKG4CDWKJ53BMRQSV5Z19BBJ1G49N", "current_trial": 182, "dateTime": 1510728186752, "trialdata": {"rt": -1, "stimulus": "<p id=\"stim\">2</p>", "key_press": -1, "trial_type": "single-stim", "trial_index": 182, "time_elapsed": 859568, "internal_node_id": "0.0-129.0-8.0"}}, {"uniqueid": "MTK0343:3KKG4CDWKJ53BMRQSV5Z19BBJ1G49N", "current_trial": 183, "dateTime": 1510728187757, "trialdata": {"rt": -1, "stimulus": "<p id=\"stim\">1</p>", "key_press": -1, "trial_type": "single-stim", "trial_index": 183, "time_elapsed": 860573, "internal_node_id": "0.0-129.0-9.0"}}, {"uniqueid": "MTK0343:3KKG4CDWKJ53BMRQSV5Z19BBJ1G49N", "current_trial": 184, "dateTime": 1510728189259, "trialdata": {"rt": -1, "stimulus": "<p id=\"stim\">+</p>", "key_press": -1, "type": "FIXATION", "trial_type": "single-stim", "trial_index": 184, "time_elapsed": 862075, "internal_node_id": "0.0-130.0-0.0"}}, {"uniqueid": "MTK0343:3KKG4CDWKJ53BMRQSV5Z19BBJ1G49N", "current_trial": 185, "dateTime": 1510728190866, "trialdata": {"rt": -1, "stimulus": "<p id=\"stim\">PEPPER</p>", "key_press": -1, "type": "PRES_VIS", "word": "pepper", "wordID": 1046, "conditions": [24, 1600, "v", 24000], "trial": 5, "serialpos": 0, "trial_type": "single-stim", "trial_index": 185, "time_elapsed": 863681, "internal_node_id": "0.0-131.0"}}, {"uniqueid": "MTK0343:3KKG4CDWKJ53BMRQSV5Z19BBJ1G49N", "current_trial": 186, "dateTime": 1510728193583, "trialdata": {"rt": -1, "stimulus": "<p id=\"stim\">SHOULDER</p>", "key_press": -1, "type": "PRES_VIS", "word": "shoulder", "wordID": 1293, "conditions": [24, 1600, "v", 24000], "trial": 5, "serialpos": 1, "trial_type": "single-stim", "trial_index": 186, "time_elapsed": 866399, "internal_node_id": "0.0-132.0"}}, {"uniqueid": "MTK0343:3KKG4CDWKJ53BMRQSV5Z19BBJ1G49N", "current_trial": 187, "dateTime": 1510728196184, "trialdata": {"rt": -1, "stimulus": "<p id=\"stim\">SUPPER</p>", "key_press": -1, "type": "PRES_VIS", "word": "supper", "wordID": 1410, "conditions": [24, 1600, "v", 24000], "trial": 5, "serialpos": 2, "trial_type": "single-stim", "trial_index": 187, "time_elapsed": 869000, "internal_node_id": "0.0-133.0"}}, {"uniqueid": "MTK0343:3KKG4CDWKJ53BMRQSV5Z19BBJ1G49N", "current_trial": 188, "dateTime": 1510728198874, "trialdata": {"rt": -1, "stimulus": "<p id=\"stim\">MILK</p>", "key_press": -1, "type": "PRES_VIS", "word": "milk", "wordID": 894, "conditions": [24, 1600, "v", 24000], "trial": 5, "serialpos": 3, "trial_type": "single-stim", "trial_index": 188, "time_elapsed": 871690, "internal_node_id": "0.0-134.0"}}, {"uniqueid": "MTK0343:3KKG4CDWKJ53BMRQSV5Z19BBJ1G49N", "current_trial": 189, "dateTime": 1510728201633, "trialdata": {"rt": -1, "stimulus": "<p id=\"stim\">WHISKERS</p>", "key_press": -1, "type": "PRES_VIS", "word": "whiskers", "wordID": 1604, "conditions": [24, 1600, "v", 24000], "trial": 5, "serialpos": 4, "trial_type": "single-stim", "trial_index": 189, "time_elapsed": 874449, "internal_node_id": "0.0-135.0"}}, {"uniqueid": "MTK0343:3KKG4CDWKJ53BMRQSV5Z19BBJ1G49N", "current_trial": 190, "dateTime": 1510728204194, "trialdata": {"rt": -1, "stimulus": "<p id=\"stim\">RUST</p>", "key_press": -1, "type": "PRES_VIS", "word": "rust", "wordID": 1218, "conditions": [24, 1600, "v", 24000], "trial": 5, "serialpos": 5, "trial_type": "single-stim", "trial_index": 190, "time_elapsed": 877010, "internal_node_id": "0.0-136.0"}}, {"uniqueid": "MTK0343:3KKG4CDWKJ53BMRQSV5Z19BBJ1G49N", "current_trial": 191, "dateTime": 1510728206884, "trialdata": {"rt": -1, "stimulus": "<p id=\"stim\">SPOOL</p>", "key_press": -1, "type": "PRES_VIS", "word": "spool", "wordID": 1355, "conditions": [24, 1600, "v", 24000], "trial": 5, "serialpos": 6, "trial_type": "single-stim", "trial_index": 191, "time_elapsed": 879700, "internal_node_id": "0.0-137.0"}}, {"uniqueid": "MTK0343:3KKG4CDWKJ53BMRQSV5Z19BBJ1G49N", "current_trial": 192, "dateTime": 1510728209511, "trialdata": {"rt": -1, "stimulus": "<p id=\"stim\">ROD</p>", "key_press": -1, "type": "PRES_VIS", "word": "rod", "wordID": 1202, "conditions": [24, 1600, "v", 24000], "trial": 5, "serialpos": 7, "trial_type": "single-stim", "trial_index": 192, "time_elapsed": 882326, "internal_node_id": "0.0-138.0"}}, {"uniqueid": "MTK0343:3KKG4CDWKJ53BMRQSV5Z19BBJ1G49N", "current_trial": 193, "dateTime": 1510728212297, "trialdata": {"rt": -1, "stimulus": "<p id=\"stim\">ANKLE</p>", "key_press": -1, "type": "PRES_VIS", "word": "ankle", "wordID": 23, "conditions": [24, 1600, "v", 24000], "trial": 5, "serialpos": 8, "trial_type": "single-stim", "trial_index": 193, "time_elapsed": 885113, "internal_node_id": "0.0-139.0"}}, {"uniqueid": "MTK0343:3KKG4CDWKJ53BMRQSV5Z19BBJ1G49N", "current_trial": 194, "dateTime": 1510728214815, "trialdata": {"rt": -1, "stimulus": "<p id=\"stim\">ROBOT</p>", "key_press": -1, "type": "PRES_VIS", "word": "robot", "wordID": 1199, "conditions": [24, 1600, "v", 24000], "trial": 5, "serialpos": 9, "trial_type": "single-stim", "trial_index": 194, "time_elapsed": 887631, "internal_node_id": "0.0-140.0"}}, {"uniqueid": "MTK0343:3KKG4CDWKJ53BMRQSV5Z19BBJ1G49N", "current_trial": 195, "dateTime": 1510728217457, "trialdata": {"rt": -1, "stimulus": "<p id=\"stim\">WITNESS</p>", "key_press": -1, "type": "PRES_VIS", "word": "witness", "wordID": 1617, "conditions": [24, 1600, "v", 24000], "trial": 5, "serialpos": 10, "trial_type": "single-stim", "trial_index": 195, "time_elapsed": 890272, "internal_node_id": "0.0-141.0"}}, {"uniqueid": "MTK0343:3KKG4CDWKJ53BMRQSV5Z19BBJ1G49N", "current_trial": 196, "dateTime": 1510728220215, "trialdata": {"rt": -1, "stimulus": "<p id=\"stim\">WRIST</p>", "key_press": -1, "type": "PRES_VIS", "word": "wrist", "wordID": 1625, "conditions": [24, 1600, "v", 24000], "trial": 5, "serialpos": 11, "trial_type": "single-stim", "trial_index": 196, "time_elapsed": 893031, "internal_node_id": "0.0-142.0"}}, {"uniqueid": "MTK0343:3KKG4CDWKJ53BMRQSV5Z19BBJ1G49N", "current_trial": 197, "dateTime": 1510728222915, "trialdata": {"rt": -1, "stimulus": "<p id=\"stim\">KLEENEX</p>", "key_press": -1, "type": "PRES_VIS", "word": "kleenex", "wordID": 781, "conditions": [24, 1600, "v", 24000], "trial": 5, "serialpos": 12, "trial_type": "single-stim", "trial_index": 197, "time_elapsed": 895731, "internal_node_id": "0.0-143.0"}}, {"uniqueid": "MTK0343:3KKG4CDWKJ53BMRQSV5Z19BBJ1G49N", "current_trial": 198, "dateTime": 1510728225438, "trialdata": {"rt": -1, "stimulus": "<p id=\"stim\">BANJO</p>", "key_press": -1, "type": "PRES_VIS", "word": "banjo", "wordID": 81, "conditions": [24, 1600, "v", 24000], "trial": 5, "serialpos": 13, "trial_type": "single-stim", "trial_index": 198, "time_elapsed": 898253, "internal_node_id": "0.0-144.0"}}, {"uniqueid": "MTK0343:3KKG4CDWKJ53BMRQSV5Z19BBJ1G49N", "current_trial": 199, "dateTime": 1510728228071, "trialdata": {"rt": -1, "stimulus": "<p id=\"stim\">ICING</p>", "key_press": -1, "type": "PRES_VIS", "word": "icing", "wordID": 731, "conditions": [24, 1600, "v", 24000], "trial": 5, "serialpos": 14, "trial_type": "single-stim", "trial_index": 199, "time_elapsed": 900887, "internal_node_id": "0.0-145.0"}}, {"uniqueid": "MTK0343:3KKG4CDWKJ53BMRQSV5Z19BBJ1G49N", "current_trial": 200, "dateTime": 1510728230701, "trialdata": {"rt": -1, "stimulus": "<p id=\"stim\">WRENCH</p>", "key_press": -1, "type": "PRES_VIS", "word": "wrench", "wordID": 1624, "conditions": [24, 1600, "v", 24000], "trial": 5, "serialpos": 15, "trial_type": "single-stim", "trial_index": 200, "time_elapsed": 903516, "internal_node_id": "0.0-146.0"}}, {"uniqueid": "MTK0343:3KKG4CDWKJ53BMRQSV5Z19BBJ1G49N", "current_trial": 201, "dateTime": 1510728233255, "trialdata": {"rt": -1, "stimulus": "<p id=\"stim\">DORM</p>", "key_press": -1, "type": "PRES_VIS", "word": "dorm", "wordID": 487, "conditions": [24, 1600, "v", 24000], "trial": 5, "serialpos": 16, "trial_type": "single-stim", "trial_index": 201, "time_elapsed": 906071, "internal_node_id": "0.0-147.0"}}, {"uniqueid": "MTK0343:3KKG4CDWKJ53BMRQSV5Z19BBJ1G49N", "current_trial": 202, "dateTime": 1510728235728, "trialdata": {"rt": -1, "stimulus": "<p id=\"stim\">COD</p>", "key_press": -1, "type": "PRES_VIS", "word": "cod", "wordID": 339, "conditions": [24, 1600, "v", 24000], "trial": 5, "serialpos": 17, "trial_type": "single-stim", "trial_index": 202, "time_elapsed": 908544, "internal_node_id": "0.0-148.0"}}, {"uniqueid": "MTK0343:3KKG4CDWKJ53BMRQSV5Z19BBJ1G49N", "current_trial": 203, "dateTime": 1510728238187, "trialdata": {"rt": -1, "stimulus": "<p id=\"stim\">PENGUIN</p>", "key_press": -1, "type": "PRES_VIS", "word": "penguin", "wordID": 1043, "conditions": [24, 1600, "v", 24000], "trial": 5, "serialpos": 18, "trial_type": "single-stim", "trial_index": 203, "time_elapsed": 911003, "internal_node_id": "0.0-149.0"}}, {"uniqueid": "MTK0343:3KKG4CDWKJ53BMRQSV5Z19BBJ1G49N", "current_trial": 204, "dateTime": 1510728240995, "trialdata": {"rt": -1, "stimulus": "<p id=\"stim\">COBRA</p>", "key_press": -1, "type": "PRES_VIS", "word": "cobra", "wordID": 335, "conditions": [24, 1600, "v", 24000], "trial": 5, "serialpos": 19, "trial_type": "single-stim", "trial_index": 204, "time_elapsed": 913810, "internal_node_id": "0.0-150.0"}}, {"uniqueid": "MTK0343:3KKG4CDWKJ53BMRQSV5Z19BBJ1G49N", "current_trial": 205, "dateTime": 1510728243695, "trialdata": {"rt": -1, "stimulus": "<p id=\"stim\">LEOPARD</p>", "key_press": -1, "type": "PRES_VIS", "word": "leopard", "wordID": 811, "conditions": [24, 1600, "v", 24000], "trial": 5, "serialpos": 20, "trial_type": "single-stim", "trial_index": 205, "time_elapsed": 916511, "internal_node_id": "0.0-151.0"}}, {"uniqueid": "MTK0343:3KKG4CDWKJ53BMRQSV5Z19BBJ1G49N", "current_trial": 206, "dateTime": 1510728246134, "trialdata": {"rt": -1, "stimulus": "<p id=\"stim\">PANTHER</p>", "key_press": -1, "type": "PRES_VIS", "word": "panther", "wordID": 1008, "conditions": [24, 1600, "v", 24000], "trial": 5, "serialpos": 21, "trial_type": "single-stim", "trial_index": 206, "time_elapsed": 918950, "internal_node_id": "0.0-152.0"}}, {"uniqueid": "MTK0343:3KKG4CDWKJ53BMRQSV5Z19BBJ1G49N", "current_trial": 207, "dateTime": 1510728248795, "trialdata": {"rt": -1, "stimulus": "<p id=\"stim\">STUDENT</p>", "key_press": -1, "type": "PRES_VIS", "word": "student", "wordID": 1394, "conditions": [24, 1600, "v", 24000], "trial": 5, "serialpos": 22, "trial_type": "single-stim", "trial_index": 207, "time_elapsed": 921611, "internal_node_id": "0.0-153.0"}}, {"uniqueid": "MTK0343:3KKG4CDWKJ53BMRQSV5Z19BBJ1G49N", "current_trial": 208, "dateTime": 1510728251363, "trialdata": {"rt": -1, "stimulus": "<p id=\"stim\">NECKLACE</p>", "key_press": -1, "type": "PRES_VIS", "word": "necklace", "wordID": 939, "conditions": [24, 1600, "v", 24000], "trial": 5, "serialpos": 23, "trial_type": "single-stim", "trial_index": 208, "time_elapsed": 924178, "internal_node_id": "0.0-154.0"}}, {"uniqueid": "MTK0343:3KKG4CDWKJ53BMRQSV5Z19BBJ1G49N", "current_trial": 209, "dateTime": 1510728253567, "trialdata": {"rt": -1, "stimulus": "", "key_press": -1, "type": "PRE_RECALL_DELAY", "trial_type": "single-stim", "trial_index": 209, "time_elapsed": 926383, "internal_node_id": "0.0-155.0-0.0"}}, {"uniqueid": "MTK0343:3KKG4CDWKJ53BMRQSV5Z19BBJ1G49N", "current_trial": 210, "dateTime": 1510728254073, "trialdata": {"rt": -1000, "stimulus": "/static/audio/400Hz.wav", "key_press": -1, "type": "PRE_RECALL_ALERT", "trial_type": "single-audio", "trial_index": 210, "time_elapsed": 926889, "internal_node_id": "0.0-156.0"}}, {"uniqueid": "MTK0343:3KKG4CDWKJ53BMRQSV5Z19BBJ1G49N", "current_trial": 211, "dateTime": 1510728314089, "trialdata": {"rt": [8644, 12277, 15087, 17709, 21838, 27743, 30277, 35326], "recwords": ["pepper", "student", "cobra", "panther", "icing", "dorm", "wrist", "whisker"], "type": "FREE_RECALL", "conditions": [24, 1600, "v", 24000], "trial": 5, "trial_type": "free-recall", "trial_index": 211, "time_elapsed": 986894, "internal_node_id": "0.0-157.0-0.0"}}, {"uniqueid": "MTK0343:3KKG4CDWKJ53BMRQSV5Z19BBJ1G49N", "current_trial": 212, "dateTime": 1510728325086, "trialdata": {"rt": 8991, "key_press": 32, "type": "INSTRUCTIONS", "trial_type": "text", "trial_index": 212, "time_elapsed": 997902, "internal_node_id": "0.0-158.0"}}, {"uniqueid": "MTK0343:3KKG4CDWKJ53BMRQSV5Z19BBJ1G49N", "current_trial": 213, "dateTime": 1510728339095, "trialdata": {"rt": [7119], "responses": ["13"], "num1": [1, 9], "num2": [7, 4], "num3": [5, 8], "type": "DISTRACTOR", "conditions": [24, 800, "a", 12000], "trial": 6, "trial_type": "math-distractor", "trial_index": 213, "time_elapsed": 1011911, "internal_node_id": "0.0-159.0"}}, {"uniqueid": "MTK0343:3KKG4CDWKJ53BMRQSV5Z19BBJ1G49N", "current_trial": 214, "dateTime": 1510728342102, "trialdata": {"rt": -1, "stimulus": "<p id=\"stim\">10</p>", "key_press": -1, "trial_type": "single-stim", "trial_index": 214, "time_elapsed": 1014917, "internal_node_id": "0.0-160.0-0.0"}}, {"uniqueid": "MTK0343:3KKG4CDWKJ53BMRQSV5Z19BBJ1G49N", "current_trial": 215, "dateTime": 1510728343104, "trialdata": {"rt": -1, "stimulus": "<p id=\"stim\">9</p>", "key_press": -1, "trial_type": "single-stim", "trial_index": 215, "time_elapsed": 1015920, "internal_node_id": "0.0-160.0-1.0"}}, {"uniqueid": "MTK0343:3KKG4CDWKJ53BMRQSV5Z19BBJ1G49N", "current_trial": 216, "dateTime": 1510728344109, "trialdata": {"rt": -1, "stimulus": "<p id=\"stim\">8</p>", "key_press": -1, "trial_type": "single-stim", "trial_index": 216, "time_elapsed": 1016925, "internal_node_id": "0.0-160.0-2.0"}}, {"uniqueid": "MTK0343:3KKG4CDWKJ53BMRQSV5Z19BBJ1G49N", "current_trial": 217, "dateTime": 1510728345111, "trialdata": {"rt": -1, "stimulus": "<p id=\"stim\">7</p>", "key_press": -1, "trial_type": "single-stim", "trial_index": 217, "time_elapsed": 1017927, "internal_node_id": "0.0-160.0-3.0"}}, {"uniqueid": "MTK0343:3KKG4CDWKJ53BMRQSV5Z19BBJ1G49N", "current_trial": 218, "dateTime": 1510728346114, "trialdata": {"rt": -1, "stimulus": "<p id=\"stim\">6</p>", "key_press": -1, "trial_type": "single-stim", "trial_index": 218, "time_elapsed": 1018929, "internal_node_id": "0.0-160.0-4.0"}}, {"uniqueid": "MTK0343:3KKG4CDWKJ53BMRQSV5Z19BBJ1G49N", "current_trial": 219, "dateTime": 1510728347117, "trialdata": {"rt": -1, "stimulus": "<p id=\"stim\">5</p>", "key_press": -1, "trial_type": "single-stim", "trial_index": 219, "time_elapsed": 1019933, "internal_node_id": "0.0-160.0-5.0"}}, {"uniqueid": "MTK0343:3KKG4CDWKJ53BMRQSV5Z19BBJ1G49N", "current_trial": 220, "dateTime": 1510728348120, "trialdata": {"rt": -1, "stimulus": "<p id=\"stim\">4</p>", "key_press": -1, "trial_type": "single-stim", "trial_index": 220, "time_elapsed": 1020936, "internal_node_id": "0.0-160.0-6.0"}}, {"uniqueid": "MTK0343:3KKG4CDWKJ53BMRQSV5Z19BBJ1G49N", "current_trial": 221, "dateTime": 1510728349124, "trialdata": {"rt": -1, "stimulus": "<p id=\"stim\">3</p>", "key_press": -1, "trial_type": "single-stim", "trial_index": 221, "time_elapsed": 1021939, "internal_node_id": "0.0-160.0-7.0"}}, {"uniqueid": "MTK0343:3KKG4CDWKJ53BMRQSV5Z19BBJ1G49N", "current_trial": 222, "dateTime": 1510728350130, "trialdata": {"rt": -1, "stimulus": "<p id=\"stim\">2</p>", "key_press": -1, "trial_type": "single-stim", "trial_index": 222, "time_elapsed": 1022945, "internal_node_id": "0.0-160.0-8.0"}}, {"uniqueid": "MTK0343:3KKG4CDWKJ53BMRQSV5Z19BBJ1G49N", "current_trial": 223, "dateTime": 1510728351135, "trialdata": {"rt": -1, "stimulus": "<p id=\"stim\">1</p>", "key_press": -1, "trial_type": "single-stim", "trial_index": 223, "time_elapsed": 1023950, "internal_node_id": "0.0-160.0-9.0"}}, {"uniqueid": "MTK0343:3KKG4CDWKJ53BMRQSV5Z19BBJ1G49N", "current_trial": 224, "dateTime": 1510728352638, "trialdata": {"rt": -1, "stimulus": "<p id=\"stim\">+</p>", "key_press": -1, "type": "FIXATION", "trial_type": "single-stim", "trial_index": 224, "time_elapsed": 1025454, "internal_node_id": "0.0-161.0-0.0"}}, {"uniqueid": "MTK0343:3KKG4CDWKJ53BMRQSV5Z19BBJ1G49N", "current_trial": 225, "dateTime": 1510728354522, "trialdata": {"rt": -1000, "stimulus": "/static/audio/wordpool/WASP.wav", "key_press": -1, "type": "PRES_AUD", "word": "wasp", "wordID": 1592, "conditions": [24, 800, "a", 12000], "trial": 6, "serialpos": 0, "trial_type": "single-audio", "trial_index": 225, "time_elapsed": 1027338, "internal_node_id": "0.0-162.0"}}, {"uniqueid": "MTK0343:3KKG4CDWKJ53BMRQSV5Z19BBJ1G49N", "current_trial": 226, "dateTime": 1510728356344, "trialdata": {"rt": -1000, "stimulus": "/static/audio/wordpool/MAILBOX.wav", "key_press": -1, "type": "PRES_AUD", "word": "mailbox", "wordID": 856, "conditions": [24, 800, "a", 12000], "trial": 6, "serialpos": 1, "trial_type": "single-audio", "trial_index": 226, "time_elapsed": 1029159, "internal_node_id": "0.0-163.0"}}, {"uniqueid": "MTK0343:3KKG4CDWKJ53BMRQSV5Z19BBJ1G49N", "current_trial": 227, "dateTime": 1510728357984, "trialdata": {"rt": -1000, "stimulus": "/static/audio/wordpool/MAILMAN.wav", "key_press": -1, "type": "PRES_AUD", "word": "mailman", "wordID": 857, "conditions": [24, 800, "a", 12000], "trial": 6, "serialpos": 2, "trial_type": "single-audio", "trial_index": 227, "time_elapsed": 1030799, "internal_node_id": "0.0-164.0"}}, {"uniqueid": "MTK0343:3KKG4CDWKJ53BMRQSV5Z19BBJ1G49N", "current_trial": 228, "dateTime": 1510728359953, "trialdata": {"rt": -1000, "stimulus": "/static/audio/wordpool/PISTON.wav", "key_press": -1, "type": "PRES_AUD", "word": "piston", "wordID": 1075, "conditions": [24, 800, "a", 12000], "trial": 6, "serialpos": 3, "trial_type": "single-audio", "trial_index": 228, "time_elapsed": 1032768, "internal_node_id": "0.0-165.0"}}, {"uniqueid": "MTK0343:3KKG4CDWKJ53BMRQSV5Z19BBJ1G49N", "current_trial": 229, "dateTime": 1510728361655, "trialdata": {"rt": -1000, "stimulus": "/static/audio/wordpool/BROTHER.wav", "key_press": -1, "type": "PRES_AUD", "word": "brother", "wordID": 178, "conditions": [24, 800, "a", 12000], "trial": 6, "serialpos": 4, "trial_type": "single-audio", "trial_index": 229, "time_elapsed": 1034471, "internal_node_id": "0.0-166.0"}}, {"uniqueid": "MTK0343:3KKG4CDWKJ53BMRQSV5Z19BBJ1G49N", "current_trial": 230, "dateTime": 1510728363271, "trialdata": {"rt": -1000, "stimulus": "/static/audio/wordpool/JOURNAL.wav", "key_press": -1, "type": "PRES_AUD", "word": "journal", "wordID": 759, "conditions": [24, 800, "a", 12000], "trial": 6, "serialpos": 5, "trial_type": "single-audio", "trial_index": 230, "time_elapsed": 1036086, "internal_node_id": "0.0-167.0"}}, {"uniqueid": "MTK0343:3KKG4CDWKJ53BMRQSV5Z19BBJ1G49N", "current_trial": 231, "dateTime": 1510728364994, "trialdata": {"rt": -1000, "stimulus": "/static/audio/wordpool/MESSAGE.wav", "key_press": -1, "type": "PRES_AUD", "word": "message", "wordID": 887, "conditions": [24, 800, "a", 12000], "trial": 6, "serialpos": 6, "trial_type": "single-audio", "trial_index": 231, "time_elapsed": 1037810, "internal_node_id": "0.0-168.0"}}, {"uniqueid": "MTK0343:3KKG4CDWKJ53BMRQSV5Z19BBJ1G49N", "current_trial": 232, "dateTime": 1510728366599, "trialdata": {"rt": -1000, "stimulus": "/static/audio/wordpool/ELBOW.wav", "key_press": -1, "type": "PRES_AUD", "word": "elbow", "wordID": 519, "conditions": [24, 800, "a", 12000], "trial": 6, "serialpos": 7, "trial_type": "single-audio", "trial_index": 232, "time_elapsed": 1039414, "internal_node_id": "0.0-169.0"}}, {"uniqueid": "MTK0343:3KKG4CDWKJ53BMRQSV5Z19BBJ1G49N", "current_trial": 233, "dateTime": 1510728368307, "trialdata": {"rt": -1000, "stimulus": "/static/audio/wordpool/FOOT.wav", "key_press": -1, "type": "PRES_AUD", "word": "foot", "wordID": 589, "conditions": [24, 800, "a", 12000], "trial": 6, "serialpos": 8, "trial_type": "single-audio", "trial_index": 233, "time_elapsed": 1041122, "internal_node_id": "0.0-170.0"}}, {"uniqueid": "MTK0343:3KKG4CDWKJ53BMRQSV5Z19BBJ1G49N", "current_trial": 234, "dateTime": 1510728370204, "trialdata": {"rt": -1000, "stimulus": "/static/audio/wordpool/LIVER.wav", "key_press": -1, "type": "PRES_AUD", "word": "liver", "wordID": 832, "conditions": [24, 800, "a", 12000], "trial": 6, "serialpos": 9, "trial_type": "single-audio", "trial_index": 234, "time_elapsed": 1043020, "internal_node_id": "0.0-171.0"}}, {"uniqueid": "MTK0343:3KKG4CDWKJ53BMRQSV5Z19BBJ1G49N", "current_trial": 235, "dateTime": 1510728372159, "trialdata": {"rt": -1000, "stimulus": "/static/audio/wordpool/COCKTAIL.wav", "key_press": -1, "type": "PRES_AUD", "word": "cocktail", "wordID": 337, "conditions": [24, 800, "a", 12000], "trial": 6, "serialpos": 10, "trial_type": "single-audio", "trial_index": 235, "time_elapsed": 1044974, "internal_node_id": "0.0-172.0"}}, {"uniqueid": "MTK0343:3KKG4CDWKJ53BMRQSV5Z19BBJ1G49N", "current_trial": 236, "dateTime": 1510728374016, "trialdata": {"rt": -1000, "stimulus": "/static/audio/wordpool/VALVE.wav", "key_press": -1, "type": "PRES_AUD", "word": "valve", "wordID": 1545, "conditions": [24, 800, "a", 12000], "trial": 6, "serialpos": 11, "trial_type": "single-audio", "trial_index": 236, "time_elapsed": 1046832, "internal_node_id": "0.0-173.0"}}, {"uniqueid": "MTK0343:3KKG4CDWKJ53BMRQSV5Z19BBJ1G49N", "current_trial": 237, "dateTime": 1510728375956, "trialdata": {"rt": -1000, "stimulus": "/static/audio/wordpool/FRECKLE.wav", "key_press": -1, "type": "PRES_AUD", "word": "freckle", "wordID": 601, "conditions": [24, 800, "a", 12000], "trial": 6, "serialpos": 12, "trial_type": "single-audio", "trial_index": 237, "time_elapsed": 1048772, "internal_node_id": "0.0-174.0"}}, {"uniqueid": "MTK0343:3KKG4CDWKJ53BMRQSV5Z19BBJ1G49N", "current_trial": 238, "dateTime": 1510728377912, "trialdata": {"rt": -1000, "stimulus": "/static/audio/wordpool/APPLE.wav", "key_press": -1, "type": "PRES_AUD", "word": "apple", "wordID": 32, "conditions": [24, 800, "a", 12000], "trial": 6, "serialpos": 13, "trial_type": "single-audio", "trial_index": 238, "time_elapsed": 1050728, "internal_node_id": "0.0-175.0"}}, {"uniqueid": "MTK0343:3KKG4CDWKJ53BMRQSV5Z19BBJ1G49N", "current_trial": 239, "dateTime": 1510728379722, "trialdata": {"rt": -1000, "stimulus": "/static/audio/wordpool/GRAPE.wav", "key_press": -1, "type": "PRES_AUD", "word": "grape", "wordID": 653, "conditions": [24, 800, "a", 12000], "trial": 6, "serialpos": 14, "trial_type": "single-audio", "trial_index": 239, "time_elapsed": 1052537, "internal_node_id": "0.0-176.0"}}, {"uniqueid": "MTK0343:3KKG4CDWKJ53BMRQSV5Z19BBJ1G49N", "current_trial": 240, "dateTime": 1510728381694, "trialdata": {"rt": -1000, "stimulus": "/static/audio/wordpool/GRILL.wav", "key_press": -1, "type": "PRES_AUD", "word": "grill", "wordID": 660, "conditions": [24, 800, "a", 12000], "trial": 6, "serialpos": 15, "trial_type": "single-audio", "trial_index": 240, "time_elapsed": 1054510, "internal_node_id": "0.0-177.0"}}, {"uniqueid": "MTK0343:3KKG4CDWKJ53BMRQSV5Z19BBJ1G49N", "current_trial": 241, "dateTime": 1510728383537, "trialdata": {"rt": -1000, "stimulus": "/static/audio/wordpool/GOBLIN.wav", "key_press": -1, "type": "PRES_AUD", "word": "goblin", "wordID": 644, "conditions": [24, 800, "a", 12000], "trial": 6, "serialpos": 16, "trial_type": "single-audio", "trial_index": 241, "time_elapsed": 1056353, "internal_node_id": "0.0-178.0"}}, {"uniqueid": "MTK0343:3KKG4CDWKJ53BMRQSV5Z19BBJ1G49N", "current_trial": 242, "dateTime": 1510728385458, "trialdata": {"rt": -1000, "stimulus": "/static/audio/wordpool/PIMPLE.wav", "key_press": -1, "type": "PRES_AUD", "word": "pimple", "wordID": 1070, "conditions": [24, 800, "a", 12000], "trial": 6, "serialpos": 17, "trial_type": "single-audio", "trial_index": 242, "time_elapsed": 1058274, "internal_node_id": "0.0-179.0"}}, {"uniqueid": "MTK0343:3KKG4CDWKJ53BMRQSV5Z19BBJ1G49N", "current_trial": 243, "dateTime": 1510728387291, "trialdata": {"rt": -1000, "stimulus": "/static/audio/wordpool/CABIN.wav", "key_press": -1, "type": "PRES_AUD", "word": "cabin", "wordID": 210, "conditions": [24, 800, "a", 12000], "trial": 6, "serialpos": 18, "trial_type": "single-audio", "trial_index": 243, "time_elapsed": 1060107, "internal_node_id": "0.0-180.0"}}, {"uniqueid": "MTK0343:3KKG4CDWKJ53BMRQSV5Z19BBJ1G49N", "current_trial": 244, "dateTime": 1510728389283, "trialdata": {"rt": -1000, "stimulus": "/static/audio/wordpool/BATHTUB.wav", "key_press": -1, "type": "PRES_AUD", "word": "bathtub", "wordID": 99, "conditions": [24, 800, "a", 12000], "trial": 6, "serialpos": 19, "trial_type": "single-audio", "trial_index": 244, "time_elapsed": 1062098, "internal_node_id": "0.0-181.0"}}, {"uniqueid": "MTK0343:3KKG4CDWKJ53BMRQSV5Z19BBJ1G49N", "current_trial": 245, "dateTime": 1510728391092, "trialdata": {"rt": -1000, "stimulus": "/static/audio/wordpool/LAKE.wav", "key_press": -1, "type": "PRES_AUD", "word": "lake", "wordID": 795, "conditions": [24, 800, "a", 12000], "trial": 6, "serialpos": 20, "trial_type": "single-audio", "trial_index": 245, "time_elapsed": 1063908, "internal_node_id": "0.0-182.0"}}, {"uniqueid": "MTK0343:3KKG4CDWKJ53BMRQSV5Z19BBJ1G49N", "current_trial": 246, "dateTime": 1510728392751, "trialdata": {"rt": -1000, "stimulus": "/static/audio/wordpool/HOSTESS.wav", "key_press": -1, "type": "PRES_AUD", "word": "hostess", "wordID": 722, "conditions": [24, 800, "a", 12000], "trial": 6, "serialpos": 21, "trial_type": "single-audio", "trial_index": 246, "time_elapsed": 1065566, "internal_node_id": "0.0-183.0"}}, {"uniqueid": "MTK0343:3KKG4CDWKJ53BMRQSV5Z19BBJ1G49N", "current_trial": 247, "dateTime": 1510728394384, "trialdata": {"rt": -1000, "stimulus": "/static/audio/wordpool/SPIDER.wav", "key_press": -1, "type": "PRES_AUD", "word": "spider", "wordID": 1350, "conditions": [24, 800, "a", 12000], "trial": 6, "serialpos": 22, "trial_type": "single-audio", "trial_index": 247, "time_elapsed": 1067200, "internal_node_id": "0.0-184.0"}}, {"uniqueid": "MTK0343:3KKG4CDWKJ53BMRQSV5Z19BBJ1G49N", "current_trial": 248, "dateTime": 1510728396311, "trialdata": {"rt": -1000, "stimulus": "/static/audio/wordpool/PUDDING.wav", "key_press": -1, "type": "PRES_AUD", "word": "pudding", "wordID": 1138, "conditions": [24, 800, "a", 12000], "trial": 6, "serialpos": 23, "trial_type": "single-audio", "trial_index": 248, "time_elapsed": 1069126, "internal_node_id": "0.0-185.0"}}, {"uniqueid": "MTK0343:3KKG4CDWKJ53BMRQSV5Z19BBJ1G49N", "current_trial": 249, "dateTime": 1510728397605, "trialdata": {"rt": -1, "stimulus": "", "key_press": -1, "type": "PRE_RECALL_DELAY", "trial_type": "single-stim", "trial_index": 249, "time_elapsed": 1070420, "internal_node_id": "0.0-186.0-0.0"}}, {"uniqueid": "MTK0343:3KKG4CDWKJ53BMRQSV5Z19BBJ1G49N", "current_trial": 250, "dateTime": 1510728398111, "trialdata": {"rt": -1000, "stimulus": "/static/audio/400Hz.wav", "key_press": -1, "type": "PRE_RECALL_ALERT", "trial_type": "single-audio", "trial_index": 250, "time_elapsed": 1070927, "internal_node_id": "0.0-187.0"}}, {"uniqueid": "MTK0343:3KKG4CDWKJ53BMRQSV5Z19BBJ1G49N", "current_trial": 251, "dateTime": 1510728458133, "trialdata": {"rt": [4997, 8751, 10806, 22029, 26389, 33025, 37193, 43190, 48514], "recwords": ["pudding", "hostess", "lake", "apple", "grape", "freckle", "wasp", "mailman", "elbow"], "type": "FREE_RECALL", "conditions": [24, 800, "a", 12000], "trial": 6, "trial_type": "free-recall", "trial_index": 251, "time_elapsed": 1130936, "internal_node_id": "0.0-188.0-0.0"}}, {"uniqueid": "MTK0343:3KKG4CDWKJ53BMRQSV5Z19BBJ1G49N", "current_trial": 252, "dateTime": 1510728461149, "trialdata": {"rt": 1014, "key_press": 32, "type": "INSTRUCTIONS", "trial_type": "text", "trial_index": 252, "time_elapsed": 1133965, "internal_node_id": "0.0-189.0"}}, {"uniqueid": "MTK0343:3KKG4CDWKJ53BMRQSV5Z19BBJ1G49N", "current_trial": 253, "dateTime": 1510728475160, "trialdata": {"rt": [6454], "responses": ["14"], "num1": [2, 3], "num2": [3, 5], "num3": [9, 6], "type": "DISTRACTOR", "conditions": [12, 1600, "a", 12000], "trial": 7, "trial_type": "math-distractor", "trial_index": 253, "time_elapsed": 1147976, "internal_node_id": "0.0-190.0"}}, {"uniqueid": "MTK0343:3KKG4CDWKJ53BMRQSV5Z19BBJ1G49N", "current_trial": 254, "dateTime": 1510728478166, "trialdata": {"rt": -1, "stimulus": "<p id=\"stim\">10</p>", "key_press": -1, "trial_type": "single-stim", "trial_index": 254, "time_elapsed": 1150981, "internal_node_id": "0.0-191.0-0.0"}}, {"uniqueid": "MTK0343:3KKG4CDWKJ53BMRQSV5Z19BBJ1G49N", "current_trial": 255, "dateTime": 1510728479172, "trialdata": {"rt": -1, "stimulus": "<p id=\"stim\">9</p>", "key_press": -1, "trial_type": "single-stim", "trial_index": 255, "time_elapsed": 1151988, "internal_node_id": "0.0-191.0-1.0"}}, {"uniqueid": "MTK0343:3KKG4CDWKJ53BMRQSV5Z19BBJ1G49N", "current_trial": 256, "dateTime": 1510728480176, "trialdata": {"rt": -1, "stimulus": "<p id=\"stim\">8</p>", "key_press": -1, "trial_type": "single-stim", "trial_index": 256, "time_elapsed": 1152992, "internal_node_id": "0.0-191.0-2.0"}}, {"uniqueid": "MTK0343:3KKG4CDWKJ53BMRQSV5Z19BBJ1G49N", "current_trial": 257, "dateTime": 1510728481179, "trialdata": {"rt": -1, "stimulus": "<p id=\"stim\">7</p>", "key_press": -1, "trial_type": "single-stim", "trial_index": 257, "time_elapsed": 1153995, "internal_node_id": "0.0-191.0-3.0"}}, {"uniqueid": "MTK0343:3KKG4CDWKJ53BMRQSV5Z19BBJ1G49N", "current_trial": 258, "dateTime": 1510728482183, "trialdata": {"rt": -1, "stimulus": "<p id=\"stim\">6</p>", "key_press": -1, "trial_type": "single-stim", "trial_index": 258, "time_elapsed": 1154999, "internal_node_id": "0.0-191.0-4.0"}}, {"uniqueid": "MTK0343:3KKG4CDWKJ53BMRQSV5Z19BBJ1G49N", "current_trial": 259, "dateTime": 1510728483187, "trialdata": {"rt": -1, "stimulus": "<p id=\"stim\">5</p>", "key_press": -1, "trial_type": "single-stim", "trial_index": 259, "time_elapsed": 1156003, "internal_node_id": "0.0-191.0-5.0"}}, {"uniqueid": "MTK0343:3KKG4CDWKJ53BMRQSV5Z19BBJ1G49N", "current_trial": 260, "dateTime": 1510728484193, "trialdata": {"rt": -1, "stimulus": "<p id=\"stim\">4</p>", "key_press": -1, "trial_type": "single-stim", "trial_index": 260, "time_elapsed": 1157009, "internal_node_id": "0.0-191.0-6.0"}}, {"uniqueid": "MTK0343:3KKG4CDWKJ53BMRQSV5Z19BBJ1G49N", "current_trial": 261, "dateTime": 1510728485196, "trialdata": {"rt": -1, "stimulus": "<p id=\"stim\">3</p>", "key_press": -1, "trial_type": "single-stim", "trial_index": 261, "time_elapsed": 1158012, "internal_node_id": "0.0-191.0-7.0"}}, {"uniqueid": "MTK0343:3KKG4CDWKJ53BMRQSV5Z19BBJ1G49N", "current_trial": 262, "dateTime": 1510728486199, "trialdata": {"rt": -1, "stimulus": "<p id=\"stim\">2</p>", "key_press": -1, "trial_type": "single-stim", "trial_index": 262, "time_elapsed": 1159015, "internal_node_id": "0.0-191.0-8.0"}}, {"uniqueid": "MTK0343:3KKG4CDWKJ53BMRQSV5Z19BBJ1G49N", "current_trial": 263, "dateTime": 1510728487203, "trialdata": {"rt": -1, "stimulus": "<p id=\"stim\">1</p>", "key_press": -1, "trial_type": "single-stim", "trial_index": 263, "time_elapsed": 1160019, "internal_node_id": "0.0-191.0-9.0"}}, {"uniqueid": "MTK0343:3KKG4CDWKJ53BMRQSV5Z19BBJ1G49N", "current_trial": 264, "dateTime": 1510728488708, "trialdata": {"rt": -1, "stimulus": "<p id=\"stim\">+</p>", "key_press": -1, "type": "FIXATION", "trial_type": "single-stim", "trial_index": 264, "time_elapsed": 1161524, "internal_node_id": "0.0-192.0-0.0"}}, {"uniqueid": "MTK0343:3KKG4CDWKJ53BMRQSV5Z19BBJ1G49N", "current_trial": 265, "dateTime": 1510728491422, "trialdata": {"rt": -1000, "stimulus": "/static/audio/wordpool/VIKING.wav", "key_press": -1, "type": "PRES_AUD", "word": "viking", "wordID": 1564, "conditions": [12, 1600, "a", 12000], "trial": 7, "serialpos": 0, "trial_type": "single-audio", "trial_index": 265, "time_elapsed": 1164237, "internal_node_id": "0.0-193.0"}}, {"uniqueid": "MTK0343:3KKG4CDWKJ53BMRQSV5Z19BBJ1G49N", "current_trial": 266, "dateTime": 1510728494010, "trialdata": {"rt": -1000, "stimulus": "/static/audio/wordpool/ACTRESS.wav", "key_press": -1, "type": "PRES_AUD", "word": "actress", "wordID": 5, "conditions": [12, 1600, "a", 12000], "trial": 7, "serialpos": 1, "trial_type": "single-audio", "trial_index": 266, "time_elapsed": 1166826, "internal_node_id": "0.0-194.0"}}, {"uniqueid": "MTK0343:3KKG4CDWKJ53BMRQSV5Z19BBJ1G49N", "current_trial": 267, "dateTime": 1510728496577, "trialdata": {"rt": -1000, "stimulus": "/static/audio/wordpool/NIGHTGOWN.wav", "key_press": -1, "type": "PRES_AUD", "word": "nightgown", "wordID": 952, "conditions": [12, 1600, "a", 12000], "trial": 7, "serialpos": 2, "trial_type": "single-audio", "trial_index": 267, "time_elapsed": 1169392, "internal_node_id": "0.0-195.0"}}, {"uniqueid": "MTK0343:3KKG4CDWKJ53BMRQSV5Z19BBJ1G49N", "current_trial": 268, "dateTime": 1510728499076, "trialdata": {"rt": -1000, "stimulus": "/static/audio/wordpool/INMATE.wav", "key_press": -1, "type": "PRES_AUD", "word": "inmate", "wordID": 737, "conditions": [12, 1600, "a", 12000], "trial": 7, "serialpos": 3, "trial_type": "single-audio", "trial_index": 268, "time_elapsed": 1171892, "internal_node_id": "0.0-196.0"}}, {"uniqueid": "MTK0343:3KKG4CDWKJ53BMRQSV5Z19BBJ1G49N", "current_trial": 269, "dateTime": 1510728501549, "trialdata": {"rt": -1000, "stimulus": "/static/audio/wordpool/PATIENT.wav", "key_press": -1, "type": "PRES_AUD", "word": "patient", "wordID": 1023, "conditions": [12, 1600, "a", 12000], "trial": 7, "serialpos": 4, "trial_type": "single-audio", "trial_index": 269, "time_elapsed": 1174365, "internal_node_id": "0.0-197.0"}}, {"uniqueid": "MTK0343:3KKG4CDWKJ53BMRQSV5Z19BBJ1G49N", "current_trial": 270, "dateTime": 1510728504189, "trialdata": {"rt": -1000, "stimulus": "/static/audio/wordpool/COOK.wav", "key_press": -1, "type": "PRES_AUD", "word": "cook", "wordID": 371, "conditions": [12, 1600, "a", 12000], "trial": 7, "serialpos": 5, "trial_type": "single-audio", "trial_index": 270, "time_elapsed": 1177005, "internal_node_id": "0.0-198.0"}}, {"uniqueid": "MTK0343:3KKG4CDWKJ53BMRQSV5Z19BBJ1G49N", "current_trial": 271, "dateTime": 1510728506786, "trialdata": {"rt": -1000, "stimulus": "/static/audio/wordpool/SODA.wav", "key_press": -1, "type": "PRES_AUD", "word": "soda", "wordID": 1340, "conditions": [12, 1600, "a", 12000], "trial": 7, "serialpos": 6, "trial_type": "single-audio", "trial_index": 271, "time_elapsed": 1179601, "internal_node_id": "0.0-199.0"}}, {"uniqueid": "MTK0343:3KKG4CDWKJ53BMRQSV5Z19BBJ1G49N", "current_trial": 272, "dateTime": 1510728509210, "trialdata": {"rt": -1000, "stimulus": "/static/audio/wordpool/COFFEE.wav", "key_press": -1, "type": "PRES_AUD", "word": "coffee", "wordID": 340, "conditions": [12, 1600, "a", 12000], "trial": 7, "serialpos": 7, "trial_type": "single-audio", "trial_index": 272, "time_elapsed": 1182026, "internal_node_id": "0.0-200.0"}}, {"uniqueid": "MTK0343:3KKG4CDWKJ53BMRQSV5Z19BBJ1G49N", "current_trial": 273, "dateTime": 1510728511859, "trialdata": {"rt": -1000, "stimulus": "/static/audio/wordpool/POWDER.wav", "key_press": -1, "type": "PRES_AUD", "word": "powder", "wordID": 1116, "conditions": [12, 1600