{"condition": 0, "counterbalance": 660, "assignmentId": "3X65QVEQI1U17S5EA7E7PGEUCH7LCQ", "workerId": "MTK0445", "hitId": "30IRMPJWDZQS64ELH2NZAR4H9QRRKC", "currenttrial": 626, "bonus": 0, "data": [{"uniqueid": "MTK0445:3X65QVEQI1U17S5EA7E7PGEUCH7LCQ", "current_trial": 0, "dateTime": 1510879705918, "trialdata": {"rt": 10251, "key_press": 32, "type": "INSTRUCTIONS", "trial_type": "text", "trial_index": 0, "time_elapsed": 10256, "internal_node_id": "0.0-0.0"}}, {"uniqueid": "MTK0445:3X65QVEQI1U17S5EA7E7PGEUCH7LCQ", "current_trial": 1, "dateTime": 1510879732525, "trialdata": {"rt": 26599, "key_press": 32, "type": "INSTRUCTIONS", "trial_type": "text", "trial_index": 1, "time_elapsed": 36863, "internal_node_id": "0.0-1.0"}}, {"uniqueid": "MTK0445:3X65QVEQI1U17S5EA7E7PGEUCH7LCQ", "current_trial": 2, "dateTime": 1510879749368, "trialdata": {"rt": [16808], "responses": ["ocean"], "type": "AUDIO_TEST", "trial_type": "audio-test", "trial_index": 2, "time_elapsed": 53706, "internal_node_id": "0.0-2.0"}}, {"uniqueid": "MTK0445:3X65QVEQI1U17S5EA7E7PGEUCH7LCQ", "current_trial": 3, "dateTime": 1510879759513, "trialdata": {"rt": [10121], "responses": ["crystal"], "type": "AUDIO_TEST", "trial_type": "audio-test", "trial_index": 3, "time_elapsed": 63852, "internal_node_id": "0.0-3.0"}}, {"uniqueid": "MTK0445:3X65QVEQI1U17S5EA7E7PGEUCH7LCQ", "current_trial": 4, "dateTime": 1510879772944, "trialdata": {"rt": [13418], "responses": ["spice"], "type": "AUDIO_TEST", "trial_type": "audio-test", "trial_index": 4, "time_elapsed": 77283, "internal_node_id": "0.0-4.0"}}, {"uniqueid": "MTK0445:3X65QVEQI1U17S5EA7E7PGEUCH7LCQ", "current_trial": 5, "dateTime": 1510879792828, "trialdata": {"rt": 19127, "responses": "{\"Q0\":\"11\",\"Q1\":\"6\",\"Q2\":\"5\"}", "type": "SLEEP_SURVEY", "trial_type": "survey-text", "trial_index": 5, "time_elapsed": 97166, "internal_node_id": "0.0-5.0"}}, {"uniqueid": "MTK0445:3X65QVEQI1U17S5EA7E7PGEUCH7LCQ", "current_trial": 6, "dateTime": 1510879870219, "trialdata": {"rt": 76386, "key_press": 32, "type": "INSTRUCTIONS", "trial_type": "text", "trial_index": 6, "time_elapsed": 174558, "internal_node_id": "0.0-6.0"}}, {"uniqueid": "MTK0445:3X65QVEQI1U17S5EA7E7PGEUCH7LCQ", "current_trial": 7, "dateTime": 1510879887122, "trialdata": {"rt": 16398, "key_press": 32, "type": "INSTRUCTIONS", "trial_type": "text", "trial_index": 7, "time_elapsed": 191461, "internal_node_id": "0.0-7.0"}}, {"uniqueid": "MTK0445:3X65QVEQI1U17S5EA7E7PGEUCH7LCQ", "current_trial": 8, "dateTime": 1510879891728, "trialdata": {"rt": 4103, "key_press": 32, "type": "INSTRUCTIONS", "trial_type": "text", "trial_index": 8, "time_elapsed": 196067, "internal_node_id": "0.0-8.0"}}, {"uniqueid": "MTK0445:3X65QVEQI1U17S5EA7E7PGEUCH7LCQ", "current_trial": 9, "dateTime": 1510879910760, "trialdata": {"rt": [], "responses": [], "num1": [5], "num2": [9], "num3": [6], "type": "DISTRACTOR", "conditions": [18, 1200, "a", 18000], "trial": 0, "trial_type": "math-distractor", "trial_index": 9, "time_elapsed": 215099, "internal_node_id": "0.0-9.0"}}, {"uniqueid": "MTK0445:3X65QVEQI1U17S5EA7E7PGEUCH7LCQ", "current_trial": 10, "dateTime": 1510879913772, "trialdata": {"rt": -1, "stimulus": "<p id=\"stim\">10</p>", "key_press": -1, "trial_type": "single-stim", "trial_index": 10, "time_elapsed": 218111, "internal_node_id": "0.0-10.0-0.0"}}, {"uniqueid": "MTK0445:3X65QVEQI1U17S5EA7E7PGEUCH7LCQ", "current_trial": 11, "dateTime": 1510879914779, "trialdata": {"rt": -1, "stimulus": "<p id=\"stim\">9</p>", "key_press": -1, "trial_type": "single-stim", "trial_index": 11, "time_elapsed": 219118, "internal_node_id": "0.0-10.0-1.0"}}, {"uniqueid": "MTK0445:3X65QVEQI1U17S5EA7E7PGEUCH7LCQ", "current_trial": 12, "dateTime": 1510879915781, "trialdata": {"rt": -1, "stimulus": "<p id=\"stim\">8</p>", "key_press": -1, "trial_type": "single-stim", "trial_index": 12, "time_elapsed": 220120, "internal_node_id": "0.0-10.0-2.0"}}, {"uniqueid": "MTK0445:3X65QVEQI1U17S5EA7E7PGEUCH7LCQ", "current_trial": 13, "dateTime": 1510879916789, "trialdata": {"rt": -1, "stimulus": "<p id=\"stim\">7</p>", "key_press": -1, "trial_type": "single-stim", "trial_index": 13, "time_elapsed": 221128, "internal_node_id": "0.0-10.0-3.0"}}, {"uniqueid": "MTK0445:3X65QVEQI1U17S5EA7E7PGEUCH7LCQ", "current_trial": 14, "dateTime": 1510879917793, "trialdata": {"rt": -1, "stimulus": "<p id=\"stim\">6</p>", "key_press": -1, "trial_type": "single-stim", "trial_index": 14, "time_elapsed": 222131, "internal_node_id": "0.0-10.0-4.0"}}, {"uniqueid": "MTK0445:3X65QVEQI1U17S5EA7E7PGEUCH7LCQ", "current_trial": 15, "dateTime": 1510879918796, "trialdata": {"rt": -1, "stimulus": "<p id=\"stim\">5</p>", "key_press": -1, "trial_type": "single-stim", "trial_index": 15, "time_elapsed": 223135, "internal_node_id": "0.0-10.0-5.0"}}, {"uniqueid": "MTK0445:3X65QVEQI1U17S5EA7E7PGEUCH7LCQ", "current_trial": 16, "dateTime": 1510879919800, "trialdata": {"rt": -1, "stimulus": "<p id=\"stim\">4</p>", "key_press": -1, "trial_type": "single-stim", "trial_index": 16, "time_elapsed": 224139, "internal_node_id": "0.0-10.0-6.0"}}, {"uniqueid": "MTK0445:3X65QVEQI1U17S5EA7E7PGEUCH7LCQ", "current_trial": 17, "dateTime": 1510879920808, "trialdata": {"rt": -1, "stimulus": "<p id=\"stim\">3</p>", "key_press": -1, "trial_type": "single-stim", "trial_index": 17, "time_elapsed": 225146, "internal_node_id": "0.0-10.0-7.0"}}, {"uniqueid": "MTK0445:3X65QVEQI1U17S5EA7E7PGEUCH7LCQ", "current_trial": 18, "dateTime": 1510879921814, "trialdata": {"rt": -1, "stimulus": "<p id=\"stim\">2</p>", "key_press": -1, "trial_type": "single-stim", "trial_index": 18, "time_elapsed": 226153, "internal_node_id": "0.0-10.0-8.0"}}, {"uniqueid": "MTK0445:3X65QVEQI1U17S5EA7E7PGEUCH7LCQ", "current_trial": 19, "dateTime": 1510879922818, "trialdata": {"rt": -1, "stimulus": "<p id=\"stim\">1</p>", "key_press": -1, "trial_type": "single-stim", "trial_index": 19, "time_elapsed": 227157, "internal_node_id": "0.0-10.0-9.0"}}, {"uniqueid": "MTK0445:3X65QVEQI1U17S5EA7E7PGEUCH7LCQ", "current_trial": 20, "dateTime": 1510879924323, "trialdata": {"rt": -1, "stimulus": "<p id=\"stim\">+</p>", "key_press": -1, "type": "FIXATION", "trial_type": "single-stim", "trial_index": 20, "time_elapsed": 228661, "internal_node_id": "0.0-11.0-0.0"}}, {"uniqueid": "MTK0445:3X65QVEQI1U17S5EA7E7PGEUCH7LCQ", "current_trial": 21, "dateTime": 1510879926347, "trialdata": {"rt": -1000, "stimulus": "/static/audio/wordpool/PICTURE.wav", "key_press": -1, "type": "PRES_AUD", "word": "picture", "wordID": 1060, "conditions": [18, 1200, "a", 18000], "trial": 0, "serialpos": 0, "trial_type": "single-audio", "trial_index": 21, "time_elapsed": 230686, "internal_node_id": "0.0-12.0"}}, {"uniqueid": "MTK0445:3X65QVEQI1U17S5EA7E7PGEUCH7LCQ", "current_trial": 22, "dateTime": 1510879928681, "trialdata": {"rt": -1000, "stimulus": "/static/audio/wordpool/HOUND.wav", "key_press": -1, "type": "PRES_AUD", "word": "hound", "wordID": 723, "conditions": [18, 1200, "a", 18000], "trial": 0, "serialpos": 1, "trial_type": "single-audio", "trial_index": 22, "time_elapsed": 233019, "internal_node_id": "0.0-13.0"}}, {"uniqueid": "MTK0445:3X65QVEQI1U17S5EA7E7PGEUCH7LCQ", "current_trial": 23, "dateTime": 1510879930760, "trialdata": {"rt": -1000, "stimulus": "/static/audio/wordpool/AIRPLANE.wav", "key_press": -1, "type": "PRES_AUD", "word": "airplane", "wordID": 11, "conditions": [18, 1200, "a", 18000], "trial": 0, "serialpos": 2, "trial_type": "single-audio", "trial_index": 23, "time_elapsed": 235099, "internal_node_id": "0.0-14.0"}}, {"uniqueid": "MTK0445:3X65QVEQI1U17S5EA7E7PGEUCH7LCQ", "current_trial": 24, "dateTime": 1510879932946, "trialdata": {"rt": -1000, "stimulus": "/static/audio/wordpool/PIGMENT.wav", "key_press": -1, "type": "PRES_AUD", "word": "pigment", "wordID": 1065, "conditions": [18, 1200, "a", 18000], "trial": 0, "serialpos": 3, "trial_type": "single-audio", "trial_index": 24, "time_elapsed": 237285, "internal_node_id": "0.0-15.0"}}, {"uniqueid": "MTK0445:3X65QVEQI1U17S5EA7E7PGEUCH7LCQ", "current_trial": 25, "dateTime": 1510879935016, "trialdata": {"rt": -1000, "stimulus": "/static/audio/wordpool/MISSILE.wav", "key_press": -1, "type": "PRES_AUD", "word": "missile", "wordID": 899, "conditions": [18, 1200, "a", 18000], "trial": 0, "serialpos": 4, "trial_type": "single-audio", "trial_index": 25, "time_elapsed": 239355, "internal_node_id": "0.0-16.0"}}, {"uniqueid": "MTK0445:3X65QVEQI1U17S5EA7E7PGEUCH7LCQ", "current_trial": 26, "dateTime": 1510879937115, "trialdata": {"rt": -1000, "stimulus": "/static/audio/wordpool/SKIRT.wav", "key_press": -1, "type": "PRES_AUD", "word": "skirt", "wordID": 1318, "conditions": [18, 1200, "a", 18000], "trial": 0, "serialpos": 5, "trial_type": "single-audio", "trial_index": 26, "time_elapsed": 241454, "internal_node_id": "0.0-17.0"}}, {"uniqueid": "MTK0445:3X65QVEQI1U17S5EA7E7PGEUCH7LCQ", "current_trial": 27, "dateTime": 1510879939393, "trialdata": {"rt": -1000, "stimulus": "/static/audio/wordpool/CRATER.wav", "key_press": -1, "type": "PRES_AUD", "word": "crater", "wordID": 399, "conditions": [18, 1200, "a", 18000], "trial": 0, "serialpos": 6, "trial_type": "single-audio", "trial_index": 27, "time_elapsed": 243732, "internal_node_id": "0.0-18.0"}}, {"uniqueid": "MTK0445:3X65QVEQI1U17S5EA7E7PGEUCH7LCQ", "current_trial": 28, "dateTime": 1510879941616, "trialdata": {"rt": -1000, "stimulus": "/static/audio/wordpool/VICTIM.wav", "key_press": -1, "type": "PRES_AUD", "word": "victim", "wordID": 1561, "conditions": [18, 1200, "a", 18000], "trial": 0, "serialpos": 7, "trial_type": "single-audio", "trial_index": 28, "time_elapsed": 245955, "internal_node_id": "0.0-19.0"}}, {"uniqueid": "MTK0445:3X65QVEQI1U17S5EA7E7PGEUCH7LCQ", "current_trial": 29, "dateTime": 1510879943750, "trialdata": {"rt": -1000, "stimulus": "/static/audio/wordpool/SWITCH.wav", "key_press": -1, "type": "PRES_AUD", "word": "switch", "wordID": 1421, "conditions": [18, 1200, "a", 18000], "trial": 0, "serialpos": 8, "trial_type": "single-audio", "trial_index": 29, "time_elapsed": 248089, "internal_node_id": "0.0-20.0"}}, {"uniqueid": "MTK0445:3X65QVEQI1U17S5EA7E7PGEUCH7LCQ", "current_trial": 30, "dateTime": 1510879946057, "trialdata": {"rt": -1000, "stimulus": "/static/audio/wordpool/LABEL.wav", "key_press": -1, "type": "PRES_AUD", "word": "label", "wordID": 789, "conditions": [18, 1200, "a", 18000], "trial": 0, "serialpos": 9, "trial_type": "single-audio", "trial_index": 30, "time_elapsed": 250396, "internal_node_id": "0.0-21.0"}}, {"uniqueid": "MTK0445:3X65QVEQI1U17S5EA7E7PGEUCH7LCQ", "current_trial": 31, "dateTime": 1510879948330, "trialdata": {"rt": -1000, "stimulus": "/static/audio/wordpool/TOMBSTONE.wav", "key_press": -1, "type": "PRES_AUD", "word": "tombstone", "wordID": 1477, "conditions": [18, 1200, "a", 18000], "trial": 0, "serialpos": 10, "trial_type": "single-audio", "trial_index": 31, "time_elapsed": 252669, "internal_node_id": "0.0-22.0"}}, {"uniqueid": "MTK0445:3X65QVEQI1U17S5EA7E7PGEUCH7LCQ", "current_trial": 32, "dateTime": 1510879950681, "trialdata": {"rt": -1000, "stimulus": "/static/audio/wordpool/CHILD.wav", "key_press": -1, "type": "PRES_AUD", "word": "child", "wordID": 298, "conditions": [18, 1200, "a", 18000], "trial": 0, "serialpos": 11, "trial_type": "single-audio", "trial_index": 32, "time_elapsed": 255019, "internal_node_id": "0.0-23.0"}}, {"uniqueid": "MTK0445:3X65QVEQI1U17S5EA7E7PGEUCH7LCQ", "current_trial": 33, "dateTime": 1510879953024, "trialdata": {"rt": -1000, "stimulus": "/static/audio/wordpool/PLATE.wav", "key_press": -1, "type": "PRES_AUD", "word": "plate", "wordID": 1085, "conditions": [18, 1200, "a", 18000], "trial": 0, "serialpos": 12, "trial_type": "single-audio", "trial_index": 33, "time_elapsed": 257363, "internal_node_id": "0.0-24.0"}}, {"uniqueid": "MTK0445:3X65QVEQI1U17S5EA7E7PGEUCH7LCQ", "current_trial": 34, "dateTime": 1510879955185, "trialdata": {"rt": -1000, "stimulus": "/static/audio/wordpool/GYMNAST.wav", "key_press": -1, "type": "PRES_AUD", "word": "gymnast", "wordID": 674, "conditions": [18, 1200, "a", 18000], "trial": 0, "serialpos": 13, "trial_type": "single-audio", "trial_index": 34, "time_elapsed": 259524, "internal_node_id": "0.0-25.0"}}, {"uniqueid": "MTK0445:3X65QVEQI1U17S5EA7E7PGEUCH7LCQ", "current_trial": 35, "dateTime": 1510879957547, "trialdata": {"rt": -1000, "stimulus": "/static/audio/wordpool/CURTAIN.wav", "key_press": -1, "type": "PRES_AUD", "word": "curtain", "wordID": 426, "conditions": [18, 1200, "a", 18000], "trial": 0, "serialpos": 14, "trial_type": "single-audio", "trial_index": 35, "time_elapsed": 261886, "internal_node_id": "0.0-26.0"}}, {"uniqueid": "MTK0445:3X65QVEQI1U17S5EA7E7PGEUCH7LCQ", "current_trial": 36, "dateTime": 1510879959862, "trialdata": {"rt": -1000, "stimulus": "/static/audio/wordpool/FRANCE.wav", "key_press": -1, "type": "PRES_AUD", "word": "france", "wordID": 600, "conditions": [18, 1200, "a", 18000], "trial": 0, "serialpos": 15, "trial_type": "single-audio", "trial_index": 36, "time_elapsed": 264201, "internal_node_id": "0.0-27.0"}}, {"uniqueid": "MTK0445:3X65QVEQI1U17S5EA7E7PGEUCH7LCQ", "current_trial": 37, "dateTime": 1510879962235, "trialdata": {"rt": -1000, "stimulus": "/static/audio/wordpool/TROMBONE.wav", "key_press": -1, "type": "PRES_AUD", "word": "trombone", "wordID": 1507, "conditions": [18, 1200, "a", 18000], "trial": 0, "serialpos": 16, "trial_type": "single-audio", "trial_index": 37, "time_elapsed": 266573, "internal_node_id": "0.0-28.0"}}, {"uniqueid": "MTK0445:3X65QVEQI1U17S5EA7E7PGEUCH7LCQ", "current_trial": 38, "dateTime": 1510879964471, "trialdata": {"rt": -1000, "stimulus": "/static/audio/wordpool/BUBBLE.wav", "key_press": -1, "type": "PRES_AUD", "word": "bubble", "wordID": 182, "conditions": [18, 1200, "a", 18000], "trial": 0, "serialpos": 17, "trial_type": "single-audio", "trial_index": 38, "time_elapsed": 268808, "internal_node_id": "0.0-29.0"}}, {"uniqueid": "MTK0445:3X65QVEQI1U17S5EA7E7PGEUCH7LCQ", "current_trial": 39, "dateTime": 1510879965847, "trialdata": {"rt": -1, "stimulus": "", "key_press": -1, "type": "PRE_RECALL_DELAY", "trial_type": "single-stim", "trial_index": 39, "time_elapsed": 270185, "internal_node_id": "0.0-30.0-0.0"}}, {"uniqueid": "MTK0445:3X65QVEQI1U17S5EA7E7PGEUCH7LCQ", "current_trial": 40, "dateTime": 1510879966349, "trialdata": {"rt": -1000, "stimulus": "/static/audio/400Hz.wav", "key_press": -1, "type": "PRE_RECALL_ALERT", "trial_type": "single-audio", "trial_index": 40, "time_elapsed": 270688, "internal_node_id": "0.0-31.0"}}, {"uniqueid": "MTK0445:3X65QVEQI1U17S5EA7E7PGEUCH7LCQ", "current_trial": 41, "dateTime": 1510880026361, "trialdata": {"rt": [9859, 10125, 15195, 15452, 20888, 31299, 38202, 38447, 42400, 53402, 53657, 57693, 59156], "recwords": ["gymnist", "", "trumbone", "", "bubble", "tombstone", "victim", "", "switch", "lable", "", "freighter", ""], "type": "FREE_RECALL", "conditions": [18, 1200, "a", 18000], "trial": 0, "trial_type": "free-recall", "trial_index": 41, "time_elapsed": 330695, "internal_node_id": "0.0-32.0-0.0"}}, {"uniqueid": "MTK0445:3X65QVEQI1U17S5EA7E7PGEUCH7LCQ", "current_trial": 42, "dateTime": 1510880028764, "trialdata": {"rt": 401, "key_press": 84, "type": "INSTRUCTIONS", "trial_type": "text", "trial_index": 42, "time_elapsed": 333103, "internal_node_id": "0.0-33.0"}}, {"uniqueid": "MTK0445:3X65QVEQI1U17S5EA7E7PGEUCH7LCQ", "current_trial": 43, "dateTime": 1510880048775, "trialdata": {"rt": [], "responses": [], "num1": [1], "num2": [8], "num3": [2], "type": "DISTRACTOR", "conditions": [18, 1200, "v", 18000], "trial": 1, "trial_type": "math-distractor", "trial_index": 43, "time_elapsed": 353114, "internal_node_id": "0.0-34.0"}}, {"uniqueid": "MTK0445:3X65QVEQI1U17S5EA7E7PGEUCH7LCQ", "current_trial": 44, "dateTime": 1510880051783, "trialdata": {"rt": -1, "stimulus": "<p id=\"stim\">10</p>", "key_press": -1, "trial_type": "single-stim", "trial_index": 44, "time_elapsed": 356122, "internal_node_id": "0.0-35.0-0.0"}}, {"uniqueid": "MTK0445:3X65QVEQI1U17S5EA7E7PGEUCH7LCQ", "current_trial": 45, "dateTime": 1510880052785, "trialdata": {"rt": -1, "stimulus": "<p id=\"stim\">9</p>", "key_press": -1, "trial_type": "single-stim", "trial_index": 45, "time_elapsed": 357124, "internal_node_id": "0.0-35.0-1.0"}}, {"uniqueid": "MTK0445:3X65QVEQI1U17S5EA7E7PGEUCH7LCQ", "current_trial": 46, "dateTime": 1510880053787, "trialdata": {"rt": -1, "stimulus": "<p id=\"stim\">8</p>", "key_press": -1, "trial_type": "single-stim", "trial_index": 46, "time_elapsed": 358126, "internal_node_id": "0.0-35.0-2.0"}}, {"uniqueid": "MTK0445:3X65QVEQI1U17S5EA7E7PGEUCH7LCQ", "current_trial": 47, "dateTime": 1510880054789, "trialdata": {"rt": -1, "stimulus": "<p id=\"stim\">7</p>", "key_press": -1, "trial_type": "single-stim", "trial_index": 47, "time_elapsed": 359127, "internal_node_id": "0.0-35.0-3.0"}}, {"uniqueid": "MTK0445:3X65QVEQI1U17S5EA7E7PGEUCH7LCQ", "current_trial": 48, "dateTime": 1510880055790, "trialdata": {"rt": -1, "stimulus": "<p id=\"stim\">6</p>", "key_press": -1, "trial_type": "single-stim", "trial_index": 48, "time_elapsed": 360128, "internal_node_id": "0.0-35.0-4.0"}}, {"uniqueid": "MTK0445:3X65QVEQI1U17S5EA7E7PGEUCH7LCQ", "current_trial": 49, "dateTime": 1510880056794, "trialdata": {"rt": -1, "stimulus": "<p id=\"stim\">5</p>", "key_press": -1, "trial_type": "single-stim", "trial_index": 49, "time_elapsed": 361132, "internal_node_id": "0.0-35.0-5.0"}}, {"uniqueid": "MTK0445:3X65QVEQI1U17S5EA7E7PGEUCH7LCQ", "current_trial": 50, "dateTime": 1510880057796, "trialdata": {"rt": -1, "stimulus": "<p id=\"stim\">4</p>", "key_press": -1, "trial_type": "single-stim", "trial_index": 50, "time_elapsed": 362135, "internal_node_id": "0.0-35.0-6.0"}}, {"uniqueid": "MTK0445:3X65QVEQI1U17S5EA7E7PGEUCH7LCQ", "current_trial": 51, "dateTime": 1510880058799, "trialdata": {"rt": -1, "stimulus": "<p id=\"stim\">3</p>", "key_press": -1, "trial_type": "single-stim", "trial_index": 51, "time_elapsed": 363138, "internal_node_id": "0.0-35.0-7.0"}}, {"uniqueid": "MTK0445:3X65QVEQI1U17S5EA7E7PGEUCH7LCQ", "current_trial": 52, "dateTime": 1510880059803, "trialdata": {"rt": -1, "stimulus": "<p id=\"stim\">2</p>", "key_press": -1, "trial_type": "single-stim", "trial_index": 52, "time_elapsed": 364141, "internal_node_id": "0.0-35.0-8.0"}}, {"uniqueid": "MTK0445:3X65QVEQI1U17S5EA7E7PGEUCH7LCQ", "current_trial": 53, "dateTime": 1510880060811, "trialdata": {"rt": -1, "stimulus": "<p id=\"stim\">1</p>", "key_press": -1, "trial_type": "single-stim", "trial_index": 53, "time_elapsed": 365144, "internal_node_id": "0.0-35.0-9.0"}}, {"uniqueid": "MTK0445:3X65QVEQI1U17S5EA7E7PGEUCH7LCQ", "current_trial": 54, "dateTime": 1510880062315, "trialdata": {"rt": -1, "stimulus": "<p id=\"stim\">+</p>", "key_press": -1, "type": "FIXATION", "trial_type": "single-stim", "trial_index": 54, "time_elapsed": 366653, "internal_node_id": "0.0-36.0-0.0"}}, {"uniqueid": "MTK0445:3X65QVEQI1U17S5EA7E7PGEUCH7LCQ", "current_trial": 55, "dateTime": 1510880063521, "trialdata": {"rt": -1, "stimulus": "<p id=\"stim\">WOMAN</p>", "key_press": -1, "type": "PRES_VIS", "word": "woman", "wordID": 1619, "conditions": [18, 1200, "v", 18000], "trial": 1, "serialpos": 0, "trial_type": "single-stim", "trial_index": 55, "time_elapsed": 367859, "internal_node_id": "0.0-37.0"}}, {"uniqueid": "MTK0445:3X65QVEQI1U17S5EA7E7PGEUCH7LCQ", "current_trial": 56, "dateTime": 1510880065715, "trialdata": {"rt": -1, "stimulus": "<p id=\"stim\">ROBIN</p>", "key_press": -1, "type": "PRES_VIS", "word": "robin", "wordID": 1198, "conditions": [18, 1200, "v", 18000], "trial": 1, "serialpos": 1, "trial_type": "single-stim", "trial_index": 56, "time_elapsed": 370054, "internal_node_id": "0.0-38.0"}}, {"uniqueid": "MTK0445:3X65QVEQI1U17S5EA7E7PGEUCH7LCQ", "current_trial": 57, "dateTime": 1510880067731, "trialdata": {"rt": -1, "stimulus": "<p id=\"stim\">CONCERT</p>", "key_press": -1, "type": "PRES_VIS", "word": "concert", "wordID": 359, "conditions": [18, 1200, "v", 18000], "trial": 1, "serialpos": 2, "trial_type": "single-stim", "trial_index": 57, "time_elapsed": 372070, "internal_node_id": "0.0-39.0"}}, {"uniqueid": "MTK0445:3X65QVEQI1U17S5EA7E7PGEUCH7LCQ", "current_trial": 58, "dateTime": 1510880070068, "trialdata": {"rt": -1, "stimulus": "<p id=\"stim\">MUFFIN</p>", "key_press": -1, "type": "PRES_VIS", "word": "muffin", "wordID": 928, "conditions": [18, 1200, "v", 18000], "trial": 1, "serialpos": 3, "trial_type": "single-stim", "trial_index": 58, "time_elapsed": 374406, "internal_node_id": "0.0-40.0"}}, {"uniqueid": "MTK0445:3X65QVEQI1U17S5EA7E7PGEUCH7LCQ", "current_trial": 59, "dateTime": 1510880072430, "trialdata": {"rt": -1, "stimulus": "<p id=\"stim\">JOURNAL</p>", "key_press": -1, "type": "PRES_VIS", "word": "journal", "wordID": 759, "conditions": [18, 1200, "v", 18000], "trial": 1, "serialpos": 4, "trial_type": "single-stim", "trial_index": 59, "time_elapsed": 376769, "internal_node_id": "0.0-41.0"}}, {"uniqueid": "MTK0445:3X65QVEQI1U17S5EA7E7PGEUCH7LCQ", "current_trial": 60, "dateTime": 1510880074435, "trialdata": {"rt": -1, "stimulus": "<p id=\"stim\">JELLO</p>", "key_press": -1, "type": "PRES_VIS", "word": "jello", "wordID": 753, "conditions": [18, 1200, "v", 18000], "trial": 1, "serialpos": 5, "trial_type": "single-stim", "trial_index": 60, "time_elapsed": 378773, "internal_node_id": "0.0-42.0"}}, {"uniqueid": "MTK0445:3X65QVEQI1U17S5EA7E7PGEUCH7LCQ", "current_trial": 61, "dateTime": 1510880076781, "trialdata": {"rt": -1, "stimulus": "<p id=\"stim\">CREATURE</p>", "key_press": -1, "type": "PRES_VIS", "word": "creature", "wordID": 402, "conditions": [18, 1200, "v", 18000], "trial": 1, "serialpos": 6, "trial_type": "single-stim", "trial_index": 61, "time_elapsed": 381119, "internal_node_id": "0.0-43.0"}}, {"uniqueid": "MTK0445:3X65QVEQI1U17S5EA7E7PGEUCH7LCQ", "current_trial": 62, "dateTime": 1510880079046, "trialdata": {"rt": -1, "stimulus": "<p id=\"stim\">BACKBONE</p>", "key_press": -1, "type": "PRES_VIS", "word": "backbone", "wordID": 65, "conditions": [18, 1200, "v", 18000], "trial": 1, "serialpos": 7, "trial_type": "single-stim", "trial_index": 62, "time_elapsed": 383385, "internal_node_id": "0.0-44.0"}}, {"uniqueid": "MTK0445:3X65QVEQI1U17S5EA7E7PGEUCH7LCQ", "current_trial": 63, "dateTime": 1510880081373, "trialdata": {"rt": -1, "stimulus": "<p id=\"stim\">SHOVEL</p>", "key_press": -1, "type": "PRES_VIS", "word": "shovel", "wordID": 1294, "conditions": [18, 1200, "v", 18000], "trial": 1, "serialpos": 8, "trial_type": "single-stim", "trial_index": 63, "time_elapsed": 385712, "internal_node_id": "0.0-45.0"}}, {"uniqueid": "MTK0445:3X65QVEQI1U17S5EA7E7PGEUCH7LCQ", "current_trial": 64, "dateTime": 1510880083573, "trialdata": {"rt": -1, "stimulus": "<p id=\"stim\">ICEBERG</p>", "key_press": -1, "type": "PRES_VIS", "word": "iceberg", "wordID": 730, "conditions": [18, 1200, "v", 18000], "trial": 1, "serialpos": 9, "trial_type": "single-stim", "trial_index": 64, "time_elapsed": 387912, "internal_node_id": "0.0-46.0"}}, {"uniqueid": "MTK0445:3X65QVEQI1U17S5EA7E7PGEUCH7LCQ", "current_trial": 65, "dateTime": 1510880085669, "trialdata": {"rt": -1, "stimulus": "<p id=\"stim\">ITEM</p>", "key_press": -1, "type": "PRES_VIS", "word": "item", "wordID": 745, "conditions": [18, 1200, "v", 18000], "trial": 1, "serialpos": 10, "trial_type": "single-stim", "trial_index": 65, "time_elapsed": 390007, "internal_node_id": "0.0-47.0"}}, {"uniqueid": "MTK0445:3X65QVEQI1U17S5EA7E7PGEUCH7LCQ", "current_trial": 66, "dateTime": 1510880087811, "trialdata": {"rt": -1, "stimulus": "<p id=\"stim\">SALT</p>", "key_press": -1, "type": "PRES_VIS", "word": "salt", "wordID": 1228, "conditions": [18, 1200, "v", 18000], "trial": 1, "serialpos": 11, "trial_type": "single-stim", "trial_index": 66, "time_elapsed": 392149, "internal_node_id": "0.0-48.0"}}, {"uniqueid": "MTK0445:3X65QVEQI1U17S5EA7E7PGEUCH7LCQ", "current_trial": 67, "dateTime": 1510880089997, "trialdata": {"rt": -1, "stimulus": "<p id=\"stim\">BATHTUB</p>", "key_press": -1, "type": "PRES_VIS", "word": "bathtub", "wordID": 99, "conditions": [18, 1200, "v", 18000], "trial": 1, "serialpos": 12, "trial_type": "single-stim", "trial_index": 67, "time_elapsed": 394336, "internal_node_id": "0.0-49.0"}}, {"uniqueid": "MTK0445:3X65QVEQI1U17S5EA7E7PGEUCH7LCQ", "current_trial": 68, "dateTime": 1510880092045, "trialdata": {"rt": -1, "stimulus": "<p id=\"stim\">WRENCH</p>", "key_press": -1, "type": "PRES_VIS", "word": "wrench", "wordID": 1624, "conditions": [18, 1200, "v", 18000], "trial": 1, "serialpos": 13, "trial_type": "single-stim", "trial_index": 68, "time_elapsed": 396366, "internal_node_id": "0.0-50.0"}}, {"uniqueid": "MTK0445:3X65QVEQI1U17S5EA7E7PGEUCH7LCQ", "current_trial": 69, "dateTime": 1510880094162, "trialdata": {"rt": -1, "stimulus": "<p id=\"stim\">CRITIC</p>", "key_press": -1, "type": "PRES_VIS", "word": "critic", "wordID": 409, "conditions": [18, 1200, "v", 18000], "trial": 1, "serialpos": 14, "trial_type": "single-stim", "trial_index": 69, "time_elapsed": 398501, "internal_node_id": "0.0-51.0"}}, {"uniqueid": "MTK0445:3X65QVEQI1U17S5EA7E7PGEUCH7LCQ", "current_trial": 70, "dateTime": 1510880096409, "trialdata": {"rt": -1, "stimulus": "<p id=\"stim\">LEOPARD</p>", "key_press": -1, "type": "PRES_VIS", "word": "leopard", "wordID": 811, "conditions": [18, 1200, "v", 18000], "trial": 1, "serialpos": 15, "trial_type": "single-stim", "trial_index": 70, "time_elapsed": 400747, "internal_node_id": "0.0-52.0"}}, {"uniqueid": "MTK0445:3X65QVEQI1U17S5EA7E7PGEUCH7LCQ", "current_trial": 71, "dateTime": 1510880098423, "trialdata": {"rt": -1, "stimulus": "<p id=\"stim\">SUSPECT</p>", "key_press": -1, "type": "PRES_VIS", "word": "suspect", "wordID": 1414, "conditions": [18, 1200, "v", 18000], "trial": 1, "serialpos": 16, "trial_type": "single-stim", "trial_index": 71, "time_elapsed": 402762, "internal_node_id": "0.0-53.0"}}, {"uniqueid": "MTK0445:3X65QVEQI1U17S5EA7E7PGEUCH7LCQ", "current_trial": 72, "dateTime": 1510880100712, "trialdata": {"rt": -1, "stimulus": "<p id=\"stim\">STAPLE</p>", "key_press": -1, "type": "PRES_VIS", "word": "staple", "wordID": 1370, "conditions": [18, 1200, "v", 18000], "trial": 1, "serialpos": 17, "trial_type": "single-stim", "trial_index": 72, "time_elapsed": 405051, "internal_node_id": "0.0-54.0"}}, {"uniqueid": "MTK0445:3X65QVEQI1U17S5EA7E7PGEUCH7LCQ", "current_trial": 73, "dateTime": 1510880102945, "trialdata": {"rt": -1, "stimulus": "", "key_press": -1, "type": "PRE_RECALL_DELAY", "trial_type": "single-stim", "trial_index": 73, "time_elapsed": 407283, "internal_node_id": "0.0-55.0-0.0"}}, {"uniqueid": "MTK0445:3X65QVEQI1U17S5EA7E7PGEUCH7LCQ", "current_trial": 74, "dateTime": 1510880103453, "trialdata": {"rt": -1000, "stimulus": "/static/audio/400Hz.wav", "key_press": -1, "type": "PRE_RECALL_ALERT", "trial_type": "single-audio", "trial_index": 74, "time_elapsed": 407792, "internal_node_id": "0.0-56.0"}}, {"uniqueid": "MTK0445:3X65QVEQI1U17S5EA7E7PGEUCH7LCQ", "current_trial": 75, "dateTime": 1510880163478, "trialdata": {"rt": [], "recwords": [], "type": "FREE_RECALL", "conditions": [18, 1200, "v", 18000], "trial": 1, "trial_type": "free-recall", "trial_index": 75, "time_elapsed": 467801, "internal_node_id": "0.0-57.0-0.0"}}, {"uniqueid": "MTK0445:3X65QVEQI1U17S5EA7E7PGEUCH7LCQ", "current_trial": 76, "dateTime": 1510880209543, "trialdata": {"rt": 44042, "key_press": 32, "type": "INSTRUCTIONS", "trial_type": "text", "trial_index": 76, "time_elapsed": 513862, "internal_node_id": "0.0-58.0"}}, {"uniqueid": "MTK0445:3X65QVEQI1U17S5EA7E7PGEUCH7LCQ", "current_trial": 77, "dateTime": 1510880222553, "trialdata": {"rt": [], "responses": [], "num1": [5], "num2": [4], "num3": [1], "type": "DISTRACTOR", "conditions": [12, 800, "v", 12000], "trial": 2, "trial_type": "math-distractor", "trial_index": 77, "time_elapsed": 526891, "internal_node_id": "0.0-59.0"}}, {"uniqueid": "MTK0445:3X65QVEQI1U17S5EA7E7PGEUCH7LCQ", "current_trial": 78, "dateTime": 1510880225561, "trialdata": {"rt": -1, "stimulus": "<p id=\"stim\">10</p>", "key_press": -1, "trial_type": "single-stim", "trial_index": 78, "time_elapsed": 529899, "internal_node_id": "0.0-60.0-0.0"}}, {"uniqueid": "MTK0445:3X65QVEQI1U17S5EA7E7PGEUCH7LCQ", "current_trial": 79, "dateTime": 1510880226566, "trialdata": {"rt": -1, "stimulus": "<p id=\"stim\">9</p>", "key_press": -1, "trial_type": "single-stim", "trial_index": 79, "time_elapsed": 530904, "internal_node_id": "0.0-60.0-1.0"}}, {"uniqueid": "MTK0445:3X65QVEQI1U17S5EA7E7PGEUCH7LCQ", "current_trial": 80, "dateTime": 1510880227569, "trialdata": {"rt": -1, "stimulus": "<p id=\"stim\">8</p>", "key_press": -1, "trial_type": "single-stim", "trial_index": 80, "time_elapsed": 531908, "internal_node_id": "0.0-60.0-2.0"}}, {"uniqueid": "MTK0445:3X65QVEQI1U17S5EA7E7PGEUCH7LCQ", "current_trial": 81, "dateTime": 1510880228573, "trialdata": {"rt": -1, "stimulus": "<p id=\"stim\">7</p>", "key_press": -1, "trial_type": "single-stim", "trial_index": 81, "time_elapsed": 532911, "internal_node_id": "0.0-60.0-3.0"}}, {"uniqueid": "MTK0445:3X65QVEQI1U17S5EA7E7PGEUCH7LCQ", "current_trial": 82, "dateTime": 1510880229577, "trialdata": {"rt": -1, "stimulus": "<p id=\"stim\">6</p>", "key_press": -1, "trial_type": "single-stim", "trial_index": 82, "time_elapsed": 533916, "internal_node_id": "0.0-60.0-4.0"}}, {"uniqueid": "MTK0445:3X65QVEQI1U17S5EA7E7PGEUCH7LCQ", "current_trial": 83, "dateTime": 1510880230580, "trialdata": {"rt": -1, "stimulus": "<p id=\"stim\">5</p>", "key_press": -1, "trial_type": "single-stim", "trial_index": 83, "time_elapsed": 534918, "internal_node_id": "0.0-60.0-5.0"}}, {"uniqueid": "MTK0445:3X65QVEQI1U17S5EA7E7PGEUCH7LCQ", "current_trial": 84, "dateTime": 1510880231587, "trialdata": {"rt": -1, "stimulus": "<p id=\"stim\">4</p>", "key_press": -1, "trial_type": "single-stim", "trial_index": 84, "time_elapsed": 535925, "internal_node_id": "0.0-60.0-6.0"}}, {"uniqueid": "MTK0445:3X65QVEQI1U17S5EA7E7PGEUCH7LCQ", "current_trial": 85, "dateTime": 1510880232591, "trialdata": {"rt": -1, "stimulus": "<p id=\"stim\">3</p>", "key_press": -1, "trial_type": "single-stim", "trial_index": 85, "time_elapsed": 536930, "internal_node_id": "0.0-60.0-7.0"}}, {"uniqueid": "MTK0445:3X65QVEQI1U17S5EA7E7PGEUCH7LCQ", "current_trial": 86, "dateTime": 1510880233594, "trialdata": {"rt": -1, "stimulus": "<p id=\"stim\">2</p>", "key_press": -1, "trial_type": "single-stim", "trial_index": 86, "time_elapsed": 537932, "internal_node_id": "0.0-60.0-8.0"}}, {"uniqueid": "MTK0445:3X65QVEQI1U17S5EA7E7PGEUCH7LCQ", "current_trial": 87, "dateTime": 1510880234599, "trialdata": {"rt": -1, "stimulus": "<p id=\"stim\">1</p>", "key_press": -1, "trial_type": "single-stim", "trial_index": 87, "time_elapsed": 538937, "internal_node_id": "0.0-60.0-9.0"}}, {"uniqueid": "MTK0445:3X65QVEQI1U17S5EA7E7PGEUCH7LCQ", "current_trial": 88, "dateTime": 1510880236103, "trialdata": {"rt": -1, "stimulus": "<p id=\"stim\">+</p>", "key_press": -1, "type": "FIXATION", "trial_type": "single-stim", "trial_index": 88, "time_elapsed": 540441, "internal_node_id": "0.0-61.0-0.0"}}, {"uniqueid": "MTK0445:3X65QVEQI1U17S5EA7E7PGEUCH7LCQ", "current_trial": 89, "dateTime": 1510880236906, "trialdata": {"rt": -1, "stimulus": "<p id=\"stim\">LAGOON</p>", "key_press": -1, "type": "PRES_VIS", "word": "lagoon", "wordID": 794, "conditions": [12, 800, "v", 12000], "trial": 2, "serialpos": 0, "trial_type": "single-stim", "trial_index": 89, "time_elapsed": 541245, "internal_node_id": "0.0-62.0"}}, {"uniqueid": "MTK0445:3X65QVEQI1U17S5EA7E7PGEUCH7LCQ", "current_trial": 90, "dateTime": 1510880238719, "trialdata": {"rt": -1, "stimulus": "<p id=\"stim\">SALMON</p>", "key_press": -1, "type": "PRES_VIS", "word": "salmon", "wordID": 1226, "conditions": [12, 800, "v", 12000], "trial": 2, "serialpos": 1, "trial_type": "single-stim", "trial_index": 90, "time_elapsed": 543058, "internal_node_id": "0.0-63.0"}}, {"uniqueid": "MTK0445:3X65QVEQI1U17S5EA7E7PGEUCH7LCQ", "current_trial": 91, "dateTime": 1510880240618, "trialdata": {"rt": -1, "stimulus": "<p id=\"stim\">LAKE</p>", "key_press": -1, "type": "PRES_VIS", "word": "lake", "wordID": 795, "conditions": [12, 800, "v", 12000], "trial": 2, "serialpos": 2, "trial_type": "single-stim", "trial_index": 91, "time_elapsed": 544957, "internal_node_id": "0.0-64.0"}}, {"uniqueid": "MTK0445:3X65QVEQI1U17S5EA7E7PGEUCH7LCQ", "current_trial": 92, "dateTime": 1510880242502, "trialdata": {"rt": -1, "stimulus": "<p id=\"stim\">MONSTER</p>", "key_press": -1, "type": "PRES_VIS", "word": "monster", "wordID": 911, "conditions": [12, 800, "v", 12000], "trial": 2, "serialpos": 3, "trial_type": "single-stim", "trial_index": 92, "time_elapsed": 546840, "internal_node_id": "0.0-65.0"}}, {"uniqueid": "MTK0445:3X65QVEQI1U17S5EA7E7PGEUCH7LCQ", "current_trial": 93, "dateTime": 1510880244154, "trialdata": {"rt": -1, "stimulus": "<p id=\"stim\">RUG</p>", "key_press": -1, "type": "PRES_VIS", "word": "rug", "wordID": 1214, "conditions": [12, 800, "v", 12000], "trial": 2, "serialpos": 4, "trial_type": "single-stim", "trial_index": 93, "time_elapsed": 548491, "internal_node_id": "0.0-66.0"}}, {"uniqueid": "MTK0445:3X65QVEQI1U17S5EA7E7PGEUCH7LCQ", "current_trial": 94, "dateTime": 1510880245772, "trialdata": {"rt": -1, "stimulus": "<p id=\"stim\">SERVANT</p>", "key_press": -1, "type": "PRES_VIS", "word": "servant", "wordID": 1270, "conditions": [12, 800, "v", 12000], "trial": 2, "serialpos": 5, "trial_type": "single-stim", "trial_index": 94, "time_elapsed": 550111, "internal_node_id": "0.0-67.0"}}, {"uniqueid": "MTK0445:3X65QVEQI1U17S5EA7E7PGEUCH7LCQ", "current_trial": 95, "dateTime": 1510880247770, "trialdata": {"rt": -1, "stimulus": "<p id=\"stim\">MISTER</p>", "key_press": -1, "type": "PRES_VIS", "word": "mister", "wordID": 900, "conditions": [12, 800, "v", 12000], "trial": 2, "serialpos": 6, "trial_type": "single-stim", "trial_index": 95, "time_elapsed": 552109, "internal_node_id": "0.0-68.0"}}, {"uniqueid": "MTK0445:3X65QVEQI1U17S5EA7E7PGEUCH7LCQ", "current_trial": 96, "dateTime": 1510880249751, "trialdata": {"rt": -1, "stimulus": "<p id=\"stim\">FRIEND</p>", "key_press": -1, "type": "PRES_VIS", "word": "friend", "wordID": 605, "conditions": [12, 800, "v", 12000], "trial": 2, "serialpos": 7, "trial_type": "single-stim", "trial_index": 96, "time_elapsed": 554089, "internal_node_id": "0.0-69.0"}}, {"uniqueid": "MTK0445:3X65QVEQI1U17S5EA7E7PGEUCH7LCQ", "current_trial": 97, "dateTime": 1510880251679, "trialdata": {"rt": -1, "stimulus": "<p id=\"stim\">LOVER</p>", "key_press": -1, "type": "PRES_VIS", "word": "lover", "wordID": 845, "conditions": [12, 800, "v", 12000], "trial": 2, "serialpos": 8, "trial_type": "single-stim", "trial_index": 97, "time_elapsed": 556017, "internal_node_id": "0.0-70.0"}}, {"uniqueid": "MTK0445:3X65QVEQI1U17S5EA7E7PGEUCH7LCQ", "current_trial": 98, "dateTime": 1510880253344, "trialdata": {"rt": -1, "stimulus": "<p id=\"stim\">WITNESS</p>", "key_press": -1, "type": "PRES_VIS", "word": "witness", "wordID": 1617, "conditions": [12, 800, "v", 12000], "trial": 2, "serialpos": 9, "trial_type": "single-stim", "trial_index": 98, "time_elapsed": 557683, "internal_node_id": "0.0-71.0"}}, {"uniqueid": "MTK0445:3X65QVEQI1U17S5EA7E7PGEUCH7LCQ", "current_trial": 99, "dateTime": 1510880255052, "trialdata": {"rt": -1, "stimulus": "<p id=\"stim\">GARDEN</p>", "key_press": -1, "type": "PRES_VIS", "word": "garden", "wordID": 622, "conditions": [12, 800, "v", 12000], "trial": 2, "serialpos": 10, "trial_type": "single-stim", "trial_index": 99, "time_elapsed": 559391, "internal_node_id": "0.0-72.0"}}, {"uniqueid": "MTK0445:3X65QVEQI1U17S5EA7E7PGEUCH7LCQ", "current_trial": 100, "dateTime": 1510880256910, "trialdata": {"rt": -1, "stimulus": "<p id=\"stim\">BEAST</p>", "key_press": -1, "type": "PRES_VIS", "word": "beast", "wordID": 107, "conditions": [12, 800, "v", 12000], "trial": 2, "serialpos": 11, "trial_type": "single-stim", "trial_index": 100, "time_elapsed": 561248, "internal_node_id": "0.0-73.0"}}, {"uniqueid": "MTK0445:3X65QVEQI1U17S5EA7E7PGEUCH7LCQ", "current_trial": 101, "dateTime": 1510880259044, "trialdata": {"rt": -1, "stimulus": "", "key_press": -1, "type": "PRE_RECALL_DELAY", "trial_type": "single-stim", "trial_index": 101, "time_elapsed": 563383, "internal_node_id": "0.0-74.0-0.0"}}, {"uniqueid": "MTK0445:3X65QVEQI1U17S5EA7E7PGEUCH7LCQ", "current_trial": 102, "dateTime": 1510880259558, "trialdata": {"rt": -1000, "stimulus": "/static/audio/400Hz.wav", "key_press": -1, "type": "PRE_RECALL_ALERT", "trial_type": "single-audio", "trial_index": 102, "time_elapsed": 563896, "internal_node_id": "0.0-75.0"}}, {"uniqueid": "MTK0445:3X65QVEQI1U17S5EA7E7PGEUCH7LCQ", "current_trial": 103, "dateTime": 1510880319578, "trialdata": {"rt": [10446, 15130, 20914, 25409, 28866, 30448, 37463, 43317, 54381], "recwords": ["lagoon", "monster", "beast", "friend", "lover", "", "lake", "rug", "monster"], "type": "FREE_RECALL", "conditions": [12, 800, "v", 12000], "trial": 2, "trial_type": "free-recall", "trial_index": 103, "time_elapsed": 623904, "internal_node_id": "0.0-76.0-0.0"}}, {"uniqueid": "MTK0445:3X65QVEQI1U17S5EA7E7PGEUCH7LCQ", "current_trial": 104, "dateTime": 1510880328991, "trialdata": {"rt": 7409, "key_press": 32, "type": "INSTRUCTIONS", "trial_type": "text", "trial_index": 104, "time_elapsed": 633329, "internal_node_id": "0.0-77.0"}}, {"uniqueid": "MTK0445:3X65QVEQI1U17S5EA7E7PGEUCH7LCQ", "current_trial": 105, "dateTime": 1510880355006, "trialdata": {"rt": [], "responses": [], "num1": [2], "num2": [8], "num3": [9], "type": "DISTRACTOR", "conditions": [24, 1600, "v", 24000], "trial": 3, "trial_type": "math-distractor", "trial_index": 105, "time_elapsed": 659345, "internal_node_id": "0.0-78.0"}}, {"uniqueid": "MTK0445:3X65QVEQI1U17S5EA7E7PGEUCH7LCQ", "current_trial": 106, "dateTime": 1510880358011, "trialdata": {"rt": -1, "stimulus": "<p id=\"stim\">10</p>", "key_press": -1, "trial_type": "single-stim", "trial_index": 106, "time_elapsed": 662349, "internal_node_id": "0.0-79.0-0.0"}}, {"uniqueid": "MTK0445:3X65QVEQI1U17S5EA7E7PGEUCH7LCQ", "current_trial": 107, "dateTime": 1510880359017, "trialdata": {"rt": -1, "stimulus": "<p id=\"stim\">9</p>", "key_press": -1, "trial_type": "single-stim", "trial_index": 107, "time_elapsed": 663355, "internal_node_id": "0.0-79.0-1.0"}}, {"uniqueid": "MTK0445:3X65QVEQI1U17S5EA7E7PGEUCH7LCQ", "current_trial": 108, "dateTime": 1510880360020, "trialdata": {"rt": -1, "stimulus": "<p id=\"stim\">8</p>", "key_press": -1, "trial_type": "single-stim", "trial_index": 108, "time_elapsed": 664359, "internal_node_id": "0.0-79.0-2.0"}}, {"uniqueid": "MTK0445:3X65QVEQI1U17S5EA7E7PGEUCH7LCQ", "current_trial": 109, "dateTime": 1510880361024, "trialdata": {"rt": -1, "stimulus": "<p id=\"stim\">7</p>", "key_press": -1, "trial_type": "single-stim", "trial_index": 109, "time_elapsed": 665363, "internal_node_id": "0.0-79.0-3.0"}}, {"uniqueid": "MTK0445:3X65QVEQI1U17S5EA7E7PGEUCH7LCQ", "current_trial": 110, "dateTime": 1510880362028, "trialdata": {"rt": -1, "stimulus": "<p id=\"stim\">6</p>", "key_press": -1, "trial_type": "single-stim", "trial_index": 110, "time_elapsed": 666366, "internal_node_id": "0.0-79.0-4.0"}}, {"uniqueid": "MTK0445:3X65QVEQI1U17S5EA7E7PGEUCH7LCQ", "current_trial": 111, "dateTime": 1510880363031, "trialdata": {"rt": -1, "stimulus": "<p id=\"stim\">5</p>", "key_press": -1, "trial_type": "single-stim", "trial_index": 111, "time_elapsed": 667369, "internal_node_id": "0.0-79.0-5.0"}}, {"uniqueid": "MTK0445:3X65QVEQI1U17S5EA7E7PGEUCH7LCQ", "current_trial": 112, "dateTime": 1510880364039, "trialdata": {"rt": -1, "stimulus": "<p id=\"stim\">4</p>", "key_press": -1, "trial_type": "single-stim", "trial_index": 112, "time_elapsed": 668377, "internal_node_id": "0.0-79.0-6.0"}}, {"uniqueid": "MTK0445:3X65QVEQI1U17S5EA7E7PGEUCH7LCQ", "current_trial": 113, "dateTime": 1510880365041, "trialdata": {"rt": -1, "stimulus": "<p id=\"stim\">3</p>", "key_press": -1, "trial_type": "single-stim", "trial_index": 113, "time_elapsed": 669380, "internal_node_id": "0.0-79.0-7.0"}}, {"uniqueid": "MTK0445:3X65QVEQI1U17S5EA7E7PGEUCH7LCQ", "current_trial": 114, "dateTime": 1510880366045, "trialdata": {"rt": -1, "stimulus": "<p id=\"stim\">2</p>", "key_press": -1, "trial_type": "single-stim", "trial_index": 114, "time_elapsed": 670382, "internal_node_id": "0.0-79.0-8.0"}}, {"uniqueid": "MTK0445:3X65QVEQI1U17S5EA7E7PGEUCH7LCQ", "current_trial": 115, "dateTime": 1510880367049, "trialdata": {"rt": -1, "stimulus": "<p id=\"stim\">1</p>", "key_press": -1, "trial_type": "single-stim", "trial_index": 115, "time_elapsed": 671386, "internal_node_id": "0.0-79.0-9.0"}}, {"uniqueid": "MTK0445:3X65QVEQI1U17S5EA7E7PGEUCH7LCQ", "current_trial": 116, "dateTime": 1510880368552, "trialdata": {"rt": -1, "stimulus": "<p id=\"stim\">+</p>", "key_press": -1, "type": "FIXATION", "trial_type": "single-stim", "trial_index": 116, "time_elapsed": 672890, "internal_node_id": "0.0-80.0-0.0"}}, {"uniqueid": "MTK0445:3X65QVEQI1U17S5EA7E7PGEUCH7LCQ", "current_trial": 117, "dateTime": 1510880370153, "trialdata": {"rt": -1, "stimulus": "<p id=\"stim\">SPIDER</p>", "key_press": -1, "type": "PRES_VIS", "word": "spider", "wordID": 1350, "conditions": [24, 1600, "v", 24000], "trial": 3, "serialpos": 0, "trial_type": "single-stim", "trial_index": 117, "time_elapsed": 674492, "internal_node_id": "0.0-81.0"}}, {"uniqueid": "MTK0445:3X65QVEQI1U17S5EA7E7PGEUCH7LCQ", "current_trial": 118, "dateTime": 1510880372688, "trialdata": {"rt": -1, "stimulus": "<p id=\"stim\">SAUSAGE</p>", "key_press": -1, "type": "PRES_VIS", "word": "sausage", "wordID": 1237, "conditions": [24, 1600, "v", 24000], "trial": 3, "serialpos": 1, "trial_type": "single-stim", "trial_index": 118, "time_elapsed": 677027, "internal_node_id": "0.0-82.0"}}, {"uniqueid": "MTK0445:3X65QVEQI1U17S5EA7E7PGEUCH7LCQ", "current_trial": 119, "dateTime": 1510880375413, "trialdata": {"rt": -1, "stimulus": "<p id=\"stim\">WAITRESS</p>", "key_press": -1, "type": "PRES_VIS", "word": "waitress", "wordID": 1580, "conditions": [24, 1600, "v", 24000], "trial": 3, "serialpos": 2, "trial_type": "single-stim", "trial_index": 119, "time_elapsed": 679751, "internal_node_id": "0.0-83.0"}}, {"uniqueid": "MTK0445:3X65QVEQI1U17S5EA7E7PGEUCH7LCQ", "current_trial": 120, "dateTime": 1510880378100, "trialdata": {"rt": -1, "stimulus": "<p id=\"stim\">GUITAR</p>", "key_press": -1, "type": "PRES_VIS", "word": "guitar", "wordID": 669, "conditions": [24, 1600, "v", 24000], "trial": 3, "serialpos": 3, "trial_type": "single-stim", "trial_index": 120, "time_elapsed": 682437, "internal_node_id": "0.0-84.0"}}, {"uniqueid": "MTK0445:3X65QVEQI1U17S5EA7E7PGEUCH7LCQ", "current_trial": 121, "dateTime": 1510880380528, "trialdata": {"rt": -1, "stimulus": "<p id=\"stim\">BRICK</p>", "key_press": -1, "type": "PRES_VIS", "word": "brick", "wordID": 171, "conditions": [24, 1600, "v", 24000], "trial": 3, "serialpos": 4, "trial_type": "single-stim", "trial_index": 121, "time_elapsed": 684866, "internal_node_id": "0.0-85.0"}}, {"uniqueid": "MTK0445:3X65QVEQI1U17S5EA7E7PGEUCH7LCQ", "current_trial": 122, "dateTime": 1510880383187, "trialdata": {"rt": -1, "stimulus": "<p id=\"stim\">STONE</p>", "key_press": -1, "type": "PRES_VIS", "word": "stone", "wordID": 1384, "conditions": [24, 1600, "v", 24000], "trial": 3, "serialpos": 5, "trial_type": "single-stim", "trial_index": 122, "time_elapsed": 687526, "internal_node_id": "0.0-86.0"}}, {"uniqueid": "MTK0445:3X65QVEQI1U17S5EA7E7PGEUCH7LCQ", "current_trial": 123, "dateTime": 1510880385982, "trialdata": {"rt": -1, "stimulus": "<p id=\"stim\">TILE</p>", "key_press": -1, "type": "PRES_VIS", "word": "tile", "wordID": 1467, "conditions": [24, 1600, "v", 24000], "trial": 3, "serialpos": 6, "trial_type": "single-stim", "trial_index": 123, "time_elapsed": 690321, "internal_node_id": "0.0-87.0"}}, {"uniqueid": "MTK0445:3X65QVEQI1U17S5EA7E7PGEUCH7LCQ", "current_trial": 124, "dateTime": 1510880388705, "trialdata": {"rt": -1, "stimulus": "<p id=\"stim\">CRIB</p>", "key_press": -1, "type": "PRES_VIS", "word": "crib", "wordID": 406, "conditions": [24, 1600, "v", 24000], "trial": 3, "serialpos": 7, "trial_type": "single-stim", "trial_index": 124, "time_elapsed": 693043, "internal_node_id": "0.0-88.0"}}, {"uniqueid": "MTK0445:3X65QVEQI1U17S5EA7E7PGEUCH7LCQ", "current_trial": 125, "dateTime": 1510880391312, "trialdata": {"rt": -1, "stimulus": "<p id=\"stim\">HARP</p>", "key_press": -1, "type": "PRES_VIS", "word": "harp", "wordID": 688, "conditions": [24, 1600, "v", 24000], "trial": 3, "serialpos": 8, "trial_type": "single-stim", "trial_index": 125, "time_elapsed": 695650, "internal_node_id": "0.0-89.0"}}, {"uniqueid": "MTK0445:3X65QVEQI1U17S5EA7E7PGEUCH7LCQ", "current_trial": 126, "dateTime": 1510880393998, "trialdata": {"rt": -1, "stimulus": "<p id=\"stim\">HOSTESS</p>", "key_press": -1, "type": "PRES_VIS", "word": "hostess", "wordID": 722, "conditions": [24, 1600, "v", 24000], "trial": 3, "serialpos": 9, "trial_type": "single-stim", "trial_index": 126, "time_elapsed": 698336, "internal_node_id": "0.0-90.0"}}, {"uniqueid": "MTK0445:3X65QVEQI1U17S5EA7E7PGEUCH7LCQ", "current_trial": 127, "dateTime": 1510880396786, "trialdata": {"rt": -1, "stimulus": "<p id=\"stim\">TRACTOR</p>", "key_press": -1, "type": "PRES_VIS", "word": "tractor", "wordID": 1492, "conditions": [24, 1600, "v", 24000], "trial": 3, "serialpos": 10, "trial_type": "single-stim", "trial_index": 127, "time_elapsed": 701124, "internal_node_id": "0.0-91.0"}}, {"uniqueid": "MTK0445:3X65QVEQI1U17S5EA7E7PGEUCH7LCQ", "current_trial": 128, "dateTime": 1510880399507, "trialdata": {"rt": -1, "stimulus": "<p id=\"stim\">LEG</p>", "key_press": -1, "type": "PRES_VIS", "word": "leg", "wordID": 808, "conditions": [24, 1600, "v", 24000], "trial": 3, "serialpos": 11, "trial_type": "single-stim", "trial_index": 128, "time_elapsed": 703845, "internal_node_id": "0.0-92.0"}}, {"uniqueid": "MTK0445:3X65QVEQI1U17S5EA7E7PGEUCH7LCQ", "current_trial": 129, "dateTime": 1510880401951, "trialdata": {"rt": -1, "stimulus": "<p id=\"stim\">BADGE</p>", "key_press": -1, "type": "PRES_VIS", "word": "badge", "wordID": 67, "conditions": [24, 1600, "v", 24000], "trial": 3, "serialpos": 12, "trial_type": "single-stim", "trial_index": 129, "time_elapsed": 706289, "internal_node_id": "0.0-93.0"}}, {"uniqueid": "MTK0445:3X65QVEQI1U17S5EA7E7PGEUCH7LCQ", "current_trial": 130, "dateTime": 1510880404720, "trialdata": {"rt": -1, "stimulus": "<p id=\"stim\">TAXI</p>", "key_press": -1, "type": "PRES_VIS", "word": "taxi", "wordID": 1437, "conditions": [24, 1600, "v", 24000], "trial": 3, "serialpos": 13, "trial_type": "single-stim", "trial_index": 130, "time_elapsed": 709058, "internal_node_id": "0.0-94.0"}}, {"uniqueid": "MTK0445:3X65QVEQI1U17S5EA7E7PGEUCH7LCQ", "current_trial": 131, "dateTime": 1510880407497, "trialdata": {"rt": -1, "stimulus": "<p id=\"stim\">MATTRESS</p>", "key_press": -1, "type": "PRES_VIS", "word": "mattress", "wordID": 878, "conditions": [24, 1600, "v", 24000], "trial": 3, "serialpos": 14, "trial_type": "single-stim", "trial_index": 131, "time_elapsed": 711836, "internal_node_id": "0.0-95.0"}}, {"uniqueid": "MTK0445:3X65QVEQI1U17S5EA7E7PGEUCH7LCQ", "current_trial": 132, "dateTime": 1510880410264, "trialdata": {"rt": -1, "stimulus": "<p id=\"stim\">OUTLAW</p>", "key_press": -1, "type": "PRES_VIS", "word": "outlaw", "wordID": 988, "conditions": [24, 1600, "v", 24000], "trial": 3, "serialpos": 15, "trial_type": "single-stim", "trial_index": 132, "time_elapsed": 714603, "internal_node_id": "0.0-96.0"}}, {"uniqueid": "MTK0445:3X65QVEQI1U17S5EA7E7PGEUCH7LCQ", "current_trial": 133, "dateTime": 1510880412905, "trialdata": {"rt": -1, "stimulus": "<p id=\"stim\">TUNNEL</p>", "key_press": -1, "type": "PRES_VIS", "word": "tunnel", "wordID": 1518, "conditions": [24, 1600, "v", 24000], "trial": 3, "serialpos": 16, "trial_type": "single-stim", "trial_index": 133, "time_elapsed": 717244, "internal_node_id": "0.0-97.0"}}, {"uniqueid": "MTK0445:3X65QVEQI1U17S5EA7E7PGEUCH7LCQ", "current_trial": 134, "dateTime": 1510880415502, "trialdata": {"rt": -1, "stimulus": "<p id=\"stim\">HEDGE</p>", "key_press": -1, "type": "PRES_VIS", "word": "hedge", "wordID": 698, "conditions": [24, 1600, "v", 24000], "trial": 3, "serialpos": 17, "trial_type": "single-stim", "trial_index": 134, "time_elapsed": 719841, "internal_node_id": "0.0-98.0"}}, {"uniqueid": "MTK0445:3X65QVEQI1U17S5EA7E7PGEUCH7LCQ", "current_trial": 135, "dateTime": 1510880418100, "trialdata": {"rt": -1, "stimulus": "<p id=\"stim\">PUDDLE</p>", "key_press": -1, "type": "PRES_VIS", "word": "puddle", "wordID": 1139, "conditions": [24, 1600, "v", 24000], "trial": 3, "serialpos": 18, "trial_type": "single-stim", "trial_index": 135, "time_elapsed": 722438, "internal_node_id": "0.0-99.0"}}, {"uniqueid": "MTK0445:3X65QVEQI1U17S5EA7E7PGEUCH7LCQ", "current_trial": 136, "dateTime": 1510880420715, "trialdata": {"rt": -1, "stimulus": "<p id=\"stim\">PLAID</p>", "key_press": -1, "type": "PRES_VIS", "word": "plaid", "wordID": 1079, "conditions": [24, 1600, "v", 24000], "trial": 3, "serialpos": 19, "trial_type": "single-stim", "trial_index": 136, "time_elapsed": 725052, "internal_node_id": "0.0-100.0"}}, {"uniqueid": "MTK0445:3X65QVEQI1U17S5EA7E7PGEUCH7LCQ", "current_trial": 137, "dateTime": 1510880423244, "trialdata": {"rt": -1, "stimulus": "<p id=\"stim\">VELVET</p>", "key_press": -1, "type": "PRES_VIS", "word": "velvet", "wordID": 1554, "conditions": [24, 1600, "v", 24000], "trial": 3, "serialpos": 20, "trial_type": "single-stim", "trial_index": 137, "time_elapsed": 727582, "internal_node_id": "0.0-101.0"}}, {"uniqueid": "MTK0445:3X65QVEQI1U17S5EA7E7PGEUCH7LCQ", "current_trial": 138, "dateTime": 1510880425853, "trialdata": {"rt": -1, "stimulus": "<p id=\"stim\">SHRUB</p>", "key_press": -1, "type": "PRES_VIS", "word": "shrub", "wordID": 1298, "conditions": [24, 1600, "v", 24000], "trial": 3, "serialpos": 21, "trial_type": "single-stim", "trial_index": 138, "time_elapsed": 730184, "internal_node_id": "0.0-102.0"}}, {"uniqueid": "MTK0445:3X65QVEQI1U17S5EA7E7PGEUCH7LCQ", "current_trial": 139, "dateTime": 1510880428390, "trialdata": {"rt": -1, "stimulus": "<p id=\"stim\">NOTEBOOK</p>", "key_press": -1, "type": "PRES_VIS", "word": "notebook", "wordID": 958, "conditions": [24, 1600, "v", 24000], "trial": 3, "serialpos": 22, "trial_type": "single-stim", "trial_index": 139, "time_elapsed": 732729, "internal_node_id": "0.0-103.0"}}, {"uniqueid": "MTK0445:3X65QVEQI1U17S5EA7E7PGEUCH7LCQ", "current_trial": 140, "dateTime": 1510880430927, "trialdata": {"rt": -1, "stimulus": "<p id=\"stim\">COUCH</p>", "key_press": -1, "type": "PRES_VIS", "word": "couch", "wordID": 385, "conditions": [24, 1600, "v", 24000], "trial": 3, "serialpos": 23, "trial_type": "single-stim", "trial_index": 140, "time_elapsed": 735266, "internal_node_id": "0.0-104.0"}}, {"uniqueid": "MTK0445:3X65QVEQI1U17S5EA7E7PGEUCH7LCQ", "current_trial": 141, "dateTime": 1510880433231, "trialdata": {"rt": -1, "stimulus": "", "key_press": -1, "type": "PRE_RECALL_DELAY", "trial_type": "single-stim", "trial_index": 141, "time_elapsed": 737570, "internal_node_id": "0.0-105.0-0.0"}}, {"uniqueid": "MTK0445:3X65QVEQI1U17S5EA7E7PGEUCH7LCQ", "current_trial": 142, "dateTime": 1510880433739, "trialdata": {"rt": -1000, "stimulus": "/static/audio/400Hz.wav", "key_press": -1, "type": "PRE_RECALL_ALERT", "trial_type": "single-audio", "trial_index": 142, "time_elapsed": 738078, "internal_node_id": "0.0-106.0"}}, {"uniqueid": "MTK0445:3X65QVEQI1U17S5EA7E7PGEUCH7LCQ", "current_trial": 143, "dateTime": 1510880493755, "trialdata": {"rt": [6748, 13042, 17987, 27977, 31376, 41221, 45198, 54593, 59894], "recwords": ["couch", "notebook", "spider", "badge", "tile", "stomp", "brick", "leg", "tunnel"], "type": "FREE_RECALL", "conditions": [24, 1600, "v", 24000], "trial": 3, "trial_type": "free-recall", "trial_index": 143, "time_elapsed": 798084, "internal_node_id": "0.0-107.0-0.0"}}, {"uniqueid": "MTK0445:3X65QVEQI1U17S5EA7E7PGEUCH7LCQ", "current_trial": 144, "dateTime": 1510880501433, "trialdata": {"rt": 5676, "key_press": 84, "type": "INSTRUCTIONS", "trial_type": "text", "trial_index": 144, "time_elapsed": 805772, "internal_node_id": "0.0-108.0"}}, {"uniqueid": "MTK0445:3X65QVEQI1U17S5EA7E7PGEUCH7LCQ", "current_trial": 145, "dateTime": 1510880515447, "trialdata": {"rt": [], "responses": [], "num1": [3], "num2": [8], "num3": [2], "type": "DISTRACTOR", "conditions": [24, 800, "a", 12000], "trial": 4, "trial_type": "math-distractor", "trial_index": 145, "time_elapsed": 819785, "internal_node_id": "0.0-109.0"}}, {"uniqueid": "MTK0445:3X65QVEQI1U17S5EA7E7PGEUCH7LCQ", "current_trial": 146, "dateTime": 1510880518452, "trialdata": {"rt": -1, "stimulus": "<p id=\"stim\">10</p>", "key_press": -1, "trial_type": "single-stim", "trial_index": 146, "time_elapsed": 822791, "internal_node_id": "0.0-110.0-0.0"}}, {"uniqueid": "MTK0445:3X65QVEQI1U17S5EA7E7PGEUCH7LCQ", "current_trial": 147, "dateTime": 1510880519455, "trialdata": {"rt": -1, "stimulus": "<p id=\"stim\">9</p>", "key_press": -1, "trial_type": "single-stim", "trial_index": 147, "time_elapsed": 823794, "internal_node_id": "0.0-110.0-1.0"}}, {"uniqueid": "MTK0445:3X65QVEQI1U17S5EA7E7PGEUCH7LCQ", "current_trial": 148, "dateTime": 1510880520468, "trialdata": {"rt": -1, "stimulus": "<p id=\"stim\">8</p>", "key_press": -1, "trial_type": "single-stim", "trial_index": 148, "time_elapsed": 824806, "internal_node_id": "0.0-110.0-2.0"}}, {"uniqueid": "MTK0445:3X65QVEQI1U17S5EA7E7PGEUCH7LCQ", "current_trial": 149, "dateTime": 1510880521473, "trialdata": {"rt": -1, "stimulus": "<p id=\"stim\">7</p>", "key_press": -1, "trial_type": "single-stim", "trial_index": 149, "time_elapsed": 825812, "internal_node_id": "0.0-110.0-3.0"}}, {"uniqueid": "MTK0445:3X65QVEQI1U17S5EA7E7PGEUCH7LCQ", "current_trial": 150, "dateTime": 1510880522477, "trialdata": {"rt": -1, "stimulus": "<p id=\"stim\">6</p>", "key_press": -1, "trial_type": "single-stim", "trial_index": 150, "time_elapsed": 826816, "internal_node_id": "0.0-110.0-4.0"}}, {"uniqueid": "MTK0445:3X65QVEQI1U17S5EA7E7PGEUCH7LCQ", "current_trial": 151, "dateTime": 1510880523479, "trialdata": {"rt": -1, "stimulus": "<p id=\"stim\">5</p>", "key_press": -1, "trial_type": "single-stim", "trial_index": 151, "time_elapsed": 827818, "internal_node_id": "0.0-110.0-5.0"}}, {"uniqueid": "MTK0445:3X65QVEQI1U17S5EA7E7PGEUCH7LCQ", "current_trial": 152, "dateTime": 1510880524482, "trialdata": {"rt": -1, "stimulus": "<p id=\"stim\">4</p>", "key_press": -1, "trial_type": "single-stim", "trial_index": 152, "time_elapsed": 828821, "internal_node_id": "0.0-110.0-6.0"}}, {"uniqueid": "MTK0445:3X65QVEQI1U17S5EA7E7PGEUCH7LCQ", "current_trial": 153, "dateTime": 1510880525495, "trialdata": {"rt": -1, "stimulus": "<p id=\"stim\">3</p>", "key_press": -1, "trial_type": "single-stim", "trial_index": 153, "time_elapsed": 829830, "internal_node_id": "0.0-110.0-7.0"}}, {"uniqueid": "MTK0445:3X65QVEQI1U17S5EA7E7PGEUCH7LCQ", "current_trial": 154, "dateTime": 1510880526504, "trialdata": {"rt": -1, "stimulus": "<p id=\"stim\">2</p>", "key_press": -1, "trial_type": "single-stim", "trial_index": 154, "time_elapsed": 830842, "internal_node_id": "0.0-110.0-8.0"}}, {"uniqueid": "MTK0445:3X65QVEQI1U17S5EA7E7PGEUCH7LCQ", "current_trial": 155, "dateTime": 1510880527508, "trialdata": {"rt": -1, "stimulus": "<p id=\"stim\">1</p>", "key_press": -1, "trial_type": "single-stim", "trial_index": 155, "time_elapsed": 831845, "internal_node_id": "0.0-110.0-9.0"}}, {"uniqueid": "MTK0445:3X65QVEQI1U17S5EA7E7PGEUCH7LCQ", "current_trial": 156, "dateTime": 1510880529016, "trialdata": {"rt": -1, "stimulus": "<p id=\"stim\">+</p>", "key_press": -1, "type": "FIXATION", "trial_type": "single-stim", "trial_index": 156, "time_elapsed": 833355, "internal_node_id": "0.0-111.0-0.0"}}, {"uniqueid": "MTK0445:3X65QVEQI1U17S5EA7E7PGEUCH7LCQ", "current_trial": 157, "dateTime": 1510880530970, "trialdata": {"rt": -1000, "stimulus": "/static/audio/wordpool/GRILL.wav", "key_press": -1, "type": "PRES_AUD", "word": "grill", "wordID": 660, "conditions": [24, 800, "a", 12000], "trial": 4, "serialpos": 0, "trial_type": "single-audio", "trial_index": 157, "time_elapsed": 835309, "internal_node_id": "0.0-112.0"}}, {"uniqueid": "MTK0445:3X65QVEQI1U17S5EA7E7PGEUCH7LCQ", "current_trial": 158, "dateTime": 1510880532602, "trialdata": {"rt": -1000, "stimulus": "/static/audio/wordpool/LONDON.wav", "key_press": -1, "type": "PRES_AUD", "word": "london", "wordID": 842, "conditions": [24, 800, "a", 12000], "trial": 4, "serialpos": 1, "trial_type": "single-audio", "trial_index": 158, "time_elapsed": 836940, "internal_node_id": "0.0-113.0"}}, {"uniqueid": "MTK0445:3X65QVEQI1U17S5EA7E7PGEUCH7LCQ", "current_trial": 159, "dateTime": 1510880534539, "trialdata": {"rt": -1000, "stimulus": "/static/audio/wordpool/SUITCASE.wav", "key_press": -1, "type": "PRES_AUD", "word": "suitcase", "wordID": 1402, "conditions": [24, 800, "a", 12000], "trial": 4, "serialpos": 2, "trial_type": "single-audio", "trial_index": 159, "time_elapsed": 838878, "internal_node_id": "0.0-114.0"}}, {"uniqueid": "MTK0445:3X65QVEQI1U17S5EA7E7PGEUCH7LCQ", "current_trial": 160, "dateTime": 1510880536537, "trialdata": {"rt": -1000, "stimulus": "/static/audio/wordpool/WIDOW.wav", "key_press": -1, "type": "PRES_AUD", "word": "widow", "wordID": 1607, "conditions": [24, 800, "a", 12000], "trial": 4, "serialpos": 3, "trial_type": "single-audio", "trial_index": 160, "time_elapsed": 840876, "internal_node_id": "0.0-115.0"}}, {"uniqueid": "MTK0445:3X65QVEQI1U17S5EA7E7PGEUCH7LCQ", "current_trial": 161, "dateTime": 1510880538255, "trialdata": {"rt": -1000, "stimulus": "/static/audio/wordpool/EUROPE.wav", "key_press": -1, "type": "PRES_AUD", "word": "europe", "wordID": 540, "conditions": [24, 800, "a", 12000], "trial": 4, "serialpos": 4, "trial_type": "single-audio", "trial_index": 161, "time_elapsed": 842594, "internal_node_id": "0.0-116.0"}}, {"uniqueid": "MTK0445:3X65QVEQI1U17S5EA7E7PGEUCH7LCQ", "current_trial": 162, "dateTime": 1510880540224, "trialdata": {"rt": -1000, "stimulus": "/static/audio/wordpool/OMELET.wav", "key_press": -1, "type": "PRES_AUD", "word": "omelet", "wordID": 975, "conditions": [24, 800, "a", 12000], "trial": 4, "serialpos": 5, "trial_type": "single-audio", "trial_index": 162, "time_elapsed": 844563, "internal_node_id": "0.0-117.0"}}, {"uniqueid": "MTK0445:3X65QVEQI1U17S5EA7E7PGEUCH7LCQ", "current_trial": 163, "dateTime": 1510880541855, "trialdata": {"rt": -1000, "stimulus": "/static/audio/wordpool/SHORTCAKE.wav", "key_press": -1, "type": "PRES_AUD", "word": "shortcake", "wordID": 1291, "conditions": [24, 800, "a", 12000], "trial": 4, "serialpos": 6, "trial_type": "single-audio", "trial_index": 163, "time_elapsed": 846194, "internal_node_id": "0.0-118.0"}}, {"uniqueid": "MTK0445:3X65QVEQI1U17S5EA7E7PGEUCH7LCQ", "current_trial": 164, "dateTime": 1510880543771, "trialdata": {"rt": -1000, "stimulus": "/static/audio/wordpool/CIGAR.wav", "key_press": -1, "type": "PRES_AUD", "word": "cigar", "wordID": 307, "conditions": [24, 800, "a", 12000], "trial": 4, "serialpos": 7, "trial_type": "single-audio", "trial_index": 164, "time_elapsed": 848110, "internal_node_id": "0.0-119.0"}}, {"uniqueid": "MTK0445:3X65QVEQI1U17S5EA7E7PGEUCH7LCQ", "current_trial": 165, "dateTime": 1510880545375, "trialdata": {"rt": -1000, "stimulus": "/static/audio/wordpool/GRAVE.wav", "key_press": -1, "type": "PRES_AUD", "word": "grave", "wordID": 657, "conditions": [24, 800, "a", 12000], "trial": 4, "serialpos": 8, "trial_type": "single-audio", "trial_index": 165, "time_elapsed": 849714, "internal_node_id": "0.0-120.0"}}, {"uniqueid": "MTK0445:3X65QVEQI1U17S5EA7E7PGEUCH7LCQ", "current_trial": 166, "dateTime": 1510880547013, "trialdata": {"rt": -1000, "stimulus": "/static/audio/wordpool/CUSTARD.wav", "key_press": -1, "type": "PRES_AUD", "word": "custard", "wordID": 428, "conditions": [24, 800, "a", 12000], "trial": 4, "serialpos": 9, "trial_type": "single-audio", "trial_index": 166, "time_elapsed": 851352, "internal_node_id": "0.0-121.0"}}, {"uniqueid": "MTK0445:3X65QVEQI1U17S5EA7E7PGEUCH7LCQ", "current_trial": 167, "dateTime": 1510880548974, "trialdata": {"rt": -1000, "stimulus": "/static/audio/wordpool/MARS.wav", "key_press": -1, "type": "PRES_AUD", "word": "mars", "wordID": 872, "conditions": [24, 800, "a", 12000], "trial": 4, "serialpos": 10, "trial_type": "single-audio", "trial_index": 167, "time_elapsed": 853313, "internal_node_id": "0.0-122.0"}}, {"uniqueid": "MTK0445:3X65QVEQI1U17S5EA7E7PGEUCH7LCQ", "current_trial": 168, "dateTime": 1510880550672, "trialdata": {"rt": -1000, "stimulus": "/static/audio/wordpool/MILK.wav", "key_press": -1, "type": "PRES_AUD", "word": "milk", "wordID": 894, "conditions": [24, 800, "a", 12000], "trial": 4, "serialpos": 11, "trial_type": "single-audio", "trial_index": 168, "time_elapsed": 855010, "internal_node_id": "0.0-123.0"}}, {"uniqueid": "MTK0445:3X65QVEQI1U17S5EA7E7PGEUCH7LCQ", "current_trial": 169, "dateTime": 1510880552309, "trialdata": {"rt": -1000, "stimulus": "/static/audio/wordpool/TURNIP.wav", "key_press": -1, "type": "PRES_AUD", "word": "turnip", "wordID": 1520, "conditions": [24, 800, "a", 12000], "trial": 4, "serialpos": 12, "trial_type": "single-audio", "trial_index": 169, "time_elapsed": 856648, "internal_node_id": "0.0-124.0"}}, {"uniqueid": "MTK0445:3X65QVEQI1U17S5EA7E7PGEUCH7LCQ", "current_trial": 170, "dateTime": 1510880553924, "trialdata": {"rt": -1000, "stimulus": "/static/audio/wordpool/STUDENT.wav", "key_press": -1, "type": "PRES_AUD", "word": "student", "wordID": 1394, "conditions": [24, 800, "a", 12000], "trial": 4, "serialpos": 13, "trial_type": "single-audio", "trial_index": 170, "time_elapsed": 858263, "internal_node_id": "0.0-125.0"}}, {"uniqueid": "MTK0445:3X65QVEQI1U17S5EA7E7PGEUCH7LCQ", "current_trial": 171, "dateTime": 1510880555905, "trialdata": {"rt": -1000, "stimulus": "/static/audio/wordpool/LADY.wav", "key_press": -1, "type": "PRES_AUD", "word": "lady", "wordID": 793, "conditions": [24, 800, "a", 12000], "trial": 4, "serialpos": 14, "trial_type": "single-audio", "trial_index": 171, "time_elapsed": 860242, "internal_node_id": "0.0-126.0"}}, {"uniqueid": "MTK0445:3X65QVEQI1U17S5EA7E7PGEUCH7LCQ", "current_trial": 172, "dateTime": 1510880557604, "trialdata": {"rt": -1000, "stimulus": "/static/audio/wordpool/GROUND.wav", "key_press": -1, "type": "PRES_AUD", "word": "ground", "wordID": 665, "conditions": [24, 800, "a", 12000], "trial": 4, "serialpos": 15, "trial_type": "single-audio", "trial_index": 172, "time_elapsed": 861942, "internal_node_id": "0.0-127.0"}}, {"uniqueid": "MTK0445:3X65QVEQI1U17S5EA7E7PGEUCH7LCQ", "current_trial": 173, "dateTime": 1510880559489, "trialdata": {"rt": -1000, "stimulus": "/static/audio/wordpool/FRAGRANCE.wav", "key_press": -1, "type": "PRES_AUD", "word": "fragrance", "wordID": 598, "conditions": [24, 800, "a", 12000], "trial": 4, "serialpos": 16, "trial_type": "single-audio", "trial_index": 173, "time_elapsed": 863827, "internal_node_id": "0.0-128.0"}}, {"uniqueid": "MTK0445:3X65QVEQI1U17S5EA7E7PGEUCH7LCQ", "current_trial": 174, "dateTime": 1510880561324, "trialdata": {"rt": -1000, "stimulus": "/static/audio/wordpool/WARDROBE.wav", "key_press": -1, "type": "PRES_AUD", "word": "wardrobe", "wordID": 1586, "conditions": [24, 800, "a", 12000], "trial": 4, "serialpos": 17, "trial_type": "single-audio", "trial_index": 174, "time_elapsed": 865663, "internal_node_id": "0.0-129.0"}}, {"uniqueid": "MTK0445:3X65QVEQI1U17S5EA7E7PGEUCH7LCQ", "current_trial": 175, "dateTime": 1510880563315, "trialdata": {"rt": -1000, "stimulus": "/static/audio/wordpool/TYPIST.wav", "key_press": -1, "type": "PRES_AUD", "word": "typist", "wordID": 1531, "conditions": [24, 800, "a", 12000], "trial": 4, "serialpos": 18, "trial_type": "single-audio", "trial_index": 175, "time_elapsed": 867654, "internal_node_id": "0.0-130.0"}}, {"uniqueid": "MTK0445:3X65QVEQI1U17S5EA7E7PGEUCH7LCQ", "current_trial": 176, "dateTime": 1510880565251, "trialdata": {"rt": -1000, "stimulus": "/static/audio/wordpool/LAPEL.wav", "key_press": -1, "type": "PRES_AUD", "word": "lapel", "wordID": 799, "conditions": [24, 800, "a", 12000], "trial": 4, "serialpos": 19, "trial_type": "single-audio", "trial_index": 176, "time_elapsed": 869590, "internal_node_id": "0.0-131.0"}}, {"uniqueid": "MTK0445:3X65QVEQI1U17S5EA7E7PGEUCH7LCQ", "current_trial": 177, "dateTime": 1510880566871, "trialdata": {"rt": -1000, "stimulus": "/static/audio/wordpool/CONTRACT.wav", "key_press": -1, "type": "PRES_AUD", "word": "contract", "wordID": 367, "conditions": [24, 800, "a", 12000], "trial": 4, "serialpos": 20, "trial_type": "single-audio", "trial_index": 177, "time_elapsed": 871210, "internal_node_id": "0.0-132.0"}}, {"uniqueid": "MTK0445:3X65QVEQI1U17S5EA7E7PGEUCH7LCQ", "current_trial": 178, "dateTime": 1510880568826, "trialdata": {"rt": -1000, "stimulus": "/static/audio/wordpool/DORM.wav", "key_press": -1, "type": "PRES_AUD", "word": "dorm", "wordID": 487, "conditions": [24, 800, "a", 12000], "trial": 4, "serialpos": 21, "trial_type": "single-audio", "trial_index": 178, "time_elapsed": 873165, "internal_node_id": "0.0-133.0"}}, {"uniqueid": "MTK0445:3X65QVEQI1U17S5EA7E7PGEUCH7LCQ", "current_trial": 179, "dateTime": 1510880570709, "trialdata": {"rt": -1000, "stimulus": "/static/audio/wordpool/BACON.wav", "key_press": -1, "type": "PRES_AUD", "word": "bacon", "wordID": 66, "conditions": [24, 800, "a", 12000], "trial": 4, "serialpos": 22, "trial_type": "single-audio", "trial_index": 179, "time_elapsed": 875048, "internal_node_id": "0.0-134.0"}}, {"uniqueid": "MTK0445:3X65QVEQI1U17S5EA7E7PGEUCH7LCQ", "current_trial": 180, "dateTime": 1510880572470, "trialdata": {"rt": -1000, "stimulus": "/static/audio/wordpool/SALAD.wav", "key_press": -1, "type": "PRES_AUD", "word": "salad", "wordID": 1223, "conditions": [24, 800, "a", 12000], "trial": 4, "serialpos": 23, "trial_type": "single-audio", "trial_index": 180, "time_elapsed": 876809, "internal_node_id": "0.0-135.0"}}, {"uniqueid": "MTK0445:3X65QVEQI1U17S5EA7E7PGEUCH7LCQ", "current_trial": 181, "dateTime": 1510880573771, "trialdata": {"rt": -1, "stimulus": "", "key_press": -1, "type": "PRE_RECALL_DELAY", "trial_type": "single-stim", "trial_index": 181, "time_elapsed": 878110, "internal_node_id": "0.0-136.0-0.0"}}, {"uniqueid": "MTK0445:3X65QVEQI1U17S5EA7E7PGEUCH7LCQ", "current_trial": 182, "dateTime": 1510880574272, "trialdata": {"rt": -1000, "stimulus": "/static/audio/400Hz.wav", "key_press": -1, "type": "PRE_RECALL_ALERT", "trial_type": "single-audio", "trial_index": 182, "time_elapsed": 878611, "internal_node_id": "0.0-137.0"}}, {"uniqueid": "MTK0445:3X65QVEQI1U17S5EA7E7PGEUCH7LCQ", "current_trial": 183, "dateTime": 1510880634296, "trialdata": {"rt": [6996, 11497, 18040, 24157, 28634, 33014, 41835, 48527, 59549], "recwords": ["salad", "girl", "london", "widow", "cigar", "omelet", "ground", "typist", "student"], "type": "FREE_RECALL", "conditions": [24, 800, "a", 12000], "trial": 4, "trial_type": "free-recall", "trial_index": 183, "time_elapsed": 938617, "internal_node_id": "0.0-138.0-0.0"}}, {"uniqueid": "MTK0445:3X65QVEQI1U17S5EA7E7PGEUCH7LCQ", "current_trial": 184, "dateTime": 1510880638284, "trialdata": {"rt": 1985, "key_press": 69, "type": "INSTRUCTIONS", "trial_type": "text", "trial_index": 184, "time_elapsed": 942623, "internal_node_id": "0.0-139.0"}}, {"uniqueid": "MTK0445:3X65QVEQI1U17S5EA7E7PGEUCH7LCQ", "current_trial": 185, "dateTime": 1510880652296, "trialdata": {"rt": [], "responses": [], "num1": [1], "num2": [8], "num3": [6], "type": "DISTRACTOR", "conditions": [24, 800, "v", 12000], "trial": 5, "trial_type": "math-distractor", "trial_index": 185, "time_elapsed": 956634, "internal_node_id": "0.0-140.0"}}, {"uniqueid": "MTK0445:3X65QVEQI1U17S5EA7E7PGEUCH7LCQ", "current_trial": 186, "dateTime": 1510880655302, "trialdata": {"rt": -1, "stimulus": "<p id=\"stim\">10</p>", "key_press": -1, "trial_type": "single-stim", "trial_index": 186, "time_elapsed": 959640, "internal_node_id": "0.0-141.0-0.0"}}, {"uniqueid": "MTK0445:3X65QVEQI1U17S5EA7E7PGEUCH7LCQ", "current_trial": 187, "dateTime": 1510880656305, "trialdata": {"rt": -1, "stimulus": "<p id=\"stim\">9</p>", "key_press": -1, "trial_type": "single-stim", "trial_index": 187, "time_elapsed": 960644, "internal_node_id": "0.0-141.0-1.0"}}, {"uniqueid": "MTK0445:3X65QVEQI1U17S5EA7E7PGEUCH7LCQ", "current_trial": 188, "dateTime": 1510880657310, "trialdata": {"rt": -1, "stimulus": "<p id=\"stim\">8</p>", "key_press": -1, "trial_type": "single-stim", "trial_index": 188, "time_elapsed": 961648, "internal_node_id": "0.0-141.0-2.0"}}, {"uniqueid": "MTK0445:3X65QVEQI1U17S5EA7E7PGEUCH7LCQ", "current_trial": 189, "dateTime": 1510880658314, "trialdata": {"rt": -1, "stimulus": "<p id=\"stim\">7</p>", "key_press": -1, "trial_type": "single-stim", "trial_index": 189, "time_elapsed": 962652, "internal_node_id": "0.0-141.0-3.0"}}, {"uniqueid": "MTK0445:3X65QVEQI1U17S5EA7E7PGEUCH7LCQ", "current_trial": 190, "dateTime": 1510880659315, "trialdata": {"rt": -1, "stimulus": "<p id=\"stim\">6</p>", "key_press": -1, "trial_type": "single-stim", "trial_index": 190, "time_elapsed": 963654, "internal_node_id": "0.0-141.0-4.0"}}, {"uniqueid": "MTK0445:3X65QVEQI1U17S5EA7E7PGEUCH7LCQ", "current_trial": 191, "dateTime": 1510880660324, "trialdata": {"rt": -1, "stimulus": "<p id=\"stim\">5</p>", "key_press": -1, "trial_type": "single-stim", "trial_index": 191, "time_elapsed": 964662, "internal_node_id": "0.0-141.0-5.0"}}, {"uniqueid": "MTK0445:3X65QVEQI1U17S5EA7E7PGEUCH7LCQ", "current_trial": 192, "dateTime": 1510880661328, "trialdata": {"rt": -1, "stimulus": "<p id=\"stim\">4</p>", "key_press": -1, "trial_type": "single-stim", "trial_index": 192, "time_elapsed": 965667, "internal_node_id": "0.0-141.0-6.0"}}, {"uniqueid": "MTK0445:3X65QVEQI1U17S5EA7E7PGEUCH7LCQ", "current_trial": 193, "dateTime": 1510880662332, "trialdata": {"rt": -1, "stimulus": "<p id=\"stim\">3</p>", "key_press": -1, "trial_type": "single-stim", "trial_index": 193, "time_elapsed": 966670, "internal_node_id": "0.0-141.0-7.0"}}, {"uniqueid": "MTK0445:3X65QVEQI1U17S5EA7E7PGEUCH7LCQ", "current_trial": 194, "dateTime": 1510880663335, "trialdata": {"rt": -1, "stimulus": "<p id=\"stim\">2</p>", "key_press": -1, "trial_type": "single-stim", "trial_index": 194, "time_elapsed": 967673, "internal_node_id": "0.0-141.0-8.0"}}, {"uniqueid": "MTK0445:3X65QVEQI1U17S5EA7E7PGEUCH7LCQ", "current_trial": 195, "dateTime": 1510880664338, "trialdata": {"rt": -1, "stimulus": "<p id=\"stim\">1</p>", "key_press": -1, "trial_type": "single-stim", "trial_index": 195, "time_elapsed": 968676, "internal_node_id": "0.0-141.0-9.0"}}, {"uniqueid": "MTK0445:3X65QVEQI1U17S5EA7E7PGEUCH7LCQ", "current_trial": 196, "dateTime": 1510880665841, "trialdata": {"rt": -1, "stimulus": "<p id=\"stim\">+</p>", "key_press": -1, "type": "FIXATION", "trial_type": "single-stim", "trial_index": 196, "time_elapsed": 970179, "internal_node_id": "0.0-142.0-0.0"}}, {"uniqueid": "MTK0445:3X65QVEQI1U17S5EA7E7PGEUCH7LCQ", "current_trial": 197, "dateTime": 1510880666646, "trialdata": {"rt": -1, "stimulus": "<p id=\"stim\">DASHBOARD</p>", "key_press": -1, "type": "PRES_VIS", "word": "dashboard", "wordID": 440, "conditions": [24, 800, "v", 12000], "trial": 5, "serialpos": 0, "trial_type": "single-stim", "trial_index": 197, "time_elapsed": 970984, "internal_node_id": "0.0-143.0"}}, {"uniqueid": "MTK0445:3X65QVEQI1U17S5EA7E7PGEUCH7LCQ", "current_trial": 198, "dateTime": 1510880668289, "trialdata": {"rt": -1, "stimulus": "<p id=\"stim\">CREVICE</p>", "key_press": -1, "type": "PRES_VIS", "word": "crevice", "wordID": 404, "conditions": [24, 800, "v", 12000], "trial": 5, "serialpos": 1, "trial_type": "single-stim", "trial_index": 198, "time_elapsed": 972627, "internal_node_id": "0.0-144.0"}}, {"uniqueid": "MTK0445:3X65QVEQI1U17S5EA7E7PGEUCH7LCQ", "current_trial": 199, "dateTime": 1510880669914, "trialdata": {"rt": -1, "stimulus": "<p id=\"stim\">CANDY</p>", "key_press": -1, "type": "PRES_VIS", "word": "candy", "wordID": 229, "conditions": [24, 800, "v", 12000], "trial": 5, "serialpos": 2, "trial_type": "single-stim", "trial_index": 199, "time_elapsed": 974252, "internal_node_id": "0.0-145.0"}}, {"uniqueid": "MTK0445:3X65QVEQI1U17S5EA7E7PGEUCH7LCQ", "current_trial": 200, "dateTime": 1510880671892, "trialdata": {"rt": -1, "stimulus": "<p id=\"stim\">CHEST</p>", "key_press": -1, "type": "PRES_VIS", "word": "chest", "wordID": 294, "conditions": [24, 800, "v", 12000], "trial": 5, "serialpos": 3, "trial_type": "single-stim", "trial_index": 200, "time_elapsed": 976226, "internal_node_id": "0.0-146.0"}}, {"uniqueid": "MTK0445:3X65QVEQI1U17S5EA7E7PGEUCH7LCQ", "current_trial": 201, "dateTime": 1510880673827, "trialdata": {"rt": -1, "stimulus": "<p id=\"stim\">FOREHEAD</p>", "key_press": -1, "type": "PRES_VIS", "word": "forehead", "wordID": 591, "conditions": [24, 800, "v", 12000], "trial": 5, "serialpos": 4, "trial_type": "single-stim", "trial_index": 201, "time_elapsed": 978166, "internal_node_id": "0.0-147.0"}}, {"uniqueid": "MTK0445:3X65QVEQI1U17S5EA7E7PGEUCH7LCQ", "current_trial": 202, "dateTime": 1510880675803, "trialdata": {"rt": -1, "stimulus": "<p id=\"stim\">XEROX</p>", "key_press": -1, "type": "PRES_VIS", "word": "xerox", "wordID": 1627, "conditions": [24, 800, "v", 12000], "trial": 5, "serialpos": 5, "trial_type": "single-stim", "trial_index": 202, "time_elapsed": 980142, "internal_node_id": "0.0-148.0"}}, {"uniqueid": "MTK0445:3X65QVEQI1U17S5EA7E7PGEUCH7LCQ", "current_trial": 203, "dateTime": 1510880677475, "trialdata": {"rt": -1, "stimulus": "<p id=\"stim\">FIREPLACE</p>", "key_press": -1, "type": "PRES_VIS", "word": "fireplace", "wordID": 569, "conditions": [24, 800, "v", 12000], "trial": 5, "serialpos": 6, "trial_type": "single-stim", "trial_index": 203, "time_elapsed": 981814, "internal_node_id": "0.0-149.0"}}, {"uniqueid": "MTK0445:3X65QVEQI1U17S5EA7E7PGEUCH7LCQ", "current_trial": 204, "dateTime": 1510880679157, "trialdata": {"rt": -1, "stimulus": "<p id=\"stim\">PATROL</p>", "key_press": -1, "type": "PRES_VIS", "word": "patrol", "wordID": 1026, "conditions": [24, 800, "v", 12000], "trial": 5, "serialpos": 7, "trial_type": "single-stim", "trial_index": 204, "time_elapsed": 983495, "internal_node_id": "0.0-150.0"}}, {"uniqueid": "MTK0445:3X65QVEQI1U17S5EA7E7PGEUCH7LCQ", "current_trial": 205, "dateTime": 1510880681070, "trialdata": {"rt": -1, "stimulus": "<p id=\"stim\">FOOT</p>", "key_press": -1, "type": "PRES_VIS", "word": "foot", "wordID": 589, "conditions": [24, 800, "v", 12000], "trial": 5, "serialpos": 8, "trial_type": "single-stim", "trial_index": 205, "time_elapsed": 985404, "internal_node_id": "0.0-151.0"}}, {"uniqueid": "MTK0445:3X65QVEQI1U17S5EA7E7PGEUCH7LCQ", "current_trial": 206, "dateTime": 1510880682700, "trialdata": {"rt": -1, "stimulus": "<p id=\"stim\">SCARECROW</p>", "key_press": -1, "type": "PRES_VIS", "word": "scarecrow", "wordID": 1244, "conditions": [24, 800, "v", 12000], "trial": 5, "serialpos": 9, "trial_type": "single-stim", "trial_index": 206, "time_elapsed": 987038, "internal_node_id": "0.0-152.0"}}, {"uniqueid": "MTK0445:3X65QVEQI1U17S5EA7E7PGEUCH7LCQ", "current_trial": 207, "dateTime": 1510880684666, "trialdata": {"rt": -1, "stimulus": "<p id=\"stim\">STOVE</p>", "key_press": -1, "type": "PRES_VIS", "word": "stove", "wordID": 1387, "conditions": [24, 800, "v", 12000], "trial": 5, "serialpos": 10, "trial_type": "single-stim", "trial_index": 207, "time_elapsed": 989005, "internal_node_id": "0.0-153.0"}}, {"uniqueid": "MTK0445:3X65QVEQI1U17S5EA7E7PGEUCH7LCQ", "current_trial": 208, "dateTime": 1510880686523, "trialdata": {"rt": -1, "stimulus": "<p id=\"stim\">WHISTLE</p>", "key_press": -1, "type": "PRES_VIS", "word": "whistle", "wordID": 1605, "conditions": [24, 800, "v", 12000], "trial": 5, "serialpos": 11, "trial_type": "single-stim", "trial_index": 208, "time_elapsed": 990861, "internal_node_id": "0.0-154.0"}}, {"uniqueid": "MTK0445:3X65QVEQI1U17S5EA7E7PGEUCH7LCQ", "current_trial": 209, "dateTime": 1510880688167, "trialdata": {"rt": -1, "stimulus": "<p id=\"stim\">FLASHLIGHT</p>", "key_press": -1, "type": "PRES_VIS", "word": "flashlight", "wordID": 574, "conditions": [24, 800, "v", 12000], "trial": 5, "serialpos": 12, "trial_type": "single-stim", "trial_index": 209, "time_elapsed": 992505, "internal_node_id": "0.0-155.0"}}, {"uniqueid": "MTK0445:3X65QVEQI1U17S5EA7E7PGEUCH7LCQ", "current_trial": 210, "dateTime": 1510880690048, "trialdata": {"rt": -1, "stimulus": "<p id=\"stim\">HEART</p>", "key_press": -1, "type": "PRES_VIS", "word": "heart", "wordID": 696, "conditions": [24, 800, "v", 12000], "trial": 5, "serialpos": 13, "trial_type": "single-stim", "trial_index": 210, "time_elapsed": 994386, "internal_node_id": "0.0-156.0"}}, {"uniqueid": "MTK0445:3X65QVEQI1U17S5EA7E7PGEUCH7LCQ", "current_trial": 211, "dateTime": 1510880691736, "trialdata": {"rt": -1, "stimulus": "<p id=\"stim\">COSTUME</p>", "key_press": -1, "type": "PRES_VIS", "word": "costume", "wordID": 382, "conditions": [24, 800, "v", 12000], "trial": 5, "serialpos": 14, "trial_type": "single-stim", "trial_index": 211, "time_elapsed": 996074, "internal_node_id": "0.0-157.0"}}, {"uniqueid": "MTK0445:3X65QVEQI1U17S5EA7E7PGEUCH7LCQ", "current_trial": 212, "dateTime": 1510880693479, "trialdata": {"rt": -1, "stimulus": "<p id=\"stim\">PISTOL</p>", "key_press": -1, "type": "PRES_VIS", "word": "pistol", "wordID": 1074, "conditions": [24, 800, "v", 12000], "trial": 5, "serialpos": 15, "trial_type": "single-stim", "trial_index": 212, "time_elapsed": 997818, "internal_node_id": "0.0-158.0"}}, {"uniqueid": "MTK0445:3X65QVEQI1U17S5EA7E7PGEUCH7LCQ", "current_trial": 213, "dateTime": 1510880695313, "trialdata": {"rt": -1, "stimulus": "<p id=\"stim\">BEEF</p>", "key_press": -1, "type": "PRES_VIS", "word": "beef", "wordID": 112, "conditions": [24, 800, "v", 12000], "trial": 5, "serialpos": 16, "trial_type": "single-stim", "trial_index": 213, "time_elapsed": 999652, "internal_node_id": "0.0-159.0"}}, {"uniqueid": "MTK0445:3X65QVEQI1U17S5EA7E7PGEUCH7LCQ", "current_trial": 214, "dateTime": 1510880697292, "trialdata": {"rt": -1, "stimulus": "<p id=\"stim\">PORK</p>", "key_press": -1, "type": "PRES_VIS", "word": "pork", "wordID": 1107, "conditions": [24, 800, "v", 12000], "trial": 5, "serialpos": 17, "trial_type": "single-stim", "trial_index": 214, "time_elapsed": 1001629, "internal_node_id": "0.0-160.0"}}, {"uniqueid": "MTK0445:3X65QVEQI1U17S5EA7E7PGEUCH7LCQ", "current_trial": 215, "dateTime": 1510880698980, "trialdata": {"rt": -1, "stimulus": "<p id=\"stim\">GIRL</p>", "key_press": -1, "type": "PRES_VIS", "word": "girl", "wordID": 636, "conditions": [24, 800, "v", 12000], "trial": 5, "serialpos": 18, "trial_type": "single-stim", "trial_index": 215, "time_elapsed": 1003318, "internal_node_id": "0.0-161.0"}}, {"uniqueid": "MTK0445:3X65QVEQI1U17S5EA7E7PGEUCH7LCQ", "current_trial": 216, "dateTime": 1510880700779, "trialdata": {"rt": -1, "stimulus": "<p id=\"stim\">LIZARD</p>", "key_press": -1, "type": "PRES_VIS", "word": "lizard", "wordID": 833, "conditions": [24, 800, "v", 12000], "trial": 5, "serialpos": 19, "trial_type": "single-stim", "trial_index": 216, "time_elapsed": 1005118, "internal_node_id": "0.0-162.0"}}, {"uniqueid": "MTK0445:3X65QVEQI1U17S5EA7E7PGEUCH7LCQ", "current_trial": 217, "dateTime": 1510880702750, "trialdata": {"rt": -1, "stimulus": "<p id=\"stim\">KLEENEX</p>", "key_press": -1, "type": "PRES_VIS", "word": "kleenex", "wordID": 781, "conditions": [24, 800, "v", 12000], "trial": 5, "serialpos": 20, "trial_type": "single-stim", "trial_index": 217, "time_elapsed": 1007088, "internal_node_id": "0.0-163.0"}}, {"uniqueid": "MTK0445:3X65QVEQI1U17S5EA7E7PGEUCH7LCQ", "current_trial": 218, "dateTime": 1510880704398, "trialdata": {"rt": -1, "stimulus": "<p id=\"stim\">DUST</p>", "key_press": -1, "type": "PRES_VIS", "word": "dust", "wordID": 507, "conditions": [24, 800, "v", 12000], "trial": 5, "serialpos": 21, "trial_type": "single-stim", "trial_index": 218, "time_elapsed": 1008736, "internal_node_id": "0.0-164.0"}}, {"uniqueid": "MTK0445:3X65QVEQI1U17S5EA7E7PGEUCH7LCQ", "current_trial": 219, "dateTime": 1510880706060, "trialdata": {"rt": -1, "stimulus": "<p id=\"stim\">DANDRUFF</p>", "key_press": -1, "type": "PRES_VIS", "word": "dandruff", "wordID": 438, "conditions": [24, 800, "v", 12000], "trial": 5, "serialpos": 22, "trial_type": "single-stim", "trial_index": 219, "time_elapsed": 1010399, "internal_node_id": "0.0-165.0"}}, {"uniqueid": "MTK0445:3X65QVEQI1U17S5EA7E7PGEUCH7LCQ", "current_trial": 220, "dateTime": 1510880708045, "trialdata": {"rt": -1, "stimulus": "<p id=\"stim\">TORTOISE</p>", "key_press": -1, "type": "PRES_VIS", "word": "tortoise", "wordID": 1485, "conditions": [24, 800, "v", 12000], "trial": 5, "serialpos": 23, "trial_type": "single-stim", "trial_index": 220, "time_elapsed": 1012383, "internal_node_id": "0.0-166.0"}}, {"uniqueid": "MTK0445:3X65QVEQI1U17S5EA7E7PGEUCH7LCQ", "current_trial": 221, "dateTime": 1510880710249, "trialdata": {"rt": -1, "stimulus": "", "key_press": -1, "type": "PRE_RECALL_DELAY", "trial_type": "single-stim", "trial_index": 221, "time_elapsed": 1014588, "internal_node_id": "0.0-167.0-0.0"}}, {"uniqueid": "MTK0445:3X65QVEQI1U17S5EA7E7PGEUCH7LCQ", "current_trial": 222, "dateTime": 1510880710758, "trialdata": {"rt": -1000, "stimulus": "/static/audio/400Hz.wav", "key_press": -1, "type": "PRE_RECALL_ALERT", "trial_type": "single-audio", "trial_index": 222, "time_elapsed": 1015097, "internal_node_id": "0.0-168.0"}}, {"uniqueid": "MTK0445:3X65QVEQI1U17S5EA7E7PGEUCH7LCQ", "current_trial": 223, "dateTime": 1510880770769, "trialdata": {"rt": [6305, 11336, 17908, 22686, 29217, 32934, 36692, 40013, 42179, 47801, 53187], "recwords": ["tortoise", "scarecrow", "chest", "fireplace", "costume", "whistle", "girl", "pork", "beef", "xerox", "kleenex"], "type": "FREE_RECALL", "conditions": [24, 800, "v", 12000], "trial": 5, "trial_type": "free-recall", "trial_index": 223, "time_elapsed": 1075103, "internal_node_id": "0.0-169.0-0.0"}}, {"uniqueid": "MTK0445:3X65QVEQI1U17S5EA7E7PGEUCH7LCQ", "current_trial": 224, "dateTime": 1510880783614, "trialdata": {"rt": 10843, "key_press": 32, "type": "INSTRUCTIONS", "trial_type": "text", "trial_index": 224, "time_elapsed": 1087953, "internal_node_id": "0.0-170.0"}}, {"uniqueid": "MTK0445:3X65QVEQI1U17S5EA7E7PGEUCH7LCQ", "current_trial": 225, "dateTime": 1510880797629, "trialdata": {"rt": [], "responses": [], "num1": [6], "num2": [4], "num3": [5], "type": "DISTRACTOR", "conditions": [12, 1600, "a", 12000], "trial": 6, "trial_type": "math-distractor", "trial_index": 225, "time_elapsed": 1101968, "internal_node_id": "0.0-171.0"}}, {"uniqueid": "MTK0445:3X65QVEQI1U17S5EA7E7PGEUCH7LCQ", "current_trial": 226, "dateTime": 1510880800634, "trialdata": {"rt": -1, "stimulus": "<p id=\"stim\">10</p>", "key_press": -1, "trial_type": "single-stim", "trial_index": 226, "time_elapsed": 1104972, "internal_node_id": "0.0-172.0-0.0"}}, {"uniqueid": "MTK0445:3X65QVEQI1U17S5EA7E7PGEUCH7LCQ", "current_trial": 227, "dateTime": 1510880801638, "trialdata": {"rt": -1, "stimulus": "<p id=\"stim\">9</p>", "key_press": -1, "trial_type": "single-stim", "trial_index": 227, "time_elapsed": 1105976, "internal_node_id": "0.0-172.0-1.0"}}, {"uniqueid": "MTK0445:3X65QVEQI1U17S5EA7E7PGEUCH7LCQ", "current_trial": 228, "dateTime": 1510880802640, "trialdata": {"rt": -1, "stimulus": "<p id=\"stim\">8</p>", "key_press": -1, "trial_type": "single-stim", "trial_index": 228, "time_elapsed": 1106979, "internal_node_id": "0.0-172.0-2.0"}}, {"uniqueid": "MTK0445:3X65QVEQI1U17S5EA7E7PGEUCH7LCQ", "current_trial": 229, "dateTime": 1510880803646, "trialdata": {"rt": -1, "stimulus": "<p id=\"stim\">7</p>", "key_press": -1, "trial_type": "single-stim", "trial_index": 229, "time_elapsed": 1107985, "internal_node_id": "0.0-172.0-3.0"}}, {"uniqueid": "MTK0445:3X65QVEQI1U17S5EA7E7PGEUCH7LCQ", "current_trial": 230, "dateTime": 1510880804649, "trialdata": {"rt": -1, "stimulus": "<p id=\"stim\">6</p>", "key_press": -1, "trial_type": "single-stim", "trial_index": 230, "time_elapsed": 1108987, "internal_node_id": "0.0-172.0-4.0"}}, {"uniqueid": "MTK0445:3X65QVEQI1U17S5EA7E7PGEUCH7LCQ", "current_trial": 231, "dateTime": 1510880805652, "trialdata": {"rt": -1, "stimulus": "<p id=\"stim\">5</p>", "key_press": -1, "trial_type": "single-stim", "trial_index": 231, "time_elapsed": 1109990, "internal_node_id": "0.0-172.0-5.0"}}, {"uniqueid": "MTK0445:3X65QVEQI1U17S5EA7E7PGEUCH7LCQ", "current_trial": 232, "dateTime": 1510880806655, "trialdata": {"rt": -1, "stimulus": "<p id=\"stim\">4</p>", "key_press": -1, "trial_type": "single-stim", "trial_index": 232, "time_elapsed": 1110993, "internal_node_id": "0.0-172.0-6.0"}}, {"uniqueid": "MTK0445:3X65QVEQI1U17S5EA7E7PGEUCH7LCQ", "current_trial": 233, "dateTime": 1510880807659, "trialdata": {"rt": -1, "stimulus": "<p id=\"stim\">3</p>", "key_press": -1, "trial_type": "single-stim", "trial_index": 233, "time_elapsed": 1111997, "internal_node_id": "0.0-172.0-7.0"}}, {"uniqueid": "MTK0445:3X65QVEQI1U17S5EA7E7PGEUCH7LCQ", "current_trial": 234, "dateTime": 1510880808663, "trialdata": {"rt": -1, "stimulus": "<p id=\"stim\">2</p>", "key_press": -1, "trial_type": "single-stim", "trial_index": 234, "time_elapsed": 1113001, "internal_node_id": "0.0-172.0-8.0"}}, {"uniqueid": "MTK0445:3X65QVEQI1U17S5EA7E7PGEUCH7LCQ", "current_trial": 235, "dateTime": 1510880809667, "trialdata": {"rt": -1, "stimulus": "<p id=\"stim\">1</p>", "key_press": -1, "trial_type": "single-stim", "trial_index": 235, "time_elapsed": 1114006, "internal_node_id": "0.0-172.0-9.0"}}, {"uniqueid": "MTK0445:3X65QVEQI1U17S5EA7E7PGEUCH7LCQ", "current_trial": 236, "dateTime": 1510880811171, "trialdata": {"rt": -1, "stimulus": "<p id=\"stim\">+</p>", "key_press": -1, "type": "FIXATION", "trial_type": "single-stim", "trial_index": 236, "time_elapsed": 1115509, "internal_node_id": "0.0-173.0-0.0"}}, {"uniqueid": "MTK0445:3X65QVEQI1U17S5EA7E7PGEUCH7LCQ", "current_trial": 237, "dateTime": 1510880813645, "trialdata": {"rt": -1000, "stimulus": "/static/audio/wordpool/TRIBE.wav", "key_press": -1, "type": "PRES_AUD", "word": "tribe", "wordID": 1504, "conditions": [12, 1600, "a", 12000], "trial": 6, "serialpos": 0, "trial_type": "single-audio", "trial_index": 237, "time_elapsed": 1117984, "internal_node_id": "0.0-174.0"}}, {"uniqueid": "MTK0445:3X65QVEQI1U17S5EA7E7PGEUCH7LCQ", "current_trial": 238, "dateTime": 1510880816349, "trialdata": {"rt": -1000, "stimulus": "/static/audio/wordpool/CHURCH.wav", "key_press": -1, "type": "PRES_AUD", "word": "church", "wordID": 306, "conditions": [12, 1600, "a", 12000], "trial": 6, "serialpos": 1, "trial_type": "single-audio", "trial_index": 238, "time_elapsed": 1120688, "internal_node_id": "0.0-175.0"}}, {"uniqueid": "MTK0445:3X65QVEQI1U17S5EA7E7PGEUCH7LCQ", "current_trial": 239, "dateTime": 1510880818789, "trialdata": {"rt": -1000, "stimulus": "/static/audio/wordpool/HAMPER.wav", "key_press": -1, "type": "PRES_AUD", "word": "hamper", "wordID": 681, "conditions": [12, 1600, "a", 12000], "trial": 6, "serialpos": 2, "trial_type": "single-audio", "trial_index": 239, "time_elapsed": 1123128, "internal_node_id": "0.0-176.0"}}, {"uniqueid": "MTK0445:3X65QVEQI1U17S5EA7E7PGEUCH7LCQ", "current_trial": 240, "dateTime": 1510880821232, "trialdata": {"rt": -1000, "stimulus": "/static/audio/wordpool/KITCHEN.wav", "key_press": -1, "type": "PRES_AUD", "word": "kitchen", "wordID": 777, "conditions": [12, 1600, "a", 12000], "trial": 6, "serialpos": 3, "trial_type": "single-audio", "trial_index": 240, "time_elapsed": 1125571, "internal_node_id": "0.0-177.0"}}, {"uniqueid": "MTK0445:3X65QVEQI1U17S5EA7E7PGEUCH7LCQ", "current_trial": 241, "dateTime": 1510880823888, "trialdata": {"rt": -1000, "stimulus": "/static/audio/wordpool/BRIEFCASE.wav", "key_press": -1, "type": "PRES_AUD", "word": "briefcase", "wordID": 174, "conditions": [12, 1600, "a", 12000], "trial": 6, "serialpos": 4, "trial_type": "single-audio", "trial_index": 241, "time_elapsed": 1128227, "internal_node_id": "0.0-178.0"}}, {"uniqueid": "MTK0445:3X65QVEQI1U17S5EA7E7PGEUCH7LCQ", "current_trial": 242, "dateTime": 1510880826543, "trialdata": {"rt": -1000, "stimulus": "/static/audio/wordpool/RABBIT.wav", "key_press": -1, "type": "PRES_AUD", "word": "rabbit", "wordID": 1151, "conditions": [12, 1600, "a", 12000], "trial": 6, "serialpos": 5, "trial_type": "single-audio", "trial_index": 242, "time_elapsed": 1130882, "internal_node_id": "0.0-179.0"}}, {"uniqueid": "MTK0445:3X65QVEQI1U17S5EA7E7PGEUCH7LCQ", "current_trial": 243, "dateTime": 1510880829255, "trialdata": {"rt": -1000, "stimulus": "/static/audio/wordpool/PUPPY.wav", "key_press": -1, "type": "PRES_AUD", "word": "puppy", "wordID": 1143, "conditions": [12, 1600, "a", 12000], "trial": 6, "serialpos": 6, "trial_type": "single-audio", "trial_index": 243, "time_elapsed": 1133593, "internal_node_id": "0.0-180.0"}}, {"uniqueid": "MTK0445:3X65QVEQI1U17S5EA7E7PGEUCH7LCQ", "current_trial": 244, "dateTime": 1510880831818, "trialdata": {"rt": -1000, "stimulus": "/static/audio/wordpool/SLIME.wav", "key_press": -1, "type": "PRES_AUD", "word": "slime", "wordID": 1326, "conditions": [12, 1600, "a", 12000], "trial": 6, "serialpos": 7, "trial_type": "single-audio", "trial_index": 244, "time_elapsed": 1136156, "internal_node_id": "0.0-181.0"}}, {"uniqueid": "MTK0445:3X65QVEQI1U17S5EA7E7PGEUCH7LCQ", "current_trial": 245, "dateTime": 1510880834479, "trialdata": {"rt": -1000, "stimulus": "/static/audio/wordpool/CHAUFFEUR.wav", "key_press": -1, "type": "PRES_AUD", "word": "chauffeur", "wordID": 282, "conditions": [12, 1600, "a", 12000], "trial": 6, "serialpos": 8, "trial_type": "single-audio", "trial_index": 245, "time_elapsed": 1138818, "internal_node_id": "0.0-182.0"}}, {"uniqueid": "MTK0445:3X65QVEQI1U17S5EA7E7PGEUCH7LCQ", "current_trial": 246, "dateTime": 1510880837147, "trialdata": {"rt": -1000, "stimulus": "/static/audio/wordpool/KNAPSACK.wav", "key_press": -1, "type": "PRES_AUD", "word": "knapsack", "wordID": 782, "conditions": [12, 1600, "a", 12000], "trial": 6, "serialpos": 9, "trial_type": "single-audio", "trial_index": 246, "time_elapsed": 1141486, "internal_node_id": "0.0-183.0"}}, {"uniqueid": "MTK0445:3X65QVEQI1U17S5EA7E7PGEUCH7LCQ", "current_trial": 247, "dateTime": 1510880839752, "trialdata": {"rt": -1000, "stimulus": "/static/audio/wordpool/COUSIN.wav", "key_press": -1, "type": "PRES_AUD", "word": "cousin", "wordID": 391, "conditions": [12, 1600, "a", 12000], "trial": 6, "serialpos": 10, "trial_type": "single-audio", "trial_index": 247, "time_elapsed": 1144091, "internal_node_id": "0.0-184.0"}}, {"uniqueid": "MTK0445:3X65QVEQI1U17S5EA7E7PGEUCH7LCQ", "current_trial": 248, "dateTime": 1510880842328, "trialdata": {"rt": -1000, "stimulus": "/static/audio/wordpool/LODGE.wav", "key_press": -1, "type": "PRES_AUD", "word": "lodge", "wordID": 838, "conditions": [12, 1600, "a", 12000], "trial": 6, "serialpos": 11, "trial_type": "single-audio", "trial_index": 248, "time_elapsed": 1146667, "internal_node_id": "0.0-185.0"}}, {"uniqueid": "MTK0445:3X65QVEQI1U17S5EA7E7PGEUCH7LCQ", "current_trial": 249, "dateTime": 1510880843658, "trialdata": {"rt": -1, "stimulus": "", "key_press": -1, "type": "PRE_RECALL_DELAY", "trial_type": "single-stim", "trial_index": 249, "time_elapsed": 1147997, "internal_node_id": "0.0-186.0-0.0"}}, {"uniqueid": "MTK0445:3X65QVEQI1U17S5EA7E7PGEUCH7LCQ", "current_trial": 250, "dateTime": 1510880844166, "trialdata": {"rt": -1000, "stimulus": "/static/audio/400Hz.wav", "key_press": -1, "type": "PRE_RECALL_ALERT", "trial_type": "single-audio", "trial_index": 250, "time_elapsed": 1148504, "internal_node_id": "0.0-187.0"}}, {"uniqueid": "MTK0445:3X65QVEQI1U17S5EA7E7PGEUCH7LCQ", "current_trial": 251, "dateTime": 1510880904195, "trialdata": {"rt": [4028, 10043, 15749, 20438, 27986, 43866, 51306, 56517], "recwords": ["lodge", "kitchen", "church", "puppy", "cousin", "rabbit", "briefcase", "pin"], "type": "FREE_RECALL", "conditions": [12, 1600, "a", 12000], "trial": 6, "trial_type": "free-recall", "trial_index": 251, "time_elapsed": 1208509, "internal_node_id": "0.0-188.0-0.0"}}, {"uniqueid": "MTK0445:3X65QVEQI1U17S5EA7E7PGEUCH7LCQ", "current_trial": 252, "dateTime": 1510880911321, "trialdata": {"rt": 5123, "key_press": 67, "type": "INSTRUCTIONS", "trial_type": "text", "trial_index": 252, "time_elapsed": 1215660, "internal_node_id": "0.0-189.0"}}, {"uniqueid": "MTK0445:3X65QVEQI1U17S5EA7E7PGEUCH7LCQ", "current_trial": 253, "dateTime": 1510880925333, "trialdata": {"rt": [], "responses": [], "num1": [6], "num2": [9], "num3": [8], "type": "DISTRACTOR", "conditions": [12, 1600, "v", 12000], "trial": 7, "trial_type": "math-distractor", "trial_index": 253, "time_elapsed": 1229672, "internal_node_id": "0.0-190.0"}}, {"uniqueid": "MTK0445:3X65QVEQI1U17S5EA7E7PGEUCH7LCQ", "current_trial": 254, "dateTime": 1510880928339, "trialdata": {"rt": -1, "stimulus": "<p id=\"stim\">10</p>", "key_press": -1, "trial_type": "single-stim", "trial_index": 254, "time_elapsed": 1232677, "internal_node_id": "0.0-191.0-0.0"}}, {"uniqueid": "MTK0445:3X65QVEQI1U17S5EA7E7PGEUCH7LCQ", "current_trial": 255, "dateTime": 1510880929342, "trialdata": {"rt": -1, "stimulus": "<p id=\"stim\">9</p>", "key_press": -1, "trial_type": "single-stim", "trial_index": 255, "time_elapsed": 1233680, "internal_node_id": "0.0-191.0-1.0"}}, {"uniqueid": "MTK0445:3X65QVEQI1U17S5EA7E7PGEUCH7LCQ", "current_trial": 256, "dateTime": 1510880930344, "trialdata": {"rt": -1, "stimulus": "<p id=\"stim\">8</p>", "key_press": -1, "trial_type": "single-stim", "trial_index": 256, "time_elapsed": 1234683, "internal_node_id": "0.0-191.0-2.0"}}, {"uniqueid": "MTK0445:3X65QVEQI1U17S5EA7E7PGEUCH7LCQ", "current_trial": 257, "dateTime": 1510880931354, "trialdata": {"rt": -1, "stimulus": "<p id=\"stim\">7</p>", "key_press": -1, "trial_type": "single-stim", "trial_index": 257, "time_elapsed": 1235692, "internal_node_id": "0.0-191.0-3.0"}}, {"uniqueid": "MTK0445:3X65QVEQI1U17S5EA7E7PGEUCH7LCQ", "current_trial": 258, "dateTime": 1510880932357, "trialdata": {"rt": -1, "stimulus": "<p id=\"stim\">6</p>", "key_press": -1, "trial_type": "single-stim", "trial_index": 258, "time_elapsed": 1236696, "internal_node_id": "0.0-191.0-4.0"}}, {"uniqueid": "MTK0445:3X65QVEQI1U17S5EA7E7PGEUCH7LCQ", "current_trial": 259, "dateTime": 1510880933360, "trialdata": {"rt": -1, "stimulus": "<p id=\"stim\">5</p>", "key_press": -1, "trial_type": "single-stim", "trial_index": 259, "time_elapsed": 1237698, "internal_node_id": "0.0-191.0-5.0"}}, {"uniqueid": "MTK0445:3X65QVEQI1U17S5EA7E7PGEUCH7LCQ", "current_trial": 260, "dateTime": 1510880934364, "trialdata": {"rt": -1, "stimulus": "<p id=\"stim\">4</p>", "key_press": -1, "trial_type": "single-stim", "trial_index": 260, "time_elapsed": 1238702, "internal_node_id": "0.0-191.0-6.0"}}, {"uniqueid": "MTK0445:3X65QVEQI1U17S5EA7E7PGEUCH7LCQ", "current_trial": 261, "dateTime": 1510880935366, "trialdata": {"rt": -1, "stimulus": "<p id=\"stim\">3</p>", "key_press": -1, "trial_type": "single-stim", "trial_index": 261, "time_elapsed": 1239705, "internal_node_id": "0.0-191.0-7.0"}}, {"uniqueid": "MTK0445:3X65QVEQI1U17S5EA7E7PGEUCH7LCQ", "current_trial": 262, "dateTime": 1510880936370, "trialdata": {"rt": -1, "stimulus": "<p id=\"stim\">2</p>", "key_press": -1, "trial_type": "single-stim", "trial_index": 262, "time_elapsed": 1240708, "internal_node_id": "0.0-191.0-8.0"}}, {"uniqueid": "MTK0445:3X65QVEQI1U17S5EA7E7PGEUCH7LCQ", "current_trial": 263, "dateTime": 1510880937379, "trialdata": {"rt": -1, "stimulus": "<p id=\"stim\">1</p>", "key_press": -1, "trial_type": "single-stim", "trial_index": 263, "time_elapsed": 1241717, "internal_node_id": "0.0-191.0-9.0"}}, {"uniqueid": "MTK0445:3X65QVEQI1U17S5EA7E7PGEUCH7LCQ", "current_trial": 264, "dateTime": 1510880938884, "trialdata": {"rt": -1, "stimulus": "<p id=\"stim\">+</p>", "key_press": -1, "type": "FIXATION", "trial_type": "single-stim", "trial_index": 264, "time_elapsed": 1243222, "internal_node_id": "0.0-192.0-0.0"}}, {"uniqueid": "MTK0445:3X65QVEQI1U17S5EA7E7PGEUCH7LCQ", "current_trial": 265, "dateTime": 1510880940488, "trialdata": {"rt": -1, "stimulus": "<p id=\"stim\">MACHINE</p>", "key_press": -1, "type": "PRES_VIS", "word": "machine", "wordID": 851, "conditions": [12, 1600, "v", 12000], "trial": 7, "serialpos": 0, "trial_type": "single-stim", "trial_index": 265, "time_elapsed": 1244826, "internal_node_id": "0.0-193.0"}}, {"uniqueid": "MTK0445:3X65QVEQI1U17S5EA7E7PGEUCH7LCQ", "current_trial": 266, "dateTime": 1510880942906, "trialdata": {"rt": -1, "stimulus": "<p id=\"stim\">BROTHER</p>", "key_press": -1, "type": "PRES_VIS", "word": "brother", "wordID": 178, "conditions": [12, 1600, "v", 12000], "trial": 7, "serialpos": 1, "trial_type": "single-stim", "trial_index": 266, "time_elapsed": 1247244, "internal_node_id": "0.0-194.0"}}, {"uniqueid": "MTK0445:3X65QVEQI1U17S5EA7E7PGEUCH7LCQ", "current_trial": 267, "dateTime": 1510880945652, "trialdata": {"rt": -1, "stimulus": "<p id=\"stim\">COLLEGE</p>", "key_press": -1, "type": "PRES_VIS", "word": "college", "wordID": 345, "conditions": [12, 1600, "v", 12000], "trial": 7, "serialpos": 2, "trial_type": "single-stim", "trial_index": 267, "time_elapsed": 1249990, "internal_node_id": "0.0-195.0"}}, {"uniqueid": "MTK0445:3X65QVEQI1U17S5EA7E7PGEUCH7LCQ", "current_trial": 268, "dateTime": 1510880948409, "trialdata": {"rt": -1, "stimulus": "<p id=\"stim\">COMET</p>", "key_press": -1, "type": "PRES_VIS", "word": "comet", "wordID": 352, "conditions": [12, 1600, "v", 12000], "trial": 7, "serialpos": 3, "trial_type": "single-stim", "trial_index": 268, "time_elapsed": 1252748, "internal_node_id": "0.0-196.0"}}, {"uniqueid": "MTK0445:3X65QVEQI1U17S5EA7E7PGEUCH7LCQ", "current_trial": 269, "dateTime": 1510880951197, "trialdata": {"rt": -1, "stimulus": "<p id=\"stim\">PATIENT</p>", "key_press": -1, "type": "PRES_VIS", "word": "patient", "wordID": 1023, "conditions": [12, 1600, "v", 12000], "trial": 7, "serialpos": 4, "trial_type": "single-stim", "trial_index": 269, "time_elapsed": 1255535, "internal_node_id": "0.0-197.0"}}, {"uniqueid": "MTK0445:3X65QVEQI1U17S5EA7E7PGEUCH7LCQ", "current_trial": 270, "dateTime": 1510880953657, "trialdata": {"rt": -1, "stimulus": "<p id=\"stim\">NECKLACE</p>", "key_press": -1, "type": "PRES_VIS", "word": "necklace", "wordID": 939, "conditions": [12, 1600, "v", 12000], "trial": 7, "serialpos": 5, "trial_type": "single-stim", "trial_index": 270, "time_elapsed": 1257994, "internal_node_id": "0.0-198.0"}}, {"uniqueid": "MTK0445:3X65QVEQI1U17S5EA7E7PGEUCH7LCQ", "current_trial": 271, "dateTime": 1510880956078, "trialdata": {"rt": -1, "stimulus": "<p id=\"stim\">CRUTCH</p>", "key_press": -1, "type": "PRES_VIS", "word": "crutch", "wordID": 416, "conditions": [12, 1600, "v", 12000], "trial": 7, "serialpos": 6, "trial_type": "single-stim", "trial_index": 271, "time_elapsed": 1260417, "internal_node_id": "0.0-199.0"}}, {"uniqueid": "MTK0445:3X65QVEQI1U17S5EA7E7PGEUCH7LCQ", "current_trial": 272, "dateTime": 1510880958527, "trialdata": {"rt": -1, "stimulus": "<p id=\"stim\">HIGHWAY</p>", "key_press": -1, "type": "PRES_VIS", "word": "highway", "wordID": 706, "conditions": [12, 1600, "v", 12000], "trial": 7, "serialpos": 7, "trial_type": "single-stim", "trial_index": 272, "time_elapsed": 1262866, "internal_node_id": "0.0-200.0"}}, {"uniqueid": "MTK0445:3X65QVEQI1U17S5EA7E7PGEUCH7LCQ", "current_trial": 273, "dateTime": 1510880961124, "trialdata": {"rt": -1, "stimulus": "<p id=\"stim\">CUPBOARD</p>", "key_press": -1, "type": "PRES_VIS", "word": "cupboard", "wordID": 424, "conditions": [12, 1600, "v", 12000], "trial": 7, "serialpos": 8, "trial_type": "single-stim", "trial_index": 273, "time_elapsed": 1265463, "internal_node_id": "0.0-201.0"}}, {"uniqueid": "MTK0445:3X65QVEQI1U17S5EA7E7PGEUCH7LCQ", "current_trial": 274, "dateTime": 1510880963588, "trialdata": {"rt": -1, "stimulus": "<p id=\"stim\">DRESSER</p>", "key_press": -1, "type": "PRES