{"condition": 0, "counterbalance": 2764, "assignmentId": "3TPWUS5F8A8HIMHDELL9YRVACJVWC6", "workerId": "MTK0789", "hitId": "3B9XR6P1WE2AFDRE3K1X9XZ0CWEJBG", "currenttrial": 626, "bonus": 0, "data": [{"uniqueid": "MTK0789:3TPWUS5F8A8HIMHDELL9YRVACJVWC6", "current_trial": 0, "dateTime": 1512753335672, "trialdata": {"rt": 1571, "key_press": 32, "type": "INSTRUCTIONS", "trial_type": "text", "trial_index": 0, "time_elapsed": 1576, "internal_node_id": "0.0-0.0"}}, {"uniqueid": "MTK0789:3TPWUS5F8A8HIMHDELL9YRVACJVWC6", "current_trial": 1, "dateTime": 1512753369734, "trialdata": {"rt": 34051, "key_press": 32, "type": "INSTRUCTIONS", "trial_type": "text", "trial_index": 1, "time_elapsed": 35638, "internal_node_id": "0.0-1.0"}}, {"uniqueid": "MTK0789:3TPWUS5F8A8HIMHDELL9YRVACJVWC6", "current_trial": 2, "dateTime": 1512753435649, "trialdata": {"rt": [65883], "responses": ["ocean"], "type": "AUDIO_TEST", "trial_type": "audio-test", "trial_index": 2, "time_elapsed": 101554, "internal_node_id": "0.0-2.0"}}, {"uniqueid": "MTK0789:3TPWUS5F8A8HIMHDELL9YRVACJVWC6", "current_trial": 3, "dateTime": 1512753467753, "trialdata": {"rt": [32094], "responses": ["crystal"], "type": "AUDIO_TEST", "trial_type": "audio-test", "trial_index": 3, "time_elapsed": 133658, "internal_node_id": "0.0-3.0"}}, {"uniqueid": "MTK0789:3TPWUS5F8A8HIMHDELL9YRVACJVWC6", "current_trial": 4, "dateTime": 1512753479736, "trialdata": {"rt": [11974], "responses": ["spice"], "type": "AUDIO_TEST", "trial_type": "audio-test", "trial_index": 4, "time_elapsed": 145641, "internal_node_id": "0.0-4.0"}}, {"uniqueid": "MTK0789:3TPWUS5F8A8HIMHDELL9YRVACJVWC6", "current_trial": 5, "dateTime": 1512753517857, "trialdata": {"rt": 37366, "responses": "{\"Q0\":\"10:00\",\"Q1\":\"7:30\",\"Q2\":\"3\"}", "type": "SLEEP_SURVEY", "trial_type": "survey-text", "trial_index": 5, "time_elapsed": 183762, "internal_node_id": "0.0-5.0"}}, {"uniqueid": "MTK0789:3TPWUS5F8A8HIMHDELL9YRVACJVWC6", "current_trial": 6, "dateTime": 1512753534747, "trialdata": {"rt": 15866, "key_press": 32, "type": "INSTRUCTIONS", "trial_type": "text", "trial_index": 6, "time_elapsed": 200651, "internal_node_id": "0.0-6.0"}}, {"uniqueid": "MTK0789:3TPWUS5F8A8HIMHDELL9YRVACJVWC6", "current_trial": 7, "dateTime": 1512753544822, "trialdata": {"rt": 9573, "key_press": 32, "type": "INSTRUCTIONS", "trial_type": "text", "trial_index": 7, "time_elapsed": 210727, "internal_node_id": "0.0-7.0"}}, {"uniqueid": "MTK0789:3TPWUS5F8A8HIMHDELL9YRVACJVWC6", "current_trial": 8, "dateTime": 1512753550123, "trialdata": {"rt": 4798, "key_press": 32, "type": "INSTRUCTIONS", "trial_type": "text", "trial_index": 8, "time_elapsed": 216027, "internal_node_id": "0.0-8.0"}}, {"uniqueid": "MTK0789:3TPWUS5F8A8HIMHDELL9YRVACJVWC6", "current_trial": 9, "dateTime": 1512753569152, "trialdata": {"rt": [3017, 6218, 8457, 10794, 12856, 14585, 16610], "responses": ["10", "20", "19", "15", "12", "16", "18"], "num1": [4, 8, 7, 5, 6, 2, 8, 7], "num2": [1, 6, 7, 2, 1, 8, 9, 1], "num3": [5, 6, 5, 8, 5, 6, 1, 7], "type": "DISTRACTOR", "conditions": [18, 1200, "a", 18000], "trial": 0, "trial_type": "math-distractor", "trial_index": 9, "time_elapsed": 235056, "internal_node_id": "0.0-9.0"}}, {"uniqueid": "MTK0789:3TPWUS5F8A8HIMHDELL9YRVACJVWC6", "current_trial": 10, "dateTime": 1512753572157, "trialdata": {"rt": -1, "stimulus": "<p id=\"stim\">10</p>", "key_press": -1, "trial_type": "single-stim", "trial_index": 10, "time_elapsed": 238061, "internal_node_id": "0.0-10.0-0.0"}}, {"uniqueid": "MTK0789:3TPWUS5F8A8HIMHDELL9YRVACJVWC6", "current_trial": 11, "dateTime": 1512753573160, "trialdata": {"rt": -1, "stimulus": "<p id=\"stim\">9</p>", "key_press": -1, "trial_type": "single-stim", "trial_index": 11, "time_elapsed": 239064, "internal_node_id": "0.0-10.0-1.0"}}, {"uniqueid": "MTK0789:3TPWUS5F8A8HIMHDELL9YRVACJVWC6", "current_trial": 12, "dateTime": 1512753574161, "trialdata": {"rt": -1, "stimulus": "<p id=\"stim\">8</p>", "key_press": -1, "trial_type": "single-stim", "trial_index": 12, "time_elapsed": 240066, "internal_node_id": "0.0-10.0-2.0"}}, {"uniqueid": "MTK0789:3TPWUS5F8A8HIMHDELL9YRVACJVWC6", "current_trial": 13, "dateTime": 1512753575163, "trialdata": {"rt": -1, "stimulus": "<p id=\"stim\">7</p>", "key_press": -1, "trial_type": "single-stim", "trial_index": 13, "time_elapsed": 241068, "internal_node_id": "0.0-10.0-3.0"}}, {"uniqueid": "MTK0789:3TPWUS5F8A8HIMHDELL9YRVACJVWC6", "current_trial": 14, "dateTime": 1512753576166, "trialdata": {"rt": -1, "stimulus": "<p id=\"stim\">6</p>", "key_press": -1, "trial_type": "single-stim", "trial_index": 14, "time_elapsed": 242071, "internal_node_id": "0.0-10.0-4.0"}}, {"uniqueid": "MTK0789:3TPWUS5F8A8HIMHDELL9YRVACJVWC6", "current_trial": 15, "dateTime": 1512753577188, "trialdata": {"rt": -1, "stimulus": "<p id=\"stim\">5</p>", "key_press": -1, "trial_type": "single-stim", "trial_index": 15, "time_elapsed": 243093, "internal_node_id": "0.0-10.0-5.0"}}, {"uniqueid": "MTK0789:3TPWUS5F8A8HIMHDELL9YRVACJVWC6", "current_trial": 16, "dateTime": 1512753578190, "trialdata": {"rt": -1, "stimulus": "<p id=\"stim\">4</p>", "key_press": -1, "trial_type": "single-stim", "trial_index": 16, "time_elapsed": 244095, "internal_node_id": "0.0-10.0-6.0"}}, {"uniqueid": "MTK0789:3TPWUS5F8A8HIMHDELL9YRVACJVWC6", "current_trial": 17, "dateTime": 1512753579192, "trialdata": {"rt": -1, "stimulus": "<p id=\"stim\">3</p>", "key_press": -1, "trial_type": "single-stim", "trial_index": 17, "time_elapsed": 245097, "internal_node_id": "0.0-10.0-7.0"}}, {"uniqueid": "MTK0789:3TPWUS5F8A8HIMHDELL9YRVACJVWC6", "current_trial": 18, "dateTime": 1512753580204, "trialdata": {"rt": -1, "stimulus": "<p id=\"stim\">2</p>", "key_press": -1, "trial_type": "single-stim", "trial_index": 18, "time_elapsed": 246109, "internal_node_id": "0.0-10.0-8.0"}}, {"uniqueid": "MTK0789:3TPWUS5F8A8HIMHDELL9YRVACJVWC6", "current_trial": 19, "dateTime": 1512753581206, "trialdata": {"rt": -1, "stimulus": "<p id=\"stim\">1</p>", "key_press": -1, "trial_type": "single-stim", "trial_index": 19, "time_elapsed": 247111, "internal_node_id": "0.0-10.0-9.0"}}, {"uniqueid": "MTK0789:3TPWUS5F8A8HIMHDELL9YRVACJVWC6", "current_trial": 20, "dateTime": 1512753582708, "trialdata": {"rt": -1, "stimulus": "<p id=\"stim\">+</p>", "key_press": -1, "type": "FIXATION", "trial_type": "single-stim", "trial_index": 20, "time_elapsed": 248612, "internal_node_id": "0.0-11.0-0.0"}}, {"uniqueid": "MTK0789:3TPWUS5F8A8HIMHDELL9YRVACJVWC6", "current_trial": 21, "dateTime": 1512753585027, "trialdata": {"rt": -1000, "stimulus": "/static/audio/wordpool/WIFE.wav", "key_press": -1, "type": "PRES_AUD", "word": "wife", "wordID": 1608, "conditions": [18, 1200, "a", 18000], "trial": 0, "serialpos": 0, "trial_type": "single-audio", "trial_index": 21, "time_elapsed": 250932, "internal_node_id": "0.0-12.0"}}, {"uniqueid": "MTK0789:3TPWUS5F8A8HIMHDELL9YRVACJVWC6", "current_trial": 22, "dateTime": 1512753588611, "trialdata": {"rt": -1000, "stimulus": "/static/audio/wordpool/HATCHET.wav", "key_press": -1, "type": "PRES_AUD", "word": "hatchet", "wordID": 690, "conditions": [18, 1200, "a", 18000], "trial": 0, "serialpos": 1, "trial_type": "single-audio", "trial_index": 22, "time_elapsed": 254515, "internal_node_id": "0.0-13.0"}}, {"uniqueid": "MTK0789:3TPWUS5F8A8HIMHDELL9YRVACJVWC6", "current_trial": 23, "dateTime": 1512753590837, "trialdata": {"rt": 678.6666666666292, "stimulus": "/static/audio/wordpool/LIZARD.wav", "key_press": 18, "type": "PRES_AUD", "word": "lizard", "wordID": 833, "conditions": [18, 1200, "a", 18000], "trial": 0, "serialpos": 2, "trial_type": "single-audio", "trial_index": 23, "time_elapsed": 256742, "internal_node_id": "0.0-14.0"}}, {"uniqueid": "MTK0789:3TPWUS5F8A8HIMHDELL9YRVACJVWC6", "current_trial": 24, "dateTime": 1512753593161, "trialdata": {"rt": -1000, "stimulus": "/static/audio/wordpool/WINDOW.wav", "key_press": -1, "type": "PRES_AUD", "word": "window", "wordID": 1610, "conditions": [18, 1200, "a", 18000], "trial": 0, "serialpos": 3, "trial_type": "single-audio", "trial_index": 24, "time_elapsed": 259066, "internal_node_id": "0.0-15.0"}}, {"uniqueid": "MTK0789:3TPWUS5F8A8HIMHDELL9YRVACJVWC6", "current_trial": 25, "dateTime": 1512753595344, "trialdata": {"rt": -1000, "stimulus": "/static/audio/wordpool/COLLEGE.wav", "key_press": -1, "type": "PRES_AUD", "word": "college", "wordID": 345, "conditions": [18, 1200, "a", 18000], "trial": 0, "serialpos": 4, "trial_type": "single-audio", "trial_index": 25, "time_elapsed": 261249, "internal_node_id": "0.0-16.0"}}, {"uniqueid": "MTK0789:3TPWUS5F8A8HIMHDELL9YRVACJVWC6", "current_trial": 26, "dateTime": 1512753597675, "trialdata": {"rt": -1000, "stimulus": "/static/audio/wordpool/AIRPLANE.wav", "key_press": -1, "type": "PRES_AUD", "word": "airplane", "wordID": 11, "conditions": [18, 1200, "a", 18000], "trial": 0, "serialpos": 5, "trial_type": "single-audio", "trial_index": 26, "time_elapsed": 263579, "internal_node_id": "0.0-17.0"}}, {"uniqueid": "MTK0789:3TPWUS5F8A8HIMHDELL9YRVACJVWC6", "current_trial": 27, "dateTime": 1512753599895, "trialdata": {"rt": -1000, "stimulus": "/static/audio/wordpool/SPONGE.wav", "key_press": -1, "type": "PRES_AUD", "word": "sponge", "wordID": 1354, "conditions": [18, 1200, "a", 18000], "trial": 0, "serialpos": 6, "trial_type": "single-audio", "trial_index": 27, "time_elapsed": 265799, "internal_node_id": "0.0-18.0"}}, {"uniqueid": "MTK0789:3TPWUS5F8A8HIMHDELL9YRVACJVWC6", "current_trial": 28, "dateTime": 1512753603076, "trialdata": {"rt": -1000, "stimulus": "/static/audio/wordpool/OUTFIT.wav", "key_press": -1, "type": "PRES_AUD", "word": "outfit", "wordID": 987, "conditions": [18, 1200, "a", 18000], "trial": 0, "serialpos": 7, "trial_type": "single-audio", "trial_index": 28, "time_elapsed": 268981, "internal_node_id": "0.0-19.0"}}, {"uniqueid": "MTK0789:3TPWUS5F8A8HIMHDELL9YRVACJVWC6", "current_trial": 29, "dateTime": 1512753606536, "trialdata": {"rt": -1000, "stimulus": "/static/audio/wordpool/PIANO.wav", "key_press": -1, "type": "PRES_AUD", "word": "piano", "wordID": 1056, "conditions": [18, 1200, "a", 18000], "trial": 0, "serialpos": 8, "trial_type": "single-audio", "trial_index": 29, "time_elapsed": 272441, "internal_node_id": "0.0-20.0"}}, {"uniqueid": "MTK0789:3TPWUS5F8A8HIMHDELL9YRVACJVWC6", "current_trial": 30, "dateTime": 1512753608778, "trialdata": {"rt": -1000, "stimulus": "/static/audio/wordpool/SEAFOOD.wav", "key_press": -1, "type": "PRES_AUD", "word": "seafood", "wordID": 1259, "conditions": [18, 1200, "a", 18000], "trial": 0, "serialpos": 9, "trial_type": "single-audio", "trial_index": 30, "time_elapsed": 274683, "internal_node_id": "0.0-21.0"}}, {"uniqueid": "MTK0789:3TPWUS5F8A8HIMHDELL9YRVACJVWC6", "current_trial": 31, "dateTime": 1512753611044, "trialdata": {"rt": -1000, "stimulus": "/static/audio/wordpool/RAZOR.wav", "key_press": -1, "type": "PRES_AUD", "word": "razor", "wordID": 1170, "conditions": [18, 1200, "a", 18000], "trial": 0, "serialpos": 10, "trial_type": "single-audio", "trial_index": 31, "time_elapsed": 276949, "internal_node_id": "0.0-22.0"}}, {"uniqueid": "MTK0789:3TPWUS5F8A8HIMHDELL9YRVACJVWC6", "current_trial": 32, "dateTime": 1512753613385, "trialdata": {"rt": -1000, "stimulus": "/static/audio/wordpool/AGENT.wav", "key_press": -1, "type": "PRES_AUD", "word": "agent", "wordID": 9, "conditions": [18, 1200, "a", 18000], "trial": 0, "serialpos": 11, "trial_type": "single-audio", "trial_index": 32, "time_elapsed": 279290, "internal_node_id": "0.0-23.0"}}, {"uniqueid": "MTK0789:3TPWUS5F8A8HIMHDELL9YRVACJVWC6", "current_trial": 33, "dateTime": 1512753615491, "trialdata": {"rt": -1000, "stimulus": "/static/audio/wordpool/MACHINE.wav", "key_press": -1, "type": "PRES_AUD", "word": "machine", "wordID": 851, "conditions": [18, 1200, "a", 18000], "trial": 0, "serialpos": 12, "trial_type": "single-audio", "trial_index": 33, "time_elapsed": 281395, "internal_node_id": "0.0-24.0"}}, {"uniqueid": "MTK0789:3TPWUS5F8A8HIMHDELL9YRVACJVWC6", "current_trial": 34, "dateTime": 1512753617652, "trialdata": {"rt": -1000, "stimulus": "/static/audio/wordpool/SALMON.wav", "key_press": -1, "type": "PRES_AUD", "word": "salmon", "wordID": 1226, "conditions": [18, 1200, "a", 18000], "trial": 0, "serialpos": 13, "trial_type": "single-audio", "trial_index": 34, "time_elapsed": 283557, "internal_node_id": "0.0-25.0"}}, {"uniqueid": "MTK0789:3TPWUS5F8A8HIMHDELL9YRVACJVWC6", "current_trial": 35, "dateTime": 1512753619668, "trialdata": {"rt": -1000, "stimulus": "/static/audio/wordpool/SURVEY.wav", "key_press": -1, "type": "PRES_AUD", "word": "survey", "wordID": 1413, "conditions": [18, 1200, "a", 18000], "trial": 0, "serialpos": 14, "trial_type": "single-audio", "trial_index": 35, "time_elapsed": 285572, "internal_node_id": "0.0-26.0"}}, {"uniqueid": "MTK0789:3TPWUS5F8A8HIMHDELL9YRVACJVWC6", "current_trial": 36, "dateTime": 1512753621679, "trialdata": {"rt": -1000, "stimulus": "/static/audio/wordpool/DONOR.wav", "key_press": -1, "type": "PRES_AUD", "word": "donor", "wordID": 484, "conditions": [18, 1200, "a", 18000], "trial": 0, "serialpos": 15, "trial_type": "single-audio", "trial_index": 36, "time_elapsed": 287584, "internal_node_id": "0.0-27.0"}}, {"uniqueid": "MTK0789:3TPWUS5F8A8HIMHDELL9YRVACJVWC6", "current_trial": 37, "dateTime": 1512753624023, "trialdata": {"rt": -1000, "stimulus": "/static/audio/wordpool/QUARTER.wav", "key_press": -1, "type": "PRES_AUD", "word": "quarter", "wordID": 1147, "conditions": [18, 1200, "a", 18000], "trial": 0, "serialpos": 16, "trial_type": "single-audio", "trial_index": 37, "time_elapsed": 289928, "internal_node_id": "0.0-28.0"}}, {"uniqueid": "MTK0789:3TPWUS5F8A8HIMHDELL9YRVACJVWC6", "current_trial": 38, "dateTime": 1512753626042, "trialdata": {"rt": -1000, "stimulus": "/static/audio/wordpool/PUDDLE.wav", "key_press": -1, "type": "PRES_AUD", "word": "puddle", "wordID": 1139, "conditions": [18, 1200, "a", 18000], "trial": 0, "serialpos": 17, "trial_type": "single-audio", "trial_index": 38, "time_elapsed": 291946, "internal_node_id": "0.0-29.0"}}, {"uniqueid": "MTK0789:3TPWUS5F8A8HIMHDELL9YRVACJVWC6", "current_trial": 39, "dateTime": 1512753627289, "trialdata": {"rt": -1, "stimulus": "", "key_press": -1, "type": "PRE_RECALL_DELAY", "trial_type": "single-stim", "trial_index": 39, "time_elapsed": 293194, "internal_node_id": "0.0-30.0-0.0"}}, {"uniqueid": "MTK0789:3TPWUS5F8A8HIMHDELL9YRVACJVWC6", "current_trial": 40, "dateTime": 1512753627792, "trialdata": {"rt": -1000, "stimulus": "/static/audio/400Hz.wav", "key_press": -1, "type": "PRE_RECALL_ALERT", "trial_type": "single-audio", "trial_index": 40, "time_elapsed": 293696, "internal_node_id": "0.0-31.0"}}, {"uniqueid": "MTK0789:3TPWUS5F8A8HIMHDELL9YRVACJVWC6", "current_trial": 41, "dateTime": 1512753687804, "trialdata": {"rt": [3939, 4002, 6274, 8058, 11587, 15570], "recwords": ["seafood", "", "puddle", "quarter", "survey", "lizard"], "type": "FREE_RECALL", "conditions": [18, 1200, "a", 18000], "trial": 0, "trial_type": "free-recall", "trial_index": 41, "time_elapsed": 353704, "internal_node_id": "0.0-32.0-0.0"}}, {"uniqueid": "MTK0789:3TPWUS5F8A8HIMHDELL9YRVACJVWC6", "current_trial": 42, "dateTime": 1512753731062, "trialdata": {"rt": 40997, "key_press": 32, "type": "INSTRUCTIONS", "trial_type": "text", "trial_index": 42, "time_elapsed": 396967, "internal_node_id": "0.0-33.0"}}, {"uniqueid": "MTK0789:3TPWUS5F8A8HIMHDELL9YRVACJVWC6", "current_trial": 43, "dateTime": 1512753751140, "trialdata": {"rt": [2817, 4930, 9713, 11441, 16624], "responses": ["14", "8", "22", "10", "23"], "num1": [4, 2, 6, 7, 9, 5], "num2": [9, 1, 7, 1, 7, 4], "num3": [1, 5, 9, 2, 7, 4], "type": "DISTRACTOR", "conditions": [18, 1200, "v", 18000], "trial": 1, "trial_type": "math-distractor", "trial_index": 43, "time_elapsed": 417045, "internal_node_id": "0.0-34.0"}}, {"uniqueid": "MTK0789:3TPWUS5F8A8HIMHDELL9YRVACJVWC6", "current_trial": 44, "dateTime": 1512753754142, "trialdata": {"rt": -1, "stimulus": "<p id=\"stim\">10</p>", "key_press": -1, "trial_type": "single-stim", "trial_index": 44, "time_elapsed": 420047, "internal_node_id": "0.0-35.0-0.0"}}, {"uniqueid": "MTK0789:3TPWUS5F8A8HIMHDELL9YRVACJVWC6", "current_trial": 45, "dateTime": 1512753755144, "trialdata": {"rt": -1, "stimulus": "<p id=\"stim\">9</p>", "key_press": -1, "trial_type": "single-stim", "trial_index": 45, "time_elapsed": 421048, "internal_node_id": "0.0-35.0-1.0"}}, {"uniqueid": "MTK0789:3TPWUS5F8A8HIMHDELL9YRVACJVWC6", "current_trial": 46, "dateTime": 1512753756145, "trialdata": {"rt": -1, "stimulus": "<p id=\"stim\">8</p>", "key_press": -1, "trial_type": "single-stim", "trial_index": 46, "time_elapsed": 422050, "internal_node_id": "0.0-35.0-2.0"}}, {"uniqueid": "MTK0789:3TPWUS5F8A8HIMHDELL9YRVACJVWC6", "current_trial": 47, "dateTime": 1512753757156, "trialdata": {"rt": -1, "stimulus": "<p id=\"stim\">7</p>", "key_press": -1, "trial_type": "single-stim", "trial_index": 47, "time_elapsed": 423061, "internal_node_id": "0.0-35.0-3.0"}}, {"uniqueid": "MTK0789:3TPWUS5F8A8HIMHDELL9YRVACJVWC6", "current_trial": 48, "dateTime": 1512753758158, "trialdata": {"rt": 328, "stimulus": "<p id=\"stim\">6</p>", "key_press": 18, "trial_type": "single-stim", "trial_index": 48, "time_elapsed": 424062, "internal_node_id": "0.0-35.0-4.0"}}, {"uniqueid": "MTK0789:3TPWUS5F8A8HIMHDELL9YRVACJVWC6", "current_trial": 49, "dateTime": 1512753759159, "trialdata": {"rt": -1, "stimulus": "<p id=\"stim\">5</p>", "key_press": -1, "trial_type": "single-stim", "trial_index": 49, "time_elapsed": 425064, "internal_node_id": "0.0-35.0-5.0"}}, {"uniqueid": "MTK0789:3TPWUS5F8A8HIMHDELL9YRVACJVWC6", "current_trial": 50, "dateTime": 1512753760184, "trialdata": {"rt": -1, "stimulus": "<p id=\"stim\">4</p>", "key_press": -1, "trial_type": "single-stim", "trial_index": 50, "time_elapsed": 426089, "internal_node_id": "0.0-35.0-6.0"}}, {"uniqueid": "MTK0789:3TPWUS5F8A8HIMHDELL9YRVACJVWC6", "current_trial": 51, "dateTime": 1512753761187, "trialdata": {"rt": -1, "stimulus": "<p id=\"stim\">3</p>", "key_press": -1, "trial_type": "single-stim", "trial_index": 51, "time_elapsed": 427092, "internal_node_id": "0.0-35.0-7.0"}}, {"uniqueid": "MTK0789:3TPWUS5F8A8HIMHDELL9YRVACJVWC6", "current_trial": 52, "dateTime": 1512753762189, "trialdata": {"rt": -1, "stimulus": "<p id=\"stim\">2</p>", "key_press": -1, "trial_type": "single-stim", "trial_index": 52, "time_elapsed": 428094, "internal_node_id": "0.0-35.0-8.0"}}, {"uniqueid": "MTK0789:3TPWUS5F8A8HIMHDELL9YRVACJVWC6", "current_trial": 53, "dateTime": 1512753763191, "trialdata": {"rt": -1, "stimulus": "<p id=\"stim\">1</p>", "key_press": -1, "trial_type": "single-stim", "trial_index": 53, "time_elapsed": 429096, "internal_node_id": "0.0-35.0-9.0"}}, {"uniqueid": "MTK0789:3TPWUS5F8A8HIMHDELL9YRVACJVWC6", "current_trial": 54, "dateTime": 1512753764693, "trialdata": {"rt": -1, "stimulus": "<p id=\"stim\">+</p>", "key_press": -1, "type": "FIXATION", "trial_type": "single-stim", "trial_index": 54, "time_elapsed": 430598, "internal_node_id": "0.0-36.0-0.0"}}, {"uniqueid": "MTK0789:3TPWUS5F8A8HIMHDELL9YRVACJVWC6", "current_trial": 55, "dateTime": 1512753765905, "trialdata": {"rt": -1, "stimulus": "<p id=\"stim\">COOKBOOK</p>", "key_press": -1, "type": "PRES_VIS", "word": "cookbook", "wordID": 372, "conditions": [18, 1200, "v", 18000], "trial": 1, "serialpos": 0, "trial_type": "single-stim", "trial_index": 55, "time_elapsed": 431810, "internal_node_id": "0.0-37.0"}}, {"uniqueid": "MTK0789:3TPWUS5F8A8HIMHDELL9YRVACJVWC6", "current_trial": 56, "dateTime": 1512753768181, "trialdata": {"rt": -1, "stimulus": "<p id=\"stim\">CHILD</p>", "key_press": -1, "type": "PRES_VIS", "word": "child", "wordID": 298, "conditions": [18, 1200, "v", 18000], "trial": 1, "serialpos": 1, "trial_type": "single-stim", "trial_index": 56, "time_elapsed": 434086, "internal_node_id": "0.0-38.0"}}, {"uniqueid": "MTK0789:3TPWUS5F8A8HIMHDELL9YRVACJVWC6", "current_trial": 57, "dateTime": 1512753770415, "trialdata": {"rt": -1, "stimulus": "<p id=\"stim\">PUPPY</p>", "key_press": -1, "type": "PRES_VIS", "word": "puppy", "wordID": 1143, "conditions": [18, 1200, "v", 18000], "trial": 1, "serialpos": 2, "trial_type": "single-stim", "trial_index": 57, "time_elapsed": 436319, "internal_node_id": "0.0-39.0"}}, {"uniqueid": "MTK0789:3TPWUS5F8A8HIMHDELL9YRVACJVWC6", "current_trial": 58, "dateTime": 1512753773255, "trialdata": {"rt": -1, "stimulus": "<p id=\"stim\">MAILMAN</p>", "key_press": -1, "type": "PRES_VIS", "word": "mailman", "wordID": 857, "conditions": [18, 1200, "v", 18000], "trial": 1, "serialpos": 3, "trial_type": "single-stim", "trial_index": 58, "time_elapsed": 439159, "internal_node_id": "0.0-40.0"}}, {"uniqueid": "MTK0789:3TPWUS5F8A8HIMHDELL9YRVACJVWC6", "current_trial": 59, "dateTime": 1512753775865, "trialdata": {"rt": -1, "stimulus": "<p id=\"stim\">LAPEL</p>", "key_press": -1, "type": "PRES_VIS", "word": "lapel", "wordID": 799, "conditions": [18, 1200, "v", 18000], "trial": 1, "serialpos": 4, "trial_type": "single-stim", "trial_index": 59, "time_elapsed": 441769, "internal_node_id": "0.0-41.0"}}, {"uniqueid": "MTK0789:3TPWUS5F8A8HIMHDELL9YRVACJVWC6", "current_trial": 60, "dateTime": 1512753777883, "trialdata": {"rt": -1, "stimulus": "<p id=\"stim\">EMPIRE</p>", "key_press": -1, "type": "PRES_VIS", "word": "empire", "wordID": 529, "conditions": [18, 1200, "v", 18000], "trial": 1, "serialpos": 5, "trial_type": "single-stim", "trial_index": 60, "time_elapsed": 443787, "internal_node_id": "0.0-42.0"}}, {"uniqueid": "MTK0789:3TPWUS5F8A8HIMHDELL9YRVACJVWC6", "current_trial": 61, "dateTime": 1512753780016, "trialdata": {"rt": -1, "stimulus": "<p id=\"stim\">XEROX</p>", "key_press": -1, "type": "PRES_VIS", "word": "xerox", "wordID": 1627, "conditions": [18, 1200, "v", 18000], "trial": 1, "serialpos": 6, "trial_type": "single-stim", "trial_index": 61, "time_elapsed": 445920, "internal_node_id": "0.0-43.0"}}, {"uniqueid": "MTK0789:3TPWUS5F8A8HIMHDELL9YRVACJVWC6", "current_trial": 62, "dateTime": 1512753782743, "trialdata": {"rt": -1, "stimulus": "<p id=\"stim\">CIGAR</p>", "key_press": -1, "type": "PRES_VIS", "word": "cigar", "wordID": 307, "conditions": [18, 1200, "v", 18000], "trial": 1, "serialpos": 7, "trial_type": "single-stim", "trial_index": 62, "time_elapsed": 448648, "internal_node_id": "0.0-44.0"}}, {"uniqueid": "MTK0789:3TPWUS5F8A8HIMHDELL9YRVACJVWC6", "current_trial": 63, "dateTime": 1512753784774, "trialdata": {"rt": 1068, "stimulus": "<p id=\"stim\">STAPLE</p>", "key_press": 18, "type": "PRES_VIS", "word": "staple", "wordID": 1370, "conditions": [18, 1200, "v", 18000], "trial": 1, "serialpos": 8, "trial_type": "single-stim", "trial_index": 63, "time_elapsed": 450678, "internal_node_id": "0.0-45.0"}}, {"uniqueid": "MTK0789:3TPWUS5F8A8HIMHDELL9YRVACJVWC6", "current_trial": 64, "dateTime": 1512753786985, "trialdata": {"rt": -1, "stimulus": "<p id=\"stim\">DRINK</p>", "key_press": -1, "type": "PRES_VIS", "word": "drink", "wordID": 497, "conditions": [18, 1200, "v", 18000], "trial": 1, "serialpos": 9, "trial_type": "single-stim", "trial_index": 64, "time_elapsed": 452889, "internal_node_id": "0.0-46.0"}}, {"uniqueid": "MTK0789:3TPWUS5F8A8HIMHDELL9YRVACJVWC6", "current_trial": 65, "dateTime": 1512753789064, "trialdata": {"rt": 560, "stimulus": "<p id=\"stim\">CABBAGE</p>", "key_press": 18, "type": "PRES_VIS", "word": "cabbage", "wordID": 209, "conditions": [18, 1200, "v", 18000], "trial": 1, "serialpos": 10, "trial_type": "single-stim", "trial_index": 65, "time_elapsed": 454968, "internal_node_id": "0.0-47.0"}}, {"uniqueid": "MTK0789:3TPWUS5F8A8HIMHDELL9YRVACJVWC6", "current_trial": 66, "dateTime": 1512753791187, "trialdata": {"rt": -1, "stimulus": "<p id=\"stim\">SNAIL</p>", "key_press": -1, "type": "PRES_VIS", "word": "snail", "wordID": 1331, "conditions": [18, 1200, "v", 18000], "trial": 1, "serialpos": 11, "trial_type": "single-stim", "trial_index": 66, "time_elapsed": 457092, "internal_node_id": "0.0-48.0"}}, {"uniqueid": "MTK0789:3TPWUS5F8A8HIMHDELL9YRVACJVWC6", "current_trial": 67, "dateTime": 1512753793502, "trialdata": {"rt": -1, "stimulus": "<p id=\"stim\">CREVICE</p>", "key_press": -1, "type": "PRES_VIS", "word": "crevice", "wordID": 404, "conditions": [18, 1200, "v", 18000], "trial": 1, "serialpos": 12, "trial_type": "single-stim", "trial_index": 67, "time_elapsed": 459406, "internal_node_id": "0.0-49.0"}}, {"uniqueid": "MTK0789:3TPWUS5F8A8HIMHDELL9YRVACJVWC6", "current_trial": 68, "dateTime": 1512753795699, "trialdata": {"rt": -1, "stimulus": "<p id=\"stim\">CASHIER</p>", "key_press": -1, "type": "PRES_VIS", "word": "cashier", "wordID": 253, "conditions": [18, 1200, "v", 18000], "trial": 1, "serialpos": 13, "trial_type": "single-stim", "trial_index": 68, "time_elapsed": 461601, "internal_node_id": "0.0-50.0"}}, {"uniqueid": "MTK0789:3TPWUS5F8A8HIMHDELL9YRVACJVWC6", "current_trial": 69, "dateTime": 1512753797998, "trialdata": {"rt": -1, "stimulus": "<p id=\"stim\">SUNRISE</p>", "key_press": -1, "type": "PRES_VIS", "word": "sunrise", "wordID": 1406, "conditions": [18, 1200, "v", 18000], "trial": 1, "serialpos": 14, "trial_type": "single-stim", "trial_index": 69, "time_elapsed": 463903, "internal_node_id": "0.0-51.0"}}, {"uniqueid": "MTK0789:3TPWUS5F8A8HIMHDELL9YRVACJVWC6", "current_trial": 70, "dateTime": 1512753800168, "trialdata": {"rt": -1, "stimulus": "<p id=\"stim\">BANQUET</p>", "key_press": -1, "type": "PRES_VIS", "word": "banquet", "wordID": 85, "conditions": [18, 1200, "v", 18000], "trial": 1, "serialpos": 15, "trial_type": "single-stim", "trial_index": 70, "time_elapsed": 466073, "internal_node_id": "0.0-52.0"}}, {"uniqueid": "MTK0789:3TPWUS5F8A8HIMHDELL9YRVACJVWC6", "current_trial": 71, "dateTime": 1512753802465, "trialdata": {"rt": -1, "stimulus": "<p id=\"stim\">BEAST</p>", "key_press": -1, "type": "PRES_VIS", "word": "beast", "wordID": 107, "conditions": [18, 1200, "v", 18000], "trial": 1, "serialpos": 16, "trial_type": "single-stim", "trial_index": 71, "time_elapsed": 468370, "internal_node_id": "0.0-53.0"}}, {"uniqueid": "MTK0789:3TPWUS5F8A8HIMHDELL9YRVACJVWC6", "current_trial": 72, "dateTime": 1512753804719, "trialdata": {"rt": -1, "stimulus": "<p id=\"stim\">PIMPLE</p>", "key_press": -1, "type": "PRES_VIS", "word": "pimple", "wordID": 1070, "conditions": [18, 1200, "v", 18000], "trial": 1, "serialpos": 17, "trial_type": "single-stim", "trial_index": 72, "time_elapsed": 470624, "internal_node_id": "0.0-54.0"}}, {"uniqueid": "MTK0789:3TPWUS5F8A8HIMHDELL9YRVACJVWC6", "current_trial": 73, "dateTime": 1512753806941, "trialdata": {"rt": -1, "stimulus": "", "key_press": -1, "type": "PRE_RECALL_DELAY", "trial_type": "single-stim", "trial_index": 73, "time_elapsed": 472845, "internal_node_id": "0.0-55.0-0.0"}}, {"uniqueid": "MTK0789:3TPWUS5F8A8HIMHDELL9YRVACJVWC6", "current_trial": 74, "dateTime": 1512753807594, "trialdata": {"rt": -1000, "stimulus": "/static/audio/400Hz.wav", "key_press": -1, "type": "PRE_RECALL_ALERT", "trial_type": "single-audio", "trial_index": 74, "time_elapsed": 473499, "internal_node_id": "0.0-56.0"}}, {"uniqueid": "MTK0789:3TPWUS5F8A8HIMHDELL9YRVACJVWC6", "current_trial": 75, "dateTime": 1512753867604, "trialdata": {"rt": [8884, 21961], "recwords": ["cafe", "cabbage"], "type": "FREE_RECALL", "conditions": [18, 1200, "v", 18000], "trial": 1, "trial_type": "free-recall", "trial_index": 75, "time_elapsed": 533504, "internal_node_id": "0.0-57.0-0.0"}}, {"uniqueid": "MTK0789:3TPWUS5F8A8HIMHDELL9YRVACJVWC6", "current_trial": 76, "dateTime": 1512753877876, "trialdata": {"rt": 8239, "key_press": 18, "type": "INSTRUCTIONS", "trial_type": "text", "trial_index": 76, "time_elapsed": 543770, "internal_node_id": "0.0-58.0"}}, {"uniqueid": "MTK0789:3TPWUS5F8A8HIMHDELL9YRVACJVWC6", "current_trial": 77, "dateTime": 1512753895771, "trialdata": {"rt": [], "responses": [], "num1": [9], "num2": [8], "num3": [6], "type": "DISTRACTOR", "conditions": [24, 800, "a", 12000], "trial": 2, "trial_type": "math-distractor", "trial_index": 77, "time_elapsed": 561676, "internal_node_id": "0.0-59.0"}}, {"uniqueid": "MTK0789:3TPWUS5F8A8HIMHDELL9YRVACJVWC6", "current_trial": 78, "dateTime": 1512753898774, "trialdata": {"rt": -1, "stimulus": "<p id=\"stim\">10</p>", "key_press": -1, "trial_type": "single-stim", "trial_index": 78, "time_elapsed": 564679, "internal_node_id": "0.0-60.0-0.0"}}, {"uniqueid": "MTK0789:3TPWUS5F8A8HIMHDELL9YRVACJVWC6", "current_trial": 79, "dateTime": 1512753899775, "trialdata": {"rt": -1, "stimulus": "<p id=\"stim\">9</p>", "key_press": -1, "trial_type": "single-stim", "trial_index": 79, "time_elapsed": 565680, "internal_node_id": "0.0-60.0-1.0"}}, {"uniqueid": "MTK0789:3TPWUS5F8A8HIMHDELL9YRVACJVWC6", "current_trial": 80, "dateTime": 1512753900778, "trialdata": {"rt": -1, "stimulus": "<p id=\"stim\">8</p>", "key_press": -1, "trial_type": "single-stim", "trial_index": 80, "time_elapsed": 566683, "internal_node_id": "0.0-60.0-2.0"}}, {"uniqueid": "MTK0789:3TPWUS5F8A8HIMHDELL9YRVACJVWC6", "current_trial": 81, "dateTime": 1512753901780, "trialdata": {"rt": -1, "stimulus": "<p id=\"stim\">7</p>", "key_press": -1, "trial_type": "single-stim", "trial_index": 81, "time_elapsed": 567685, "internal_node_id": "0.0-60.0-3.0"}}, {"uniqueid": "MTK0789:3TPWUS5F8A8HIMHDELL9YRVACJVWC6", "current_trial": 82, "dateTime": 1512753902783, "trialdata": {"rt": -1, "stimulus": "<p id=\"stim\">6</p>", "key_press": -1, "trial_type": "single-stim", "trial_index": 82, "time_elapsed": 568687, "internal_node_id": "0.0-60.0-4.0"}}, {"uniqueid": "MTK0789:3TPWUS5F8A8HIMHDELL9YRVACJVWC6", "current_trial": 83, "dateTime": 1512753903785, "trialdata": {"rt": -1, "stimulus": "<p id=\"stim\">5</p>", "key_press": -1, "trial_type": "single-stim", "trial_index": 83, "time_elapsed": 569690, "internal_node_id": "0.0-60.0-5.0"}}, {"uniqueid": "MTK0789:3TPWUS5F8A8HIMHDELL9YRVACJVWC6", "current_trial": 84, "dateTime": 1512753904787, "trialdata": {"rt": -1, "stimulus": "<p id=\"stim\">4</p>", "key_press": -1, "trial_type": "single-stim", "trial_index": 84, "time_elapsed": 570692, "internal_node_id": "0.0-60.0-6.0"}}, {"uniqueid": "MTK0789:3TPWUS5F8A8HIMHDELL9YRVACJVWC6", "current_trial": 85, "dateTime": 1512753905789, "trialdata": {"rt": -1, "stimulus": "<p id=\"stim\">3</p>", "key_press": -1, "trial_type": "single-stim", "trial_index": 85, "time_elapsed": 571694, "internal_node_id": "0.0-60.0-7.0"}}, {"uniqueid": "MTK0789:3TPWUS5F8A8HIMHDELL9YRVACJVWC6", "current_trial": 86, "dateTime": 1512753906791, "trialdata": {"rt": -1, "stimulus": "<p id=\"stim\">2</p>", "key_press": -1, "trial_type": "single-stim", "trial_index": 86, "time_elapsed": 572696, "internal_node_id": "0.0-60.0-8.0"}}, {"uniqueid": "MTK0789:3TPWUS5F8A8HIMHDELL9YRVACJVWC6", "current_trial": 87, "dateTime": 1512753907793, "trialdata": {"rt": -1, "stimulus": "<p id=\"stim\">1</p>", "key_press": -1, "trial_type": "single-stim", "trial_index": 87, "time_elapsed": 573697, "internal_node_id": "0.0-60.0-9.0"}}, {"uniqueid": "MTK0789:3TPWUS5F8A8HIMHDELL9YRVACJVWC6", "current_trial": 88, "dateTime": 1512753909294, "trialdata": {"rt": -1, "stimulus": "<p id=\"stim\">+</p>", "key_press": -1, "type": "FIXATION", "trial_type": "single-stim", "trial_index": 88, "time_elapsed": 575199, "internal_node_id": "0.0-61.0-0.0"}}, {"uniqueid": "MTK0789:3TPWUS5F8A8HIMHDELL9YRVACJVWC6", "current_trial": 89, "dateTime": 1512753910941, "trialdata": {"rt": -1000, "stimulus": "/static/audio/wordpool/SMOG.wav", "key_press": -1, "type": "PRES_AUD", "word": "smog", "wordID": 1329, "conditions": [24, 800, "a", 12000], "trial": 2, "serialpos": 0, "trial_type": "single-audio", "trial_index": 89, "time_elapsed": 576846, "internal_node_id": "0.0-62.0"}}, {"uniqueid": "MTK0789:3TPWUS5F8A8HIMHDELL9YRVACJVWC6", "current_trial": 90, "dateTime": 1512753915522, "trialdata": {"rt": 4443.99999999996, "stimulus": "/static/audio/wordpool/WASHER.wav", "key_press": 18, "type": "PRES_AUD", "word": "washer", "wordID": 1591, "conditions": [24, 800, "a", 12000], "trial": 2, "serialpos": 1, "trial_type": "single-audio", "trial_index": 90, "time_elapsed": 581427, "internal_node_id": "0.0-63.0"}}, {"uniqueid": "MTK0789:3TPWUS5F8A8HIMHDELL9YRVACJVWC6", "current_trial": 91, "dateTime": 1512753917246, "trialdata": {"rt": 1179.99999999995, "stimulus": "/static/audio/wordpool/BALLOON.wav", "key_press": 18, "type": "PRES_AUD", "word": "balloon", "wordID": 74, "conditions": [24, 800, "a", 12000], "trial": 2, "serialpos": 2, "trial_type": "single-audio", "trial_index": 91, "time_elapsed": 583151, "internal_node_id": "0.0-64.0"}}, {"uniqueid": "MTK0789:3TPWUS5F8A8HIMHDELL9YRVACJVWC6", "current_trial": 92, "dateTime": 1512753918960, "trialdata": {"rt": -1000, "stimulus": "/static/audio/wordpool/TRUCK.wav", "key_press": -1, "type": "PRES_AUD", "word": "truck", "wordID": 1511, "conditions": [24, 800, "a", 12000], "trial": 2, "serialpos": 3, "trial_type": "single-audio", "trial_index": 92, "time_elapsed": 584865, "internal_node_id": "0.0-65.0"}}, {"uniqueid": "MTK0789:3TPWUS5F8A8HIMHDELL9YRVACJVWC6", "current_trial": 93, "dateTime": 1512753920616, "trialdata": {"rt": -1000, "stimulus": "/static/audio/wordpool/PARROT.wav", "key_press": -1, "type": "PRES_AUD", "word": "parrot", "wordID": 1014, "conditions": [24, 800, "a", 12000], "trial": 2, "serialpos": 4, "trial_type": "single-audio", "trial_index": 93, "time_elapsed": 586521, "internal_node_id": "0.0-66.0"}}, {"uniqueid": "MTK0789:3TPWUS5F8A8HIMHDELL9YRVACJVWC6", "current_trial": 94, "dateTime": 1512753928511, "trialdata": {"rt": -1000, "stimulus": "/static/audio/wordpool/ZEBRA.wav", "key_press": -1, "type": "PRES_AUD", "word": "zebra", "wordID": 1634, "conditions": [24, 800, "a", 12000], "trial": 2, "serialpos": 5, "trial_type": "single-audio", "trial_index": 94, "time_elapsed": 594415, "internal_node_id": "0.0-67.0"}}, {"uniqueid": "MTK0789:3TPWUS5F8A8HIMHDELL9YRVACJVWC6", "current_trial": 95, "dateTime": 1512753930477, "trialdata": {"rt": -1000, "stimulus": "/static/audio/wordpool/PASSAGE.wav", "key_press": -1, "type": "PRES_AUD", "word": "passage", "wordID": 1018, "conditions": [24, 800, "a", 12000], "trial": 2, "serialpos": 6, "trial_type": "single-audio", "trial_index": 95, "time_elapsed": 596382, "internal_node_id": "0.0-68.0"}}, {"uniqueid": "MTK0789:3TPWUS5F8A8HIMHDELL9YRVACJVWC6", "current_trial": 96, "dateTime": 1512753935009, "trialdata": {"rt": 3921.333333333223, "stimulus": "/static/audio/wordpool/WAGON.wav", "key_press": 18, "type": "PRES_AUD", "word": "wagon", "wordID": 1577, "conditions": [24, 800, "a", 12000], "trial": 2, "serialpos": 7, "trial_type": "single-audio", "trial_index": 96, "time_elapsed": 600914, "internal_node_id": "0.0-69.0"}}, {"uniqueid": "MTK0789:3TPWUS5F8A8HIMHDELL9YRVACJVWC6", "current_trial": 97, "dateTime": 1512753936735, "trialdata": {"rt": -1000, "stimulus": "/static/audio/wordpool/RADISH.wav", "key_press": -1, "type": "PRES_AUD", "word": "radish", "wordID": 1157, "conditions": [24, 800, "a", 12000], "trial": 2, "serialpos": 8, "trial_type": "single-audio", "trial_index": 97, "time_elapsed": 602640, "internal_node_id": "0.0-70.0"}}, {"uniqueid": "MTK0789:3TPWUS5F8A8HIMHDELL9YRVACJVWC6", "current_trial": 98, "dateTime": 1512753938451, "trialdata": {"rt": -1000, "stimulus": "/static/audio/wordpool/STOVE.wav", "key_press": -1, "type": "PRES_AUD", "word": "stove", "wordID": 1387, "conditions": [24, 800, "a", 12000], "trial": 2, "serialpos": 9, "trial_type": "single-audio", "trial_index": 98, "time_elapsed": 604356, "internal_node_id": "0.0-71.0"}}, {"uniqueid": "MTK0789:3TPWUS5F8A8HIMHDELL9YRVACJVWC6", "current_trial": 99, "dateTime": 1512753945655, "trialdata": {"rt": -1000, "stimulus": "/static/audio/wordpool/GRILL.wav", "key_press": -1, "type": "PRES_AUD", "word": "grill", "wordID": 660, "conditions": [24, 800, "a", 12000], "trial": 2, "serialpos": 10, "trial_type": "single-audio", "trial_index": 99, "time_elapsed": 611560, "internal_node_id": "0.0-72.0"}}, {"uniqueid": "MTK0789:3TPWUS5F8A8HIMHDELL9YRVACJVWC6", "current_trial": 100, "dateTime": 1512753947521, "trialdata": {"rt": -1000, "stimulus": "/static/audio/wordpool/SUMMIT.wav", "key_press": -1, "type": "PRES_AUD", "word": "summit", "wordID": 1404, "conditions": [24, 800, "a", 12000], "trial": 2, "serialpos": 11, "trial_type": "single-audio", "trial_index": 100, "time_elapsed": 613426, "internal_node_id": "0.0-73.0"}}, {"uniqueid": "MTK0789:3TPWUS5F8A8HIMHDELL9YRVACJVWC6", "current_trial": 101, "dateTime": 1512753949475, "trialdata": {"rt": -1000, "stimulus": "/static/audio/wordpool/LUNCH.wav", "key_press": -1, "type": "PRES_AUD", "word": "lunch", "wordID": 848, "conditions": [24, 800, "a", 12000], "trial": 2, "serialpos": 12, "trial_type": "single-audio", "trial_index": 101, "time_elapsed": 615380, "internal_node_id": "0.0-74.0"}}, {"uniqueid": "MTK0789:3TPWUS5F8A8HIMHDELL9YRVACJVWC6", "current_trial": 102, "dateTime": 1512753951411, "trialdata": {"rt": -1000, "stimulus": "/static/audio/wordpool/WHISTLE.wav", "key_press": -1, "type": "PRES_AUD", "word": "whistle", "wordID": 1605, "conditions": [24, 800, "a", 12000], "trial": 2, "serialpos": 13, "trial_type": "single-audio", "trial_index": 102, "time_elapsed": 617316, "internal_node_id": "0.0-75.0"}}, {"uniqueid": "MTK0789:3TPWUS5F8A8HIMHDELL9YRVACJVWC6", "current_trial": 103, "dateTime": 1512753953036, "trialdata": {"rt": -1000, "stimulus": "/static/audio/wordpool/GAVEL.wav", "key_press": -1, "type": "PRES_AUD", "word": "gavel", "wordID": 626, "conditions": [24, 800, "a", 12000], "trial": 2, "serialpos": 14, "trial_type": "single-audio", "trial_index": 103, "time_elapsed": 618941, "internal_node_id": "0.0-76.0"}}, {"uniqueid": "MTK0789:3TPWUS5F8A8HIMHDELL9YRVACJVWC6", "current_trial": 104, "dateTime": 1512753955062, "trialdata": {"rt": -1000, "stimulus": "/static/audio/wordpool/TUNNEL.wav", "key_press": -1, "type": "PRES_AUD", "word": "tunnel", "wordID": 1518, "conditions": [24, 800, "a", 12000], "trial": 2, "serialpos": 15, "trial_type": "single-audio", "trial_index": 104, "time_elapsed": 620967, "internal_node_id": "0.0-77.0"}}, {"uniqueid": "MTK0789:3TPWUS5F8A8HIMHDELL9YRVACJVWC6", "current_trial": 105, "dateTime": 1512753956740, "trialdata": {"rt": -1000, "stimulus": "/static/audio/wordpool/TRACTOR.wav", "key_press": -1, "type": "PRES_AUD", "word": "tractor", "wordID": 1492, "conditions": [24, 800, "a", 12000], "trial": 2, "serialpos": 16, "trial_type": "single-audio", "trial_index": 105, "time_elapsed": 622645, "internal_node_id": "0.0-78.0"}}, {"uniqueid": "MTK0789:3TPWUS5F8A8HIMHDELL9YRVACJVWC6", "current_trial": 106, "dateTime": 1512753958552, "trialdata": {"rt": -1000, "stimulus": "/static/audio/wordpool/ANKLE.wav", "key_press": -1, "type": "PRES_AUD", "word": "ankle", "wordID": 23, "conditions": [24, 800, "a", 12000], "trial": 2, "serialpos": 17, "trial_type": "single-audio", "trial_index": 106, "time_elapsed": 624457, "internal_node_id": "0.0-79.0"}}, {"uniqueid": "MTK0789:3TPWUS5F8A8HIMHDELL9YRVACJVWC6", "current_trial": 107, "dateTime": 1512753960443, "trialdata": {"rt": -1000, "stimulus": "/static/audio/wordpool/SNACK.wav", "key_press": -1, "type": "PRES_AUD", "word": "snack", "wordID": 1330, "conditions": [24, 800, "a", 12000], "trial": 2, "serialpos": 18, "trial_type": "single-audio", "trial_index": 107, "time_elapsed": 626348, "internal_node_id": "0.0-80.0"}}, {"uniqueid": "MTK0789:3TPWUS5F8A8HIMHDELL9YRVACJVWC6", "current_trial": 108, "dateTime": 1512753962414, "trialdata": {"rt": -1000, "stimulus": "/static/audio/wordpool/POPCORN.wav", "key_press": -1, "type": "PRES_AUD", "word": "popcorn", "wordID": 1103, "conditions": [24, 800, "a", 12000], "trial": 2, "serialpos": 19, "trial_type": "single-audio", "trial_index": 108, "time_elapsed": 628318, "internal_node_id": "0.0-81.0"}}, {"uniqueid": "MTK0789:3TPWUS5F8A8HIMHDELL9YRVACJVWC6", "current_trial": 109, "dateTime": 1512753964195, "trialdata": {"rt": -1000, "stimulus": "/static/audio/wordpool/AWARD.wav", "key_press": -1, "type": "PRES_AUD", "word": "award", "wordID": 62, "conditions": [24, 800, "a", 12000], "trial": 2, "serialpos": 20, "trial_type": "single-audio", "trial_index": 109, "time_elapsed": 630100, "internal_node_id": "0.0-82.0"}}, {"uniqueid": "MTK0789:3TPWUS5F8A8HIMHDELL9YRVACJVWC6", "current_trial": 110, "dateTime": 1512753965991, "trialdata": {"rt": -1000, "stimulus": "/static/audio/wordpool/SUPPER.wav", "key_press": -1, "type": "PRES_AUD", "word": "supper", "wordID": 1410, "conditions": [24, 800, "a", 12000], "trial": 2, "serialpos": 21, "trial_type": "single-audio", "trial_index": 110, "time_elapsed": 631896, "internal_node_id": "0.0-83.0"}}, {"uniqueid": "MTK0789:3TPWUS5F8A8HIMHDELL9YRVACJVWC6", "current_trial": 111, "dateTime": 1512753967793, "trialdata": {"rt": -1000, "stimulus": "/static/audio/wordpool/BASEMENT.wav", "key_press": -1, "type": "PRES_AUD", "word": "basement", "wordID": 93, "conditions": [24, 800, "a", 12000], "trial": 2, "serialpos": 22, "trial_type": "single-audio", "trial_index": 111, "time_elapsed": 633698, "internal_node_id": "0.0-84.0"}}, {"uniqueid": "MTK0789:3TPWUS5F8A8HIMHDELL9YRVACJVWC6", "current_trial": 112, "dateTime": 1512753969549, "trialdata": {"rt": -1000, "stimulus": "/static/audio/wordpool/VIRUS.wav", "key_press": -1, "type": "PRES_AUD", "word": "virus", "wordID": 1571, "conditions": [24, 800, "a", 12000], "trial": 2, "serialpos": 23, "trial_type": "single-audio", "trial_index": 112, "time_elapsed": 635454, "internal_node_id": "0.0-85.0"}}, {"uniqueid": "MTK0789:3TPWUS5F8A8HIMHDELL9YRVACJVWC6", "current_trial": 113, "dateTime": 1512753970882, "trialdata": {"rt": -1, "stimulus": "", "key_press": -1, "type": "PRE_RECALL_DELAY", "trial_type": "single-stim", "trial_index": 113, "time_elapsed": 636786, "internal_node_id": "0.0-86.0-0.0"}}, {"uniqueid": "MTK0789:3TPWUS5F8A8HIMHDELL9YRVACJVWC6", "current_trial": 114, "dateTime": 1512753971384, "trialdata": {"rt": -1000, "stimulus": "/static/audio/400Hz.wav", "key_press": -1, "type": "PRE_RECALL_ALERT", "trial_type": "single-audio", "trial_index": 114, "time_elapsed": 637289, "internal_node_id": "0.0-87.0"}}, {"uniqueid": "MTK0789:3TPWUS5F8A8HIMHDELL9YRVACJVWC6", "current_trial": 115, "dateTime": 1512754031397, "trialdata": {"rt": [6691, 7642, 11170, 14817, 40651, 41658, 42562], "recwords": ["virus", "award", "cabbage", "survey", "smog", "stove", "grill"], "type": "FREE_RECALL", "conditions": [24, 800, "a", 12000], "trial": 2, "trial_type": "free-recall", "trial_index": 115, "time_elapsed": 697294, "internal_node_id": "0.0-88.0-0.0"}}, {"uniqueid": "MTK0789:3TPWUS5F8A8HIMHDELL9YRVACJVWC6", "current_trial": 116, "dateTime": 1512754115624, "trialdata": {"rt": 82224, "key_press": 32, "type": "INSTRUCTIONS", "trial_type": "text", "trial_index": 116, "time_elapsed": 781528, "internal_node_id": "0.0-89.0"}}, {"uniqueid": "MTK0789:3TPWUS5F8A8HIMHDELL9YRVACJVWC6", "current_trial": 117, "dateTime": 1512754129630, "trialdata": {"rt": [], "responses": [], "num1": [6], "num2": [7], "num3": [5], "type": "DISTRACTOR", "conditions": [24, 1600, "v", 12000], "trial": 3, "trial_type": "math-distractor", "trial_index": 117, "time_elapsed": 795535, "internal_node_id": "0.0-90.0"}}, {"uniqueid": "MTK0789:3TPWUS5F8A8HIMHDELL9YRVACJVWC6", "current_trial": 118, "dateTime": 1512754132632, "trialdata": {"rt": -1, "stimulus": "<p id=\"stim\">10</p>", "key_press": -1, "trial_type": "single-stim", "trial_index": 118, "time_elapsed": 798537, "internal_node_id": "0.0-91.0-0.0"}}, {"uniqueid": "MTK0789:3TPWUS5F8A8HIMHDELL9YRVACJVWC6", "current_trial": 119, "dateTime": 1512754133634, "trialdata": {"rt": -1, "stimulus": "<p id=\"stim\">9</p>", "key_press": -1, "trial_type": "single-stim", "trial_index": 119, "time_elapsed": 799538, "internal_node_id": "0.0-91.0-1.0"}}, {"uniqueid": "MTK0789:3TPWUS5F8A8HIMHDELL9YRVACJVWC6", "current_trial": 120, "dateTime": 1512754134635, "trialdata": {"rt": -1, "stimulus": "<p id=\"stim\">8</p>", "key_press": -1, "trial_type": "single-stim", "trial_index": 120, "time_elapsed": 800540, "internal_node_id": "0.0-91.0-2.0"}}, {"uniqueid": "MTK0789:3TPWUS5F8A8HIMHDELL9YRVACJVWC6", "current_trial": 121, "dateTime": 1512754135637, "trialdata": {"rt": -1, "stimulus": "<p id=\"stim\">7</p>", "key_press": -1, "trial_type": "single-stim", "trial_index": 121, "time_elapsed": 801541, "internal_node_id": "0.0-91.0-3.0"}}, {"uniqueid": "MTK0789:3TPWUS5F8A8HIMHDELL9YRVACJVWC6", "current_trial": 122, "dateTime": 1512754136639, "trialdata": {"rt": -1, "stimulus": "<p id=\"stim\">6</p>", "key_press": -1, "trial_type": "single-stim", "trial_index": 122, "time_elapsed": 802543, "internal_node_id": "0.0-91.0-4.0"}}, {"uniqueid": "MTK0789:3TPWUS5F8A8HIMHDELL9YRVACJVWC6", "current_trial": 123, "dateTime": 1512754137640, "trialdata": {"rt": -1, "stimulus": "<p id=\"stim\">5</p>", "key_press": -1, "trial_type": "single-stim", "trial_index": 123, "time_elapsed": 803545, "internal_node_id": "0.0-91.0-5.0"}}, {"uniqueid": "MTK0789:3TPWUS5F8A8HIMHDELL9YRVACJVWC6", "current_trial": 124, "dateTime": 1512754138642, "trialdata": {"rt": -1, "stimulus": "<p id=\"stim\">4</p>", "key_press": -1, "trial_type": "single-stim", "trial_index": 124, "time_elapsed": 804547, "internal_node_id": "0.0-91.0-6.0"}}, {"uniqueid": "MTK0789:3TPWUS5F8A8HIMHDELL9YRVACJVWC6", "current_trial": 125, "dateTime": 1512754139644, "trialdata": {"rt": -1, "stimulus": "<p id=\"stim\">3</p>", "key_press": -1, "trial_type": "single-stim", "trial_index": 125, "time_elapsed": 805549, "internal_node_id": "0.0-91.0-7.0"}}, {"uniqueid": "MTK0789:3TPWUS5F8A8HIMHDELL9YRVACJVWC6", "current_trial": 126, "dateTime": 1512754140646, "trialdata": {"rt": -1, "stimulus": "<p id=\"stim\">2</p>", "key_press": -1, "trial_type": "single-stim", "trial_index": 126, "time_elapsed": 806551, "internal_node_id": "0.0-91.0-8.0"}}, {"uniqueid": "MTK0789:3TPWUS5F8A8HIMHDELL9YRVACJVWC6", "current_trial": 127, "dateTime": 1512754141648, "trialdata": {"rt": -1, "stimulus": "<p id=\"stim\">1</p>", "key_press": -1, "trial_type": "single-stim", "trial_index": 127, "time_elapsed": 807552, "internal_node_id": "0.0-91.0-9.0"}}, {"uniqueid": "MTK0789:3TPWUS5F8A8HIMHDELL9YRVACJVWC6", "current_trial": 128, "dateTime": 1512754143149, "trialdata": {"rt": -1, "stimulus": "<p id=\"stim\">+</p>", "key_press": -1, "type": "FIXATION", "trial_type": "single-stim", "trial_index": 128, "time_elapsed": 809054, "internal_node_id": "0.0-92.0-0.0"}}, {"uniqueid": "MTK0789:3TPWUS5F8A8HIMHDELL9YRVACJVWC6", "current_trial": 129, "dateTime": 1512754144751, "trialdata": {"rt": -1, "stimulus": "<p id=\"stim\">CLOTHES</p>", "key_press": -1, "type": "PRES_VIS", "word": "clothes", "wordID": 326, "conditions": [24, 1600, "v", 12000], "trial": 3, "serialpos": 0, "trial_type": "single-stim", "trial_index": 129, "time_elapsed": 810656, "internal_node_id": "0.0-93.0"}}, {"uniqueid": "MTK0789:3TPWUS5F8A8HIMHDELL9YRVACJVWC6", "current_trial": 130, "dateTime": 1512754147499, "trialdata": {"rt": -1, "stimulus": "<p id=\"stim\">BROOK</p>", "key_press": -1, "type": "PRES_VIS", "word": "brook", "wordID": 176, "conditions": [24, 1600, "v", 12000], "trial": 3, "serialpos": 1, "trial_type": "single-stim", "trial_index": 130, "time_elapsed": 813404, "internal_node_id": "0.0-94.0"}}, {"uniqueid": "MTK0789:3TPWUS5F8A8HIMHDELL9YRVACJVWC6", "current_trial": 131, "dateTime": 1512754150098, "trialdata": {"rt": -1, "stimulus": "<p id=\"stim\">GANGSTER</p>", "key_press": -1, "type": "PRES_VIS", "word": "gangster", "wordID": 619, "conditions": [24, 1600, "v", 12000], "trial": 3, "serialpos": 2, "trial_type": "single-stim", "trial_index": 131, "time_elapsed": 816003, "internal_node_id": "0.0-95.0"}}, {"uniqueid": "MTK0789:3TPWUS5F8A8HIMHDELL9YRVACJVWC6", "current_trial": 132, "dateTime": 1512754152953, "trialdata": {"rt": -1, "stimulus": "<p id=\"stim\">SODA</p>", "key_press": -1, "type": "PRES_VIS", "word": "soda", "wordID": 1340, "conditions": [24, 1600, "v", 12000], "trial": 3, "serialpos": 3, "trial_type": "single-stim", "trial_index": 132, "time_elapsed": 818858, "internal_node_id": "0.0-96.0"}}, {"uniqueid": "MTK0789:3TPWUS5F8A8HIMHDELL9YRVACJVWC6", "current_trial": 133, "dateTime": 1512754155644, "trialdata": {"rt": -1, "stimulus": "<p id=\"stim\">SAUSAGE</p>", "key_press": -1, "type": "PRES_VIS", "word": "sausage", "wordID": 1237, "conditions": [24, 1600, "v", 12000], "trial": 3, "serialpos": 4, "trial_type": "single-stim", "trial_index": 133, "time_elapsed": 821549, "internal_node_id": "0.0-97.0"}}, {"uniqueid": "MTK0789:3TPWUS5F8A8HIMHDELL9YRVACJVWC6", "current_trial": 134, "dateTime": 1512754158285, "trialdata": {"rt": -1, "stimulus": "<p id=\"stim\">ROBIN</p>", "key_press": -1, "type": "PRES_VIS", "word": "robin", "wordID": 1198, "conditions": [24, 1600, "v", 12000], "trial": 3, "serialpos": 5, "trial_type": "single-stim", "trial_index": 134, "time_elapsed": 824190, "internal_node_id": "0.0-98.0"}}, {"uniqueid": "MTK0789:3TPWUS5F8A8HIMHDELL9YRVACJVWC6", "current_trial": 135, "dateTime": 1512754161065, "trialdata": {"rt": -1, "stimulus": "<p id=\"stim\">MISSILE</p>", "key_press": -1, "type": "PRES_VIS", "word": "missile", "wordID": 899, "conditions": [24, 1600, "v", 12000], "trial": 3, "serialpos": 6, "trial_type": "single-stim", "trial_index": 135, "time_elapsed": 826969, "internal_node_id": "0.0-99.0"}}, {"uniqueid": "MTK0789:3TPWUS5F8A8HIMHDELL9YRVACJVWC6", "current_trial": 136, "dateTime": 1512754163841, "trialdata": {"rt": -1, "stimulus": "<p id=\"stim\">SLIDE</p>", "key_press": -1, "type": "PRES_VIS", "word": "slide", "wordID": 1325, "conditions": [24, 1600, "v", 12000], "trial": 3, "serialpos": 7, "trial_type": "single-stim", "trial_index": 136, "time_elapsed": 829746, "internal_node_id": "0.0-100.0"}}, {"uniqueid": "MTK0789:3TPWUS5F8A8HIMHDELL9YRVACJVWC6", "current_trial": 137, "dateTime": 1512754166456, "trialdata": {"rt": -1, "stimulus": "<p id=\"stim\">TOASTER</p>", "key_press": -1, "type": "PRES_VIS", "word": "toaster", "wordID": 1471, "conditions": [24, 1600, "v", 12000], "trial": 3, "serialpos": 8, "trial_type": "single-stim", "trial_index": 137, "time_elapsed": 832361, "internal_node_id": "0.0-101.0"}}, {"uniqueid": "MTK0789:3TPWUS5F8A8HIMHDELL9YRVACJVWC6", "current_trial": 138, "dateTime": 1512754169056, "trialdata": {"rt": -1, "stimulus": "<p id=\"stim\">FLOWER</p>", "key_press": -1, "type": "PRES_VIS", "word": "flower", "wordID": 583, "conditions": [24, 1600, "v", 12000], "trial": 3, "serialpos": 9, "trial_type": "single-stim", "trial_index": 138, "time_elapsed": 834961, "internal_node_id": "0.0-102.0"}}, {"uniqueid": "MTK0789:3TPWUS5F8A8HIMHDELL9YRVACJVWC6", "current_trial": 139, "dateTime": 1512754171493, "trialdata": {"rt": -1, "stimulus": "<p id=\"stim\">LILY</p>", "key_press": -1, "type": "PRES_VIS", "word": "lily", "wordID": 820, "conditions": [24, 1600, "v", 12000], "trial": 3, "serialpos": 10, "trial_type": "single-stim", "trial_index": 139, "time_elapsed": 837398, "internal_node_id": "0.0-103.0"}}, {"uniqueid": "MTK0789:3TPWUS5F8A8HIMHDELL9YRVACJVWC6", "current_trial": 140, "dateTime": 1512754174159, "trialdata": {"rt": -1, "stimulus": "<p id=\"stim\">RIVER</p>", "key_press": -1, "type": "PRES_VIS", "word": "river", "wordID": 1193, "conditions": [24, 1600, "v", 12000], "trial": 3, "serialpos": 11, "trial_type": "single-stim", "trial_index": 140, "time_elapsed": 840063, "internal_node_id": "0.0-104.0"}}, {"uniqueid": "MTK0789:3TPWUS5F8A8HIMHDELL9YRVACJVWC6", "current_trial": 141, "dateTime": 1512754176879, "trialdata": {"rt": -1, "stimulus": "<p id=\"stim\">SPHINX</p>", "key_press": -1, "type": "PRES_VIS", "word": "sphinx", "wordID": 1348, "conditions": [24, 1600, "v", 12000], "trial": 3, "serialpos": 12, "trial_type": "single-stim", "trial_index": 141, "time_elapsed": 842784, "internal_node_id": "0.0-105.0"}}, {"uniqueid": "MTK0789:3TPWUS5F8A8HIMHDELL9YRVACJVWC6", "current_trial": 142, "dateTime": 1512754179676, "trialdata": {"rt": -1, "stimulus": "<p id=\"stim\">DRIVER</p>", "key_press": -1, "type": "PRES_VIS", "word": "driver", "wordID": 498, "conditions": [24, 1600, "v", 12000], "trial": 3, "serialpos": 13, "trial_type": "single-stim", "trial_index": 142, "time_elapsed": 845581, "internal_node_id": "0.0-106.0"}}, {"uniqueid": "MTK0789:3TPWUS5F8A8HIMHDELL9YRVACJVWC6", "current_trial": 143, "dateTime": 1512754182347, "trialdata": {"rt": -1, "stimulus": "<p id=\"stim\">FIDDLE</p>", "key_press": -1, "type": "PRES_VIS", "word": "fiddle", "wordID": 560, "conditions": [24, 1600, "v", 12000], "trial": 3, "serialpos": 14, "trial_type": "single-stim", "trial_index": 143, "time_elapsed": 848251, "internal_node_id": "0.0-107.0"}}, {"uniqueid": "MTK0789:3TPWUS5F8A8HIMHDELL9YRVACJVWC6", "current_trial": 144, "dateTime": 1512754184782, "trialdata": {"rt": -1, "stimulus": "<p id=\"stim\">PICTURE</p>", "key_press": -1, "type": "PRES_VIS", "word": "picture", "wordID": 1060, "conditions": [24, 1600, "v", 12000], "trial": 3, "serialpos": 15, "trial_type": "single-stim", "trial_index": 144, "time_elapsed": 850687, "internal_node_id": "0.0-108.0"}}, {"uniqueid": "MTK0789:3TPWUS5F8A8HIMHDELL9YRVACJVWC6", "current_trial": 145, "dateTime": 1512754187463, "trialdata": {"rt": -1, "stimulus": "<p id=\"stim\">DRESSER</p>", "key_press": -1, "type": "PRES_VIS", "word": "dresser", "wordID": 495, "conditions": [24, 1600, "v", 12000], "trial": 3, "serialpos": 16, "trial_type": "single-stim", "trial_index": 145, "time_elapsed": 853368, "internal_node_id": "0.0-109.0"}}, {"uniqueid": "MTK0789:3TPWUS5F8A8HIMHDELL9YRVACJVWC6", "current_trial": 146, "dateTime": 1512754189896, "trialdata": {"rt": -1, "stimulus": "<p id=\"stim\">HONEY</p>", "key_press": -1, "type": "PRES_VIS", "word": "honey", "wordID": 712, "conditions": [24, 1600, "v", 12000], "trial": 3, "serialpos": 17, "trial_type": "single-stim", "trial_index": 146, "time_elapsed": 855800, "internal_node_id": "0.0-110.0"}}, {"uniqueid": "MTK0789:3TPWUS5F8A8HIMHDELL9YRVACJVWC6", "current_trial": 147, "dateTime": 1512754192482, "trialdata": {"rt": -1, "stimulus": "<p id=\"stim\">KITCHEN</p>", "key_press": -1, "type": "PRES_VIS", "word": "kitchen", "wordID": 777, "conditions": [24, 1600, "v", 12000], "trial": 3, "serialpos": 18, "trial_type": "single-stim", "trial_index": 147, "time_elapsed": 858387, "internal_node_id": "0.0-111.0"}}, {"uniqueid": "MTK0789:3TPWUS5F8A8HIMHDELL9YRVACJVWC6", "current_trial": 148, "dateTime": 1512754195207, "trialdata": {"rt": -1, "stimulus": "<p id=\"stim\">ELBOW</p>", "key_press": -1, "type": "PRES_VIS", "word": "elbow", "wordID": 519, "conditions": [24, 1600, "v", 12000], "trial": 3, "serialpos": 19, "trial_type": "single-stim", "trial_index": 148, "time_elapsed": 861112, "internal_node_id": "0.0-112.0"}}, {"uniqueid": "MTK0789:3TPWUS5F8A8HIMHDELL9YRVACJVWC6", "current_trial": 149, "dateTime": 1512754197933, "trialdata": {"rt": -1, "stimulus": "<p id=\"stim\">THIEF</p>", "key_press": -1, "type": "PRES_VIS", "word": "thief", "wordID": 1455, "conditions": [24, 1600, "v", 12000], "trial": 3, "serialpos": 20, "trial_type": "single-stim", "trial_index": 149, "time_elapsed": 863838, "internal_node_id": "0.0-113.0"}}, {"uniqueid": "MTK0789:3TPWUS5F8A8HIMHDELL9YRVACJVWC6", "current_trial": 150, "dateTime": 1512754200472, "trialdata": {"rt": -1, "stimulus": "<p id=\"stim\">STOMACH</p>", "key_press": -1, "type": "PRES_VIS", "word": "stomach", "wordID": 1383, "conditions": [24, 1600, "v", 12000], "trial": 3, "serialpos": 21, "trial_type": "single-stim", "trial_index": 150, "time_elapsed": 866377, "internal_node_id": "0.0-114.0"}}, {"uniqueid": "MTK0789:3TPWUS5F8A8HIMHDELL9YRVACJVWC6", "current_trial": 151, "dateTime": 1512754206800, "trialdata": {"rt": -1, "stimulus": "<p id=\"stim\">CHEST</p>", "key_press": -1, "type": "PRES_VIS", "word": "chest", "wordID": 294, "conditions": [24, 1600, "v", 12000], "trial": 3, "serialpos": 22, "trial_type": "single-stim", "trial_index": 151, "time_elapsed": 872705, "internal_node_id": "0.0-115.0"}}, {"uniqueid": "MTK0789:3TPWUS5F8A8HIMHDELL9YRVACJVWC6", "current_trial": 152, "dateTime": 1512754209206, "trialdata": {"rt": -1, "stimulus": "<p id=\"stim\">BURGLAR</p>", "key_press": -1, "type": "PRES_VIS", "word": "burglar", "wordID": 199, "conditions": [24, 1600, "v", 12000], "trial": 3, "serialpos": 23, "trial_type": "single-stim", "trial_index": 152, "time_elapsed": 875111, "internal_node_id": "0.0-116.0"}}, {"uniqueid": "MTK0789:3TPWUS5F8A8HIMHDELL9YRVACJVWC6", "current_trial": 153, "dateTime": 1512754211553, "trialdata": {"rt": -1, "stimulus": "", "key_press": -1, "type": "PRE_RECALL_DELAY", "trial_type": "single-stim", "trial_index": 153, "time_elapsed": 877458, "internal_node_id": "0.0-117.0-0.0"}}, {"uniqueid": "MTK0789:3TPWUS5F8A8HIMHDELL9YRVACJVWC6", "current_trial": 154, "dateTime": 1512754212056, "trialdata": {"rt": -1000, "stimulus": "/static/audio/400Hz.wav", "key_press": -1, "type": "PRE_RECALL_ALERT", "trial_type": "single-audio", "trial_index": 154, "time_elapsed": 877960, "internal_node_id": "0.0-118.0"}}, {"uniqueid": "MTK0789:3TPWUS5F8A8HIMHDELL9YRVACJVWC6", "current_trial": 155, "dateTime": 1512754292488, "trialdata": {"rt": [6227, 9371, 14459, 16020, 17139, 18931, 22411], "recwords": ["burglar", "chess", "sausage", "sphinx", "picture", "family", "elbow"], "type": "FREE_RECALL", "conditions": [24, 1600, "v", 12000], "trial": 3, "trial_type": "free-recall", "trial_index": 155, "time_elapsed": 958387, "internal_node_id": "0.0-119.0-0.0"}}, {"uniqueid": "MTK0789:3TPWUS5F8A8HIMHDELL9YRVACJVWC6", "current_trial": 156, "dateTime": 1512754297712, "trialdata": {"rt": 3223, "key_press": 18, "type": "INSTRUCTIONS", "trial_type": "text", "trial_index": 156, "time_elapsed": 963616, "internal_node_id": "0.0-120.0"}}, {"uniqueid": "MTK0789:3TPWUS5F8A8HIMHDELL9YRVACJVWC6", "current_trial": 157, "dateTime": 1512754311717, "trialdata": {"rt": [5799, 8516, 9916, 11574], "responses": ["1", "13", "6", "12"], "num1": [4, 9, 3, 3, 1], "num2": [9, 3, 2, 5, 9], "num3": [6, 1, 1, 4, 2], "type": "DISTRACTOR", "conditions": [12, 800, "v", 12000], "trial": 4, "trial_type": "math-distractor", "trial_index": 157, "time_elapsed": 977622, "internal_node_id": "0.0-121.0"}}, {"uniqueid": "MTK0789:3TPWUS5F8A8HIMHDELL9YRVACJVWC6", "current_trial": 158, "dateTime": 1512754314720, "trialdata": {"rt": -1, "stimulus": "<p id=\"stim\">10</p>", "key_press": -1, "trial_type": "single-stim", "trial_index": 158, "time_elapsed": 980625, "internal_node_id": "0.0-122.0-0.0"}}, {"uniqueid": "MTK0789:3TPWUS5F8A8HIMHDELL9YRVACJVWC6", "current_trial": 159, "dateTime": 1512754315722, "trialdata": {"rt": -1, "stimulus": "<p id=\"stim\">9</p>", "key_press": -1, "trial_type": "single-stim", "trial_index": 159, "time_elapsed": 981626, "internal_node_id": "0.0-122.0-1.0"}}, {"uniqueid": "MTK0789:3TPWUS5F8A8HIMHDELL9YRVACJVWC6", "current_trial": 160, "dateTime": 1512754316724, "trialdata": {"rt": -1, "stimulus": "<p id=\"stim\">8</p>", "key_press": -1, "trial_type": "single-stim", "trial_index": 160, "time_elapsed": 982629, "internal_node_id": "0.0-122.0-2.0"}}, {"uniqueid": "MTK0789:3TPWUS5F8A8HIMHDELL9YRVACJVWC6", "current_trial": 161, "dateTime": 1512754317725, "trialdata": {"rt": -1, "stimulus": "<p id=\"stim\">7</p>", "key_press": -1, "trial_type": "single-stim", "trial_index": 161, "time_elapsed": 983630, "internal_node_id": "0.0-122.0-3.0"}}, {"uniqueid": "MTK0789:3TPWUS5F8A8HIMHDELL9YRVACJVWC6", "current_trial": 162, "dateTime": 1512754318727, "trialdata": {"rt": -1, "stimulus": "<p id=\"stim\">6</p>", "key_press": -1, "trial_type": "single-stim", "trial_index": 162, "time_elapsed": 984632, "internal_node_id": "0.0-122.0-4.0"}}, {"uniqueid": "MTK0789:3TPWUS5F8A8HIMHDELL9YRVACJVWC6", "current_trial": 163, "dateTime": 1512754319981, "trialdata": {"rt": -1, "stimulus": "<p id=\"stim\">5</p>", "key_press": -1, "trial_type": "single-stim", "trial_index": 163, "time_elapsed": 985885, "internal_node_id": "0.0-122.0-5.0"}}, {"uniqueid": "MTK0789:3TPWUS5F8A8HIMHDELL9YRVACJVWC6", "current_trial": 164, "dateTime": 1512754320982, "trialdata": {"rt": -1, "stimulus": "<p id=\"stim\">4</p>", "key_press": -1, "trial_type": "single-stim", "trial_index": 164, "time_elapsed": 986887, "internal_node_id": "0.0-122.0-6.0"}}, {"uniqueid": "MTK0789:3TPWUS5F8A8HIMHDELL9YRVACJVWC6", "current_trial": 165, "dateTime": 1512754321985, "trialdata": {"rt": -1, "stimulus": "<p id=\"stim\">3</p>", "key_press": -1, "trial_type": "single-stim", "trial_index": 165, "time_elapsed": 987890, "internal_node_id": "0.0-122.0-7.0"}}, {"uniqueid": "MTK0789:3TPWUS5F8A8HIMHDELL9YRVACJVWC6", "current_trial": 166, "dateTime": 1512754322987, "trialdata": {"rt": -1, "stimulus": "<p id=\"stim\">2</p>", "key_press": -1, "trial_type": "single-stim", "trial_index": 166, "time_elapsed": 988892, "internal_node_id": "0.0-122.0-8.0"}}, {"uniqueid": "MTK0789:3TPWUS5F8A8HIMHDELL9YRVACJVWC6", "current_trial": 167, "dateTime": 1512754323989, "trialdata": {"rt": -1, "stimulus": "<p id=\"stim\">1</p>", "key_press": -1, "trial_type": "single-stim", "trial_index": 167, "time_elapsed": 989894, "internal_node_id": "0.0-122.0-9.0"}}, {"uniqueid": "MTK0789:3TPWUS5F8A8HIMHDELL9YRVACJVWC6", "current_trial": 168, "dateTime": 1512754325491, "trialdata": {"rt": -1, "stimulus": "<p id=\"stim\">+</p>", "key_press": -1, "type": "FIXATION", "trial_type": "single-stim", "trial_index": 168, "time_elapsed": 991396, "internal_node_id": "0.0-123.0-0.0"}}, {"uniqueid": "MTK0789:3TPWUS5F8A8HIMHDELL9YRVACJVWC6", "current_trial": 169, "dateTime": 1512754326294, "trialdata": {"rt": -1, "stimulus": "<p id=\"stim\">PUDDING</p>", "key_press": -1, "type": "PRES_VIS", "word": "pudding", "wordID": 1138, "conditions": [12, 800, "v", 12000], "trial": 4, "serialpos": 0, "trial_type": "single-stim", "trial_index": 169, "time_elapsed": 992198, "internal_node_id": "0.0-124.0"}}, {"uniqueid": "MTK0789:3TPWUS5F8A8HIMHDELL9YRVACJVWC6", "current_trial": 170, "dateTime": 1512754327927, "trialdata": {"rt": -1, "stimulus": "<p id=\"stim\">WAITER</p>", "key_press": -1, "type": "PRES_VIS", "word": "waiter", "wordID": 1579, "conditions": [12, 800, "v", 12000], "trial": 4, "serialpos": 1, "trial_type": "single-stim", "trial_index": 170, "time_elapsed": 993832, "internal_node_id": "0.0-125.0"}}, {"uniqueid": "MTK0789:3TPWUS5F8A8HIMHDELL9YRVACJVWC6", "current_trial": 171, "dateTime": 1512754329802, "trialdata": {"rt": 480, "stimulus": "<p id=\"stim\">MARKET</p>", "key_press": 18, "type": "PRES_VIS", "word": "market", "wordID": 870, "conditions": [12, 800, "v", 12000], "trial": 4, "serialpos": 2, "trial_type": "single-stim", "trial_index": 171, "time_elapsed": 995707, "internal_node_id": "0.0-126.0"}}, {"uniqueid": "MTK0789:3TPWUS5F8A8HIMHDELL9YRVACJVWC6", "current_trial": 172, "dateTime": 1512754331779, "trialdata": {"rt": -1, "stimulus": "<p id=\"stim\">HAWK</p>", "key_press": -1, "type": "PRES_VIS", "word": "hawk", "wordID": 691, "conditions": [12, 800, "v", 12000], "trial": 4, "serialpos": 3, "trial_type": "single-stim", "trial_index": 172, "time_elapsed": 997681, "internal_node_id": "0.0-127.0"}}, {"uniqueid": "MTK0789:3TPWUS5F8A8HIMHDELL9YRVACJVWC6", "current_trial": 173, "dateTime": 1512754333655, "trialdata": {"rt": -1, "stimulus": "<p id=\"stim\">WORLD</p>", "key_press": -1, "type": "PRES_VIS", "word": "world", "wordID": 1621, "conditions": [12, 800, "v", 12000], "trial": 4, "serialpos": 4, "trial_type": "single-stim", "trial_index": 173, "time_elapsed": 999556, "internal_node_id": "0.0-128.0"}}, {"uniqueid": "MTK0789:3TPWUS5F8A8HIMHDELL9YRVACJVWC6", "current_trial": 174, "dateTime": 1512754335469, "trialdata": {"rt": -1, "stimulus": "<p id=\"stim\">BODY</p>", "key_press": -1, "type": "PRES_VIS", "word": "body", "wordID": 144, "conditions": [12, 800, "v", 12000], "trial": 4, "serialpos": 5, "trial_type": "single-stim", "trial_index": 174, "time_elapsed": 1001374, "internal_node_id": "0.0-129.0"}}, {"uniqueid": "MTK0789:3TPWUS5F8A8HIMHDELL9YRVACJVWC6", "current_trial": 175, "dateTime": 1512754337211, "trialdata": {"rt": -1, "stimulus": "<p id=\"stim\">TEMPLE</p>", "key_press": -1, "type": "PRES_VIS", "word": "temple", "wordID": 1447, "conditions": [12, 800, "v", 12000], "trial": 4, "serialpos": 6, "trial_type": "single-stim", "trial_index": 175, "time_elapsed": 1003116, "internal_node_id": "0.0-130.0"}}, {"uniqueid": "MTK0789:3TPWUS5F8A8HIMHDELL9YRVACJVWC6", "current_trial": 176, "dateTime": 1512754338934, "trialdata": {"rt": -1, "stimulus": "<p id=\"stim\">SHRUB</p>", "key_press": -1, "type": "PRES_VIS", "word": "shrub", "wordID": 1298, "conditions": [12, 800, "v", 12000], "trial": 4, "serialpos": 7, "trial_type": "single-stim", "trial_index": 176, "time_elapsed": 1004838, "internal_node_id": "0.0-131.0"}}, {"uniqueid": "MTK0789:3TPWUS5F8A8HIMHDELL9YRVACJVWC6", "current_trial": 177, "dateTime": 1512754340888, "trialdata": {"rt": 202, "stimulus": "<p id=\"stim\">GARDEN</p>", "key_press": 18, "type": "PRES_VIS", "word": "garden", "wordID": 622, "conditions": [12, 800, "v", 12000], "trial": 4, "serialpos": 8, "trial_type": "single-stim", "trial_index": 177, "time_elapsed": 1006793, "internal_node_id": "0.0-132.0"}}, {"uniqueid": "MTK0789:3TPWUS5F8A8HIMHDELL9YRVACJVWC6", "current_trial": 178, "dateTime": 1512754342519, "trialdata": {"rt": -1, "stimulus": "<p id=\"stim\">WAITRESS</p>", "key_press": -1, "type": "PRES_VIS", "word": "waitress", "wordID": 1580, "conditions": [12, 800, "v", 12000], "trial": 4, "serialpos": 9, "trial_type": "single-stim", "trial_index": 178, "time_elapsed": 1008424, "internal_node_id": "0.0-133.0"}}, {"uniqueid": "MTK0789:3TPWUS5F8A8HIMHDELL9YRVACJVWC6", "current_trial": 179, "dateTime": 1512754344322, "trialdata": {"rt": -1, "stimulus": "<p id=\"stim\">MOTEL</p>", "key_press": -1, "type": "PRES_VIS", "word": "motel", "wordID": 918, "conditions": [12, 800, "v", 12000], "trial": 4, "serialpos": 10, "trial_type": "single-stim", "trial_index": 179, "time_elapsed": 1010226, "internal_node_id": "0.0-134.0"}}, {"uniqueid": "MTK0789:3TPWUS5F8A8HIMHDELL9YRVACJVWC6", "current_trial": 180, "dateTime": 1512754346081, "trialdata": {"rt": -1, "stimulus": "<p id=\"stim\">COCKTAIL</p>", "key_press": -1, "type": "PRES_VIS", "word": "cocktail", "wordID": 337, "conditions": [12, 800, "v", 12000], "trial": 4, "serialpos": 11, "trial_type": "single-stim", "trial_index": 180, "time_elapsed": 1011986, "internal_node_id": "0.0-135.0"}}, {"uniqueid": "MTK0789:3TPWUS5F8A8HIMHDELL9YRVACJVWC6", "current_trial": 181, "dateTime": 1512754348554, "trialdata": {"rt": 557, "stimulus": "", "key_press": 18, "type": "PRE_RECALL_DELAY", "trial_type": "single-stim", "trial_index": 181, "time_elapsed": 1014459, "internal_node_id": "0.0-136.0-0.0"}}, {"uniqueid": "MTK0789:3TPWUS5F8A8HIMHDELL9YRVACJVWC6", "current_trial": 182, "dateTime": 1512754349055, "trialdata": {"rt": -1000, "stimulus": "/static/audio/400Hz.wav", "key_press": -1, "type": "PRE_RECALL_ALERT", "trial_type": "single-audio", "trial_index": 182, "time_elapsed": 1014960, "internal_node_id": "0.0-137.0"}}, {"uniqueid": "MTK0789:3TPWUS5F8A8HIMHDELL9YRVACJVWC6", "current_trial": 183, "dateTime": 1512754409066, "trialdata": {"rt": [5517, 7565, 8477, 11982, 12757, 13477], "recwords": ["temple", "garden", "motel", "pudding", "waiter", "market"], "type": "FREE_RECALL", "conditions": [12, 800, "v", 12000], "trial": 4, "trial_type": "free-recall", "trial_index": 183, "time_elapsed": 1074965, "internal_node_id": "0.0-138.0-0.0"}}, {"uniqueid": "MTK0789:3TPWUS5F8A8HIMHDELL9YRVACJVWC6", "current_trial": 184, "dateTime": 1512754417746, "trialdata": {"rt": 3842, "key_press": 13, "type": "INSTRUCTIONS", "trial_type": "text", "trial_index": 184, "time_elapsed": 1083651, "internal_node_id": "0.0-139.0"}}, {"uniqueid": "MTK0789:3TPWUS5F8A8HIMHDELL9YRVACJVWC6", "current_trial": 185, "dateTime": 1512754443752, "trialdata": {"rt": [2217, 5777, 15905, 20761, 22313], "responses": ["8", "11", "19", "23", "10"], "num1": [3, 2, 6, 8, 1, 5], "num2": [2, 6, 6, 7, 4, 6], "num3": [3, 3, 7, 8, 5, 2], "type": "DISTRACTOR", "conditions": [12, 800, "a", 24000], "trial": 5, "trial_type": "math-distractor", "trial_index": 185, "time_elapsed": 1109657, "internal_node_id": "0.0-140.0"}}, {"uniqueid": "MTK0789:3TPWUS5F8A8HIMHDELL9YRVACJVWC6", "current_trial": 186, "dateTime": 1512754446755, "trialdata": {"rt": -1, "stimulus": "<p id=\"stim\">10</p>", "key_press": -1, "trial_type": "single-stim", "trial_index": 186, "time_elapsed": 1112660, "internal_node_id": "0.0-141.0-0.0"}}, {"uniqueid": "MTK0789:3TPWUS5F8A8HIMHDELL9YRVACJVWC6", "current_trial": 187, "dateTime": 1512754447757, "trialdata": {"rt": -1, "stimulus": "<p id=\"stim\">9</p>", "key_press": -1, "trial_type": "single-stim", "trial_index": 187, "time_elapsed": 1113662, "internal_node_id": "0.0-141.0-1.0"}}, {"uniqueid": "MTK0789:3TPWUS5F8A8HIMHDELL9YRVACJVWC6", "current_trial": 188, "dateTime": 1512754448761, "trialdata": {"rt": -1, "stimulus": "<p id=\"stim\">8</p>", "key_press": -1, "trial_type": "single-stim", "trial_index": 188, "time_elapsed": 1114666, "internal_node_id": "0.0-141.0-2.0"}}, {"uniqueid": "MTK0789:3TPWUS5F8A8HIMHDELL9YRVACJVWC6", "current_trial": 189, "dateTime": 1512754449931, "trialdata": {"rt": -1, "stimulus": "<p id=\"stim\">7</p>", "key_press": -1, "trial_type": "single-stim", "trial_index": 189, "time_elapsed": 1115836, "internal_node_id": "0.0-141.0-3.0"}}, {"uniqueid": "MTK0789:3TPWUS5F8A8HIMHDELL9YRVACJVWC6", "current_trial": 190, "dateTime": 1512754450933, "trialdata": {"rt": -1, "stimulus": "<p id=\"stim\">6</p>", "key_press": -1, "trial_type": "single-stim", "trial_index": 190, "time_elapsed": 1116838, "internal_node_id": "0.0-141.0-4.0"}}, {"uniqueid": "MTK0789:3TPWUS5F8A8HIMHDELL9YRVACJVWC6", "current_trial": 191, "dateTime": 1512754451935, "trialdata": {"rt": -1, "stimulus": "<p id=\"stim\">5</p>", "key_press": -1, "trial_type": "single-stim", "trial_index": 191, "time_elapsed": 1117839, "internal_node_id": "0.0-141.0-5.0"}}, {"uniqueid": "MTK0789:3TPWUS5F8A8HIMHDELL9YRVACJVWC6", "current_trial": 192, "dateTime": 1512754452937, "trialdata": {"rt": -1, "stimulus": "<p id=\"stim\">4</p>", "key_press": -1, "trial_type": "single-stim", "trial_index": 192, "time_elapsed": 1118842, "internal_node_id": "0.0-141.0-6.0"}}, {"uniqueid": "MTK0789:3TPWUS5F8A8HIMHDELL9YRVACJVWC6", "current_trial": 193, "dateTime": 1512754453939, "trialdata": {"rt": -1, "stimulus": "<p id=\"stim\">3</p>", "key_press": -1, "trial_type": "single-stim", "trial_index": 193, "time_elapsed": 1119844, "internal_node_id": "0.0-141.0-7.0"}}, {"uniqueid": "MTK0789:3TPWUS5F8A8HIMHDELL9YRVACJVWC6", "current_trial": 194, "dateTime": 1512754454941, "trialdata": {"rt": -1, "stimulus": "<p id=\"stim\">2</p>", "key_press": -1, "trial_type": "single-stim", "trial_index": 194, "time_elapsed": 1120846, "internal_node_id": "0.0-141.0-8.0"}}, {"uniqueid": "MTK0789:3TPWUS5F8A8HIMHDELL9YRVACJVWC6", "current_trial": 195, "dateTime": 1512754455943, "trialdata": {"rt": -1, "stimulus": "<p id=\"stim\">1</p>", "key_press": -1, "trial_type": "single-stim", "trial_index": 195, "time_elapsed": 1121848, "internal_node_id": "0.0-141.0-9.0"}}, {"uniqueid": "MTK0789:3TPWUS5F8A8HIMHDELL9YRVACJVWC6", "current_trial": 196, "dateTime": 1512754457470, "trialdata": {"rt": -1, "stimulus": "<p id=\"stim\">+</p>", "key_press": -1, "type": "FIXATION", "trial_type": "single-stim", "trial_index": 196, "time_elapsed": 1123375, "internal_node_id": "0.0-142.0-0.0"}}, {"uniqueid": "MTK0789:3TPWUS5F8A8HIMHDELL9YRVACJVWC6", "current_trial": 197, "dateTime": 1512754459146, "trialdata": {"rt": -1000, "stimulus": "/static/audio/wordpool/OMELET.wav", "key_press": -1, "type": "PRES_AUD", "word": "omelet", "wordID": 975, "conditions": [12, 800, "a", 24000], "trial": 5, "serialpos": 0, "trial_type": "single-audio", "trial_index": 197, "time_elapsed": 1125051, "internal_node_id": "0.0-143.0"}}, {"uniqueid": "MTK0789:3TPWUS5F8A8HIMHDELL9YRVACJVWC6", "current_trial": 198, "dateTime": 1512754460978, "trialdata": {"rt": 518.6666666668316, "stimulus": "/static/audio/wordpool/KLEENEX.wav", "key_press": 18, "type": "PRES_AUD", "word": "kleenex", "wordID": 781, "conditions": [12, 800, "a", 24000], "trial": 5, "serialpos": 1, "trial_type": "single-audio", "trial_index": 198, "time_elapsed": 1126883, "internal_node_id": "0.0-144.0"}}, {"uniqueid": "MTK0789:3TPWUS5F8A8HIMHDELL9YRVACJVWC6", "current_trial": 199, "dateTime": 1512754462616, "trialdata": {"rt": -1000, "stimulus": "/static/audio/wordpool/ATOM.wav", "key_press": -1, "type": "PRES_AUD", "word": "atom", "wordID": 54, "conditions": [12, 800, "a", 24000], "trial": 5, "serialpos": 2, "trial_type": "single-audio", "trial_index": 199, "time_elapsed": 1128521, "internal_node_id": "0.0-145.0"}}, {"uniqueid": "MTK0789:3TPWUS5F8A8HIMHDELL9YRVACJVWC6", "current_trial": 200, "dateTime": 1512754470578, "trialdata": {"rt": -1000, "stimulus": "/static/audio/wordpool/BUG.wav", "key_press": -1, "type": "PRES_AUD", "word": "bug", "wordID": 186, "conditions": [12, 800, "a", 24000], "trial": 5, "serialpos": 3, "trial_type": "single-audio", "trial_index": 200, "time_elapsed": 1136483, "internal_node_id": "0.0-146.0"}}, {"uniqueid": "MTK0789:3TPWUS5F8A8HIMHDELL9YRVACJVWC6", "current_trial": 201, "dateTime": 1512754472185, "trialdata": {"rt": -1000, "stimulus": "/static/audio/wordpool/PEACH.wav", "key_press": -1, "type": "PRES_AUD", "word": "peach", "wordID": 1030, "conditions": [12, 800, "a", 24000], "trial": 5, "serialpos": 4, "trial_type": "single-audio", "trial_index": 201, "time_elapsed": 1138090, "internal_node_id": "0.0-147.0"}}, {"uniqueid": "MTK0789:3TPWUS5F8A8HIMHDELL9YRVACJVWC6", "current_trial": 202, "dateTime": 1512754474025, "trialdata": {"rt": -1000, "stimulus": "/static/audio/wordpool/TROUT.wav", "key_press": -1, "type": "PRES_AUD", "word": "trout", "wordID": 1510, "conditions": [12, 800, "a", 24000], "trial": 5, "serialpos": 5, "trial_type": "single-audio", "trial_index": 202, "time_elapsed": 1139929, "internal_node_id": "0.0-148.0"}}, {"uniqueid": "MTK0789:3TPWUS5F8A8HIMHDELL9YRVACJVWC6", "current_trial": 203, "dateTime": 1512754476025, "trialdata": {"rt": 443.99999999996, "stimulus": "/static/audio/wordpool/POWDER.wav", "key_press": 18, "type": "PRES_AUD", "word": "powder", "wordID": 1116, "conditions": [12, 800, "a", 24000], "trial": 5, "serialpos": 6, "trial_type": "single-audio", "trial_index": 203, "time_elapsed": 1141930, "internal_node_id": "0.0-149.0"}}, {"uniqueid": "MTK0789:3TPWUS5F8A8HIMHDELL9YRVACJVWC6", "current_trial": 204, "dateTime": 1512754477685, "trialdata": {"rt": -1000, "stimulus": "/static/audio/wordpool/HORNET.wav", "key_press": -1, "type": "PRES_AUD", "word": "hornet", "wordID": 717, "conditions": [12, 800, "a", 24000], "trial": 5, "serialpos": 7, "trial_type": "single-audio", "trial_index": 204, "time_elapsed": 1143590, "internal_node_id": "0.0-150.0"}}, {"uniqueid": "MTK0789:3TPWUS5F8A8HIMHDELL9YRVACJVWC6", "current_trial": 205, "dateTime": 1512754479651, "trialdata": {"rt": 1723.9999999999327, "stimulus": "/static/audio/wordpool/WASP.wav", "key_press": 18, "type": "PRES_AUD", "word": "wasp", "wordID": 1592, "conditions": [12, 800, "a", 24000], "trial": 5, "serialpos": 8, "trial_type": "single-audio", "trial_index": 205, "time_elapsed": 1145555, "internal_node_id": "0.0-151.0"}}, {"uniqueid": "MTK0789:3TPWUS5F8A8HIMHDELL9YRVACJVWC6", "current_trial": 206, "dateTime": 1512754481508, "trialdata": {"rt": -1000, "stimulus": "/static/audio/wordpool/BACON.wav", "key_press": -1, "type": "PRES_AUD", "word": "bacon", "wordID": 66, "conditions": [12, 800, "a", 24000], "trial": 5, "serialpos": 9, "trial_type": "single-audio", "trial_index": 206, "time_elapsed": 1147413, "internal_node_id": "0.0-152.0"}}, {"uniqueid": "MTK0789:3TPWUS5F8A8HIMHDELL9YRVACJVWC6", "current_trial": 207, "dateTime": 1512754483399, "trialdata": {"rt": -1000, "stimulus": "/static/audio/wordpool/COUNTRY.wav", "key_press": -1, "type": "PRES_AUD", "word": "country", "wordID": 387, "conditions": [12, 800, "a", 24000], "trial": 5, "serialpos": 10, "trial_type": "single-audio", "trial_index": 207, "time_elapsed": 1149303, "internal_node_id": "0.0-153.0"}}, {"uniqueid": "MTK0789:3TPWUS5F8A8HIMHDELL9YRVACJVWC6", "current_trial": 208, "dateTime": 1512754485179, "trialdata": {"rt": -78.66666666654965, "stimulus": "/static/audio/wordpool/PADDLE.wav", "key_press": 18, "type": "PRES_AUD", "word": "paddle", "wordID": 999, "conditions": [12, 800, "a", 24000], "trial": 5, "serialpos": 11, "trial_type": "single-audio", "trial_index": 208, "time_elapsed": 1151084, "internal_node_id": "0.0-154.0"}}, {"uniqueid": "MTK0789:3TPWUS5F8A8HIMHDELL9YRVACJVWC6", "current_trial": 209, "dateTime": 1512754486551, "trialdata": {"rt": -1, "stimulus": "", "key_press": -1, "type": "PRE_RECALL_DELAY", "trial_type": "single-stim", "trial_index": 209, "time_elapsed": 1152456, "internal_node_id": "0.0-155.0-0.0"}}, {"uniqueid": "MTK0789:3TPWUS5F8A8HIMHDELL9YRVACJVWC6", "current_trial": 210, "dateTime": 1512754487053, "trialdata": {"rt": -1000, "stimulus": "/static/audio/400Hz.wav", "key_press": -1, "type": "PRE_RECALL_ALERT", "trial_type": "single-audio", "trial_index": 210, "time_elapsed": 1152958, "internal_node_id": "0.0-156.0"}}, {"uniqueid": "MTK0789:3TPWUS5F8A8HIMHDELL9YRVACJVWC6", "current_trial": 211, "dateTime": 1512754547082, "trialdata": {"rt": [1808, 2903, 3847, 10567, 11322, 12527], "recwords": ["bacon", "country", "paddle", "trout", "bacon", "kleenex"], "type": "FREE_RECALL", "conditions": [12, 800, "a", 24000], "trial": 5, "trial_type": "free-recall", "trial_index": 211, "time_elapsed": 1212962, "internal_node_id": "0.0-157.0-0.0"}}, {"uniqueid": "MTK0789:3TPWUS5F8A8HIMHDELL9YRVACJVWC6", "current_trial": 212, "dateTime": 1512754556217, "trialdata": {"rt": 7133, "key_press": 18, "type": "INSTRUCTIONS", "trial_type": "text", "trial_index": 212, "time_elapsed": 1222122, "internal_node_id": "0.0-158.0"}}, {"uniqueid": "MTK0789:3TPWUS5F8A8HIMHDELL9YRVACJVWC6", "current_trial": 213, "dateTime": 1512754582222, "trialdata": {"rt": [9943, 11851, 15155, 19747, 21819, 23244], "responses": ["18", "18", "19", "25", "13", "13"], "num1": [4, 6, 8, 9, 6, 4, 8], "num2": [6, 4, 6, 7, 4, 7, 6], "num3": [8, 8, 5, 9, 3, 2, 7], "type": "DISTRACTOR", "conditions": [12, 1600, "a", 24000], "trial": 6, "trial_type": "math-distractor", "trial_index": 213, "time_elapsed": 1248126, "internal_node_id": "0.0-159.0"}}, {"uniqueid": "MTK0789:3TPWUS5F8A8HIMHDELL9YRVACJVWC6", "current_trial": 214, "dateTime": 1512754585225, "trialdata": {"rt": -1, "stimulus": "<p id=\"stim\">10</p>", "key_press": -1, "trial_type": "single-stim", "trial_index": 214, "time_elapsed": 1251130, "internal_node_id": "0.0-160.0-0.0"}}, {"uniqueid": "MTK0789:3TPWUS5F8A8HIMHDELL9YRVACJVWC6", "current_trial": 215, "dateTime": 1512754586227, "trialdata": {"rt": -1, "stimulus": "<p id=\"stim\">9</p>", "key_press": -1, "trial_type": "single-stim", "trial_index": 215, "time_elapsed": 1252132, "internal_node_id": "0.0-160.0-1.0"}}, {"uniqueid": "MTK0789:3TPWUS5F8A8HIMHDELL9YRVACJVWC6", "current_trial": 216, "dateTime": 1512754587352, "trialdata": {"rt": 1123, "stimulus": "<p id=\"stim\">8</p>", "key_press": 18, "trial_type": "single-stim", "trial_index": 216, "time_elapsed": 1253257, "internal_node_id": "0.0-160.0-2.0"}}, {"uniqueid": "MTK0789:3TPWUS5F8A8HIMHDELL9YRVACJVWC6", "current_trial": 217, "dateTime": 1512754588354, "trialdata": {"rt": -1, "stimulus": "<p id=\"stim\">7</p>", "key_press": -1, "trial_type": "single-stim", "trial_index": 217, "time_elapsed": 1254259, "internal_node_id": "0.0-160.0-3.0"}}, {"uniqueid": "MTK0789:3TPWUS5F8A8HIMHDELL9YRVACJVWC6", "current_trial": 218, "dateTime": 1512754589356, "trialdata": {"rt": 909, "stimulus": "<p id=\"stim\">6</p>", "key_press": 17, "trial_type": "single-stim", "trial_index": 218, "time_elapsed": 1255261, "internal_node_id": "0.0-160.0-4.0"}}, {"uniqueid": "MTK0789:3TPWUS5F8A8HIMHDELL9YRVACJVWC6", "current_trial": 219, "dateTime": 1512754590358, "trialdata": {"rt": -1, "stimulus": "<p id=\"stim\">5</p>", "key_press": -1, "trial_type": "single-stim", "trial_index": 219, "time_elapsed": 1256262, "internal_node_id": "0.0-160.0-5.0"}}, {"uniqueid": "MTK0789:3TPWUS5F8A8HIMHDELL9YRVACJVWC6", "current_trial": 220, "dateTime": 1512754591360, "trialdata": {"rt": -1, "stimulus": "<p id=\"stim\">4</p>", "key_press": -1, "trial_type": "single-stim", "trial_index": 220, "time_elapsed": 1257264, "internal_node_id": "0.0-160.0-6.0"}}, {"uniqueid": "MTK0789:3TPWUS5F8A8HIMHDELL9YRVACJVWC6", "current_trial": 221, "dateTime": 1512754592362, "trialdata": {"rt": -1, "stimulus": "<p id=\"stim\">3</p>", "key_press": -1, "trial_type": "single-stim", "trial_index": 221, "time_elapsed": 1258267, "internal_node_id": "0.0-160.0-7.0"}}, {"uniqueid": "MTK0789:3TPWUS5F8A8HIMHDELL9YRVACJVWC6", "current_trial": 222, "dateTime": 1512754593364, "trialdata": {"rt": -1, "stimulus": "<p id=\"stim\">2</p>", "key_press": -1, "trial_type": "single-stim", "trial_index": 222, "time_elapsed": 1259269, "internal_node_id": "0.0-160.0-8.0"}}, {"uniqueid": "MTK0789:3TPWUS5F8A8HIMHDELL9YRVACJVWC6", "current_trial": 223, "dateTime": 1512754594366, "trialdata": {"rt": -1, "stimulus": "<p id=\"stim\">1</p>", "key_press": -1, "trial_type": "single-stim", "trial_index": 223, "time_elapsed": 1260271, "internal_node_id": "0.0-160.0-9.0"}}, {"uniqueid": "MTK0789:3TPWUS5F8A8HIMHDELL9YRVACJVWC6", "current_trial": 224, "dateTime": 1512754595869, "trialdata": {"rt": -1, "stimulus": "<p id=\"stim\">+</p>", "key_press": -1, "type": "FIXATION", "trial_type": "single-stim", "trial_index": 224, "time_elapsed": 1261773, "internal_node_id": "0.0-161.0-0.0"}}, {"uniqueid": "MTK0789:3TPWUS5F8A8HIMHDELL9YRVACJVWC6", "current_trial": 225, "dateTime": 1512754598435, "trialdata": {"rt": 870.6666666669207, "stimulus": "/static/audio/wordpool/OFFICE.wav", "key_press": 18, "type": "PRES_AUD", "word": "office", "wordID": 971, "conditions": [12, 1600, "a", 24000], "trial": 6, "serialpos": 0, "trial_type": "single-audio", "trial_index": 225, "time_elapsed": 1264340, "internal_node_id": "0.0-162.0"}}, {"uniqueid": "MTK0789:3TPWUS5F8A8HIMHDELL9YRVACJVWC6", "current_trial": 226, "dateTime": 1512754600953, "trialdata": {"rt": -1000, "stimulus": "/static/audio/wordpool/HOSTESS.wav", "key_press": -1, "type": "PRES_AUD", "word": "hostess", "wordID": 722, "conditions": [12, 1600, "a", 24000], "trial": 6, "serialpos": 1, "trial_type": "single-audio", "trial_index": 226, "time_elapsed": 1266858, "internal_node_id": "0.0-163.0"}}, {"uniqueid": "MTK0789:3TPWUS5F8A8HIMHDELL9YRVACJVWC6", "current_trial": 227, "dateTime": 1512754603399, "trialdata": {"rt": 92.00000000009823, "stimulus": "/static/audio/wordpool/UMPIRE.wav", "key_press": 18, "type": "PRES_AUD", "word": "umpire", "wordID": 1534, "conditions": [12, 1600, "a", 24000], "trial": 6, "serialpos": 2, "trial_type": "single-audio", "trial_index": 227, "time_elapsed": 1269304, "internal_node_id": "0.0-164.0"}}, {"uniqueid": "MTK0789:3TPWUS5F8A8HIMHDELL9YRVACJVWC6", "current_trial": 228, "dateTime": 1512754606039, "trialdata": {"rt": -1000, "stimulus": "/static/audio/wordpool/PENGUIN.wav", "key_press": -1, "type": "PRES_AUD", "word": "penguin", "wordID": 1043, "conditions": [12, 1600, "a", 24000], "trial": 6, "serialpos": 3, "trial_type": "single-audio", "trial_index": 228, "time_elapsed": 1271944, "internal_node_id": "0.0-165.0"}}, {"uniqueid": "MTK0789:3TPWUS5F8A8HIMHDELL9YRVACJVWC6", "current_trial": 229, "dateTime": 1512754608768, "trialdata": {"rt": -1000, "stimulus": "/static/audio/wordpool/GRAPE.wav", "key_press": -1, "type": "PRES_AUD", "word": "grape", "wordID": 653, "conditions": [12, 1600, "a", 24000], "trial": 6, "serialpos": 4, "trial_type": "single-audio", "trial_index": 229, "time_elapsed": 1274672, "internal_node_id": "0.0-166.0"}}, {"uniqueid": "MTK0789:3TPWUS5F8A8HIMHDELL9YRVACJVWC6", "current_trial": 230, "dateTime": 1512754611508, "trialdata": {"rt": -1000, "stimulus": "/static/audio/wordpool/TURTLE.wav", "key_press": -1, "type": "PRES_AUD", "word": "turtle", "wordID": 1521, "conditions": [12, 1600, "a", 24000], "trial": 6, "serialpos": 5, "trial_type": "single-audio", "trial_index": 230, "time_elapsed": 1277413, "internal_node_id": "0.0-167.0"}}, {"uniqueid": "MTK0789:3TPWUS5F8A8HIMHDELL9YRVACJVWC6", "current_trial": 231, "dateTime": 1512754614141, "trialdata": {"rt": -1000, "stimulus": "/static/audio/wordpool/CAMEL.wav", "key_press": -1, "type": "PRES_AUD", "word": "camel", "wordID": 222, "conditions": [12, 1600, "a", 24000], "trial": 6, "serialpos": 6, "trial_type": "single-audio", "trial_index": 231, "time_elapsed": 1280046, "internal_node_id": "0.0-168.0"}}, {"uniqueid": "MTK0789:3TPWUS5F8A8HIMHDELL9YRVACJVWC6", "current_trial": 232, "dateTime": 1512754616633, "trialdata": {"rt": -1000, "stimulus": "/static/audio/wordpool/TWISTER.wav", "key_press": -1, "type": "PRES_AUD", "word": "twister", "wordID": 1529, "conditions": [12, 1600, "a", 24000], "trial": 6, "serialpos": 7, "trial_type": "single-audio", "trial_index": 232, "time_elapsed": 1282538, "internal_node_id": "0.0-169.0"}}, {"uniqueid": "MTK0789:3TPWUS5F8A8HIMHDELL9YRVACJVWC6", "current_trial": 233, "dateTime": 1512754619240, "trialdata": {"rt": 347.99999999995634, "stimulus": "/static/audio/wordpool/COTTAGE.wav", "key_press": 18, "type": "PRES_AUD", "word": "cottage", "wordID": 383, "conditions": [12, 1600, "a", 24000], "trial": 6, "serialpos": 8, "trial_type": "single-audio", "trial_index": 233, "time_elapsed": 1285145, "internal_node_id": "0.0-170.0"}}, {"uniqueid": "MTK0789:3TPWUS5F8A8HIMHDELL9YRVACJVWC6", "current_trial": 234, "dateTime": 1512754621840, "trialdata": {"rt": -1000, "stimulus": "/static/audio/wordpool/LAGOON.wav", "key_press": -1, "type": "PRES_AUD", "word": "lagoon", "wordID": 794, "conditions": [12, 1600, "a", 24000], "trial": 6, "serialpos": 9, "trial_type": "single-audio", "trial_index": 234, "time_elapsed": 1287745, "internal_node_id": "0.0-171.0"}}, {"uniqueid": "MTK0789:3TPWUS5F8A8HIMHDELL9YRVACJVWC6", "current_trial": 235, "dateTime": 1512754624623, "trialdata": {"rt": -1000, "stimulus": "/static/audio/wordpool/LAKE.wav", "key_press": -1, "type": "PRES_AUD", "word": "lake", "wordID": 795, "conditions": [12, 1600, "a", 24000], "trial": 6, "serialpos": 10, "trial_type": "single-audio", "trial_index": 235, "time_elapsed": 1290528, "internal_node_id": "0.0-172.0"}}, {"uniqueid": "MTK0789:3TPWUS5F8A8HIMHDELL9YRVACJVWC6", "current_trial": 236, "dateTime": 1512754627469, "trialdata": {"rt": -1000, "stimulus": "/static/audio/wordpool/MAMMAL.wav", "key_press": -1, "type": "PRES_AUD", "word": "mammal", "wordID": 860, "conditions": [12, 1600, "a", 24000], "trial": 6, "serialpos": 11, "trial_type": "single-audio", "trial_index": 236, "time_elapsed": 1293374, "internal_node_id": "0.0-173.0"}}, {"uniqueid": "MTK0789:3TPWUS5F8A8HIMHDELL9YRVACJVWC6", "current_trial": 237, "dateTime": 1512754628708, "trialdata": {"rt": -1, "stimulus": "", "key_press": -1, "type": "PRE_RECALL_DELAY", "trial_type": "single-stim", "trial_index": 237, "time_elapsed": 1294613, "internal_node_id": "0.0-174.0-0.0"}}, {"uniqueid": "MTK0789:3TPWUS5F8A8HIMHDELL9YRVACJVWC6", "current_trial": 238, "dateTime": 1512754629210, "trialdata": {"rt": -1000, "stimulus": "/static/audio/400Hz.wav", "key_press": -1, "type": "PRE_RECALL_ALERT", "trial_type": "single-audio", "trial_index": 238, "time_elapsed": 1295115, "internal_node_id": "0.0-175.0"}}, {"uniqueid": "MTK0789:3TPWUS5F8A8HIMHDELL9YRVACJVWC6", "current_trial": 239, "dateTime": 1512754689224, "trialdata": {"rt": [4858, 5546, 9498, 12298, 20130, 30426, 31682], "recwords": ["penguin", "lake", "turtle", "camel", "crystal", "lagoon", "lake"], "type": "FREE_RECALL", "conditions": [12, 1600, "a", 24000], "trial": 6, "trial_type": "free-recall", "trial_index": 239, "time_elapsed": 1355120, "internal_node_id": "0.0-176.0-0.0"}}, {"uniqueid": "MTK0789:3TPWUS5F8A8HIMHDELL9YRVACJVWC6", "current_trial": 240, "dateTime": 1512754695385, "trialdata": {"rt": 4159, "key_press": 18, "type": "INSTRUCTIONS", "trial_type": "text", "trial_index": 240, "time_elapsed": 1361290, "internal_node_id": "0.0-177.0"}}, {"uniqueid": "MTK0789:3TPWUS5F8A8HIMHDELL9YRVACJVWC6", "current_trial": 241, "dateTime": 1512754709390, "trialdata": {"rt": [6899, 10891], "responses": ["18", "26"], "num1": [8, 8, 3], "num2": [7, 9, 6], "num3": [3, 9, 9], "type": "DISTRACTOR", "conditions": [12, 1600, "v", 12000], "trial": 7, "trial_type": "math-distractor", "trial_index": 241, "time_elapsed": 1375294, "internal_node_id": "0.0-178.0"}}, {"uniqueid": "MTK0789:3TPWUS5F8A8HIMHDELL9YRVACJVWC6", "current_trial": 242, "dateTime": 1512754712393, "trialdata": {"rt": -1, "stimulus": "<p id=\"stim\">10</p>", "key_press": -1, "trial_type": "single-stim", "trial_index": 242, "time_elapsed": 1378297, "internal_node_id": "0.0-179.0-0.0"}}, {"uniqueid": "MTK0789:3TPWUS5F8A8HIMHDELL9YRVACJVWC6", "current_trial": 243, "dateTime": 1512754713395, "trialdata": {"rt": -1, "stimulus": "<p id=\"stim\">9</p>", "key_press": -1, "trial_type": "single-stim", "trial_index": 243, "time_elapsed": 1379299, "internal_node_id": "0.0-179.0-1.0"}}, {"uniqueid": "MTK0789:3TPWUS5F8A8HIMHDELL9YRVACJVWC6", "current_trial": 244, "dateTime": 1512754714397, "trialdata": {"rt": -1, "stimulus": "<p id=\"stim\">8</p>", "key_press": -1, "trial_type": "single-stim", "trial_index": 244, "time_elapsed": 1380302, "internal_node_id": "0.0-179.0-2.0"}}, {"uniqueid": "MTK0789:3TPWUS5F8A8HIMHDELL9YRVACJVWC6", "current_trial": 245, "dateTime": 1512754715399, "trialdata": {"rt": -1, "stimulus": "<p id=\"stim\">7</p>", "key_press": -1, "trial_type": "single-stim", "trial_index": 245, "time_elapsed": 1381303, "internal_node_id": "0.0-179.0-3.0"}}, {"uniqueid": "MTK0789:3TPWUS5F8A8HIMHDELL9YRVACJVWC6", "current_trial": 246, "dateTime": 1512754716401, "trialdata": {"rt": -1, "stimulus": "<p id=\"stim\">6</p>", "key_press": -1, "trial_type": "single-stim", "trial_index": 246, "time_elapsed": 1382305, "internal_node_id": "0.0-179.0-4.0"}}, {"uniqueid": "MTK0789:3TPWUS5F8A8HIMHDELL9YRVACJVWC6", "current_trial": 247, "dateTime": 1512754717403, "trialdata": {"rt": -1, "stimulus": "<p id=\"stim\">5</p>", "key_press": -1, "trial_type": "single-stim", "trial_index": 247, "time_elapsed": 1383308, "internal_node_id": "0.0-179.0-5.0"}}, {"uniqueid": "MTK0789:3TPWUS5F8A8HIMHDELL9YRVACJVWC6", "current_trial": 248, "dateTime": 1512754718405, "trialdata": {"rt": -1, "stimulus": "<p id=\"stim\">4</p>", "key_press": -1, "trial_type": "single-stim", "trial_index": 248, "time_elapsed": 1384310, "internal_node_id": "0.0-179.0-6.0"}}, {"uniqueid": "MTK0789:3TPWUS5F8A8HIMHDELL9YRVACJVWC6", "current_trial": 249, "dateTime": 1512754719646, "trialdata": {"rt": -1, "stimulus": "<p id=\"stim\">3</p>", "key_press": -1, "trial_type": "single-stim", "trial_index": 249, "time_elapsed": 1385551, "internal_node_id": "0.0-179.0-7.0"}}, {"uniqueid": "MTK0789:3TPWUS5F8A8HIMHDELL9YRVACJVWC6", "current_trial": 250, "dateTime": 1512754720649, "trialdata": {"rt": -1, "stimulus": "<p id=\"stim\">2</p>", "key_press": -1, "trial_type": "single-stim", "trial_index": 250, "time_elapsed": 1386553, "internal_node_id": "0.0-179.0-8.0"}}, {"uniqueid": "MTK0789:3TPWUS5F8A8HIMHDELL9YRVACJVWC6", "current_trial": 251, "dateTime": 1512754721651, "trialdata": {"rt": -1, "stimulus": "<p id=\"stim\">1</p>", "key_press": -1, "trial_type": "single-stim", "trial_index": 251, "time_elapsed": 1387555, "internal_node_id": "0.0-179.0-9.0"}}, {"uniqueid": "MTK0789:3TPWUS5F8A8HIMHDELL9YRVACJVWC6", "current_trial": 252, "dateTime": 1512754723153, "trialdata": {"rt": -1, "stimulus": "<p id=\"stim\">+</p>", "key_press": -1, "type": "FIXATION", "trial_type": "single-stim", "trial_index": 252, "time_elapsed": 1389058, "internal_node_id": "0.0-180.0-0.0"}}, {"uniqueid": "MTK0789:3TPWUS5F8A8HIMHDELL9YRVACJVWC6", "current_trial": 253, "dateTime": 1512754724756, "trialdata": {"rt": -1, "stimulus": "<p id=\"stim\">ARM</p>", "key_press": -1, "type": "PRES_VIS", "word": "arm", "wordID": 37, "conditions": [12, 1600, "v", 12000], "trial": 7, "serialpos": 0, "trial_type": "single-stim", "trial_index": 253, "time_elapsed": 1390661, "internal_node_id": "0.0-181.0"}}, {"uniqueid": "MTK0789:3TPWUS5F8A8HIMHDELL9YRVACJVWC6", "current_trial": 254, "dateTime": 1512754727184, "trialdata": {"rt": 262, "stimulus": "<p id=\"stim\">BADGE</p>", "key_press": 18, "type": "PRES_VIS", "word": "badge", "wordID": 67, "conditions": [12, 1600, "v", 12000], "trial": 7, "serialpos": 1, "trial_type": "single-stim", "trial_index": 254, "time_elapsed": 1393087, "internal_node_id": "0.0-182.0"}}, {"uniqueid": "MTK0789:3TPWUS5F8A8HIMHDELL9YRVACJVWC6", "current_trial": 255, "dateTime": 1512754729612, "trialdata": {"rt": -1, "stimulus": "<p id=\"stim\">BOUQUET</p>", "key_press": -1, "type": "PRES_VIS", "word": "bouquet", "wordID": 156, "conditions": [12, 1600, "v", 12000], "trial": 7, "serialpos": 2, "trial_type": "single-stim", "trial_index": 255, "time_elapsed": 1395516, "internal_node_id": "0.0-183.0"}}, {"uniqueid": "MTK0789:3TPWUS5F8A8HIMHDELL9YRVACJVWC6", "current_trial": 256, "dateTime": 1512754732037, "trialdata": {"rt": -1, "stimulus": "<p id=\"stim\">CITRUS</p>", "key_press": -1, "type": "PRES_VIS", "word": "citrus", "wordID": 312, "conditions": [12, 1600, "v", 12000], "trial": 7, "serialpos": 3, "trial_type": "single-stim", "trial_index": 256, "time_elapsed": 1397941, "internal_node_id": "0.0-184.0"}}, {"uniqueid": "MTK0789:3TPWUS5F8A8HIMHDELL9YRVACJVWC6", "current_trial": 257, "dateTime": 1512754734743, "trialdata": {"rt": 677, "stimulus": "<p id=\"stim\">OYSTER</p>", "key_press": 18, "type": "PRES_VIS", "word": "oyster", "wordID": 994, "conditions": [12, 1600, "v", 12000], "trial": 7, "serialpos": 4, "trial_type": "single-stim", "trial_index": 257, "time_elapsed": 1400648, "internal_node_id": "0.0-185.0"}}, {"uniqueid": "MTK0789:3TPWUS5F8A8HIMHDELL9YRVACJVWC6", "current_trial": 258, "dateTime": 1512754737297, "trialdata": {"rt": -1, "stimulus": "<p id=\"stim\">STICKER</p>", "key_press": -1, "type": "PRES_VIS", "word": "sticker", "wordID": 1381, "conditions": [12, 1600, "v", 12000], "trial": 7, "serialpos": 5, "trial_type": "single-stim", "trial_index": 258, "time_elapsed": 1403201, "internal_node_id": "0.0-186.0"}}, {"uniqueid": "MTK0789:3TPWUS5F8A8HIMHDELL9YRVACJVWC6", "current_trial": 259, "dateTime": 1512754739833, "trialdata": {"rt": 750, "stimulus": "<p id=\"stim\">LIVER</p>", "key_press": 18, "type": "PRES_VIS", "word": "liver", "wordID": 832, "conditions": [12, 1600, "v", 12000], "trial": 7, "serialpos": 6, "trial_type": "single-stim", "trial_index": 259, "time_elapsed": 1405738, "internal_node_id": "0.0-187.0"}}, {"uniqueid": "MTK0789:3TPWUS5F8A8HIMHDELL9YRVACJVWC6", "current_trial": 260, "dateTime": 1512754742373, "trialdata": {"rt": 780, "stimulus": "<p id=\"stim\">YARN</p>", "key_press": 18, "type": "PRES_VIS", "word": "yarn", "wordID": 1630, "conditions": [12, 1600, "v", 12000], "trial": 7, "serialpos": 7, "trial_type": "single-stim", "trial_index": 260, "time_elapsed": 1408278, "internal_node_id": "0.0-188.0"}}, {"uniqueid": "MTK0789:3TPWUS5F8A8HIMHDELL9YRVACJVWC6", "current_trial": 261, "dateTime": 1512754744865, "trialdata": {"rt": -1, "stimulus": "<p id=\"stim\">PORK</p>", "key_press": -1, "type": "PRES_VIS", "word": "pork", "wordID": 1107, "conditions": [12, 1600, "v", 12000], "trial": 7, "serialpos": 8, "trial_type": "single-stim", "trial_index": 261, "time_elapsed": 1410770, "internal_node_id": "0.0-189.0"}}, {"uniqueid": "MTK0789:3TPWUS5F8A8HIMHDELL9YRVACJVWC6", "current_trial": 262, "dateTime": 1512754747495, "trialdata": {"rt": -1, "stimulus": "<p id=\"stim\">LADY</p>", "key_press": -1, "type": "PRES_VIS", "word": "lady", "wordID": 793, "conditions": [12, 1600, "v", 12000], "trial": 7, "serialpos": 9, "trial_type": "single-stim", "trial_index": 262, "time_elapsed": 1413399, "internal_node_id": "0.0-190.0"}}, {"uniqueid": "MTK0789:3TPWUS5F8A8HIMHDELL9YRVACJVWC6", "current_trial": 263, "dateTime": 1512754750123, "trialdata": {"rt": -1, "stimulus": "<p id=\"stim\">WOMAN</p>", "key_press": -1, "type": "PRES_VIS", "word": "woman", "wordID": 1619, "conditions": [12, 1600, "v", 12000], "trial": 7, "serialpos": 10, "trial_type": "single-stim", "trial_index": 263, "time_elapsed": 1416027, "internal_node_id": "0.0-191.0"}}, {"uniqueid": "MTK0789:3TPWUS5F8A8HIMHDELL9YRVACJVWC6", "current_trial": 264, "dateTime": 1512754752610, "trialdata": {"rt": -1, "stimulus": "<p id=\"stim\">BELLY</p>", "key_press": -1, "type": "PRES_VIS", "word": "belly", "wordID": 118, "conditions": [12, 1600, "v", 12000], "trial": 7, "serialpos": 11, "trial_type": "single-stim", "trial_index": 264, "time_elapsed": 1418515, "internal_node_id": "0.0-192.0"}}, {"uniqueid": "MTK0789:3TPWUS5F8A8HIMHDELL9YRVACJVWC6", "current_trial": 265, "dateTime": 1512754754945, "trialdata": {"rt": -1, "stimulus": "", "key_press": -1, "type": "PRE_RECALL_DELAY", "trial_type": "single-stim", "trial_index": 265, "time_elapsed": 1420850, "internal_node_id": "0.0-193.0-0.0"}}, {"uniqueid": "MTK0789:3TPWUS5F8A8HIMHDELL9YRVACJVWC6", "current_trial": 266, "dateTime": 1512754755447, "trialdata": {"rt": -1000, "stimulus": "/static/audio/400Hz.wav", "key_press": -1, "type": "PRE_RECALL_ALERT", "trial_type": "single-audio", "trial_index": 266, "time_elapsed": 1421352, "internal_node_id": "0.0-194.0"}}, {"uniqueid": "MTK0789:3TPWUS5F8A8HIMHDELL9YRVACJVWC6", "current_trial": 267, "dateTime": 1512754815460, "trialdata": {"rt": [7245, 7941, 10085, 10917, 11501], "recwords": ["yarn", "liver", "oyster", "badge", "arm"], "type": "FREE_RECALL", "conditions": [12, 1600, "v", 12000], "trial": 7, "trial_type": "free-recall", "trial_index": 267, "time_elapsed": 1481357, "internal_node_id": "0.0-195.0-0.0"}}, {"uniqueid": "MTK0789:3TPWUS5F8A8HIMHDELL9YRVACJVWC6", "current_trial": 268, "dateTime": 1512754819882, "trialdata": {"rt": 2420, "key_press": 32, "type": "INSTRUCTIONS", "trial_type": "text", "trial_index": 268, "time_elapsed": 1485787, "internal_node_id": "0.0-196.0"}}, {"uniqueid": "MTK0789:3TPWUS5F8A8HIMHDELL9YRVACJVWC6", "current_trial": 269, "dateTime": 1512754833888, "trialdata": {"rt": [2322, 4426, 5930, 7745, 9993, 11683], "responses": ["13", "7", "13", "9", "20", "12"], "num1": [1, 3, 8, 6, 7, 3, 1], "num2": [9, 2, 4, 1, 4, 4, 8], "num3": [3, 3, 1, 2, 9, 5, 6], "type": "DISTRACTOR", "conditions": [24, 1600, "a", 12000], "trial": 8, "trial_type": "math-distractor", "trial_index": 269, "time_elapsed": 1499793, "internal_node_id": "0.0-197.0"}}, {"uniqueid": "MTK0789:3TPWUS5F8A8HIMHDELL9YRVACJVWC6", "current_trial": 270, "dateTime": 1512754836891, "trialdata": {"rt": -1, "stimulus": "<p id=\"stim\">10</p>", "key_press": -1, "trial_type": "single-stim", "trial_index": 270, "time_elapsed": 1502795, "internal_node_id": "0.0-198.0-0.0"}}, {"uniqueid": "MTK0789:3TPWUS5F8A8HIMHDELL9YRVACJVWC6", "current_trial": 271, "dateTime": 1512754837893, "trialdata": {"rt": -1, "stimulus": "<p id=\"stim\">9</p>", "key_press": -1, "trial_type": "single-stim", "trial_index": 271, "time_elapsed": 1503797, "internal_node_id": "0.0-198.0-1.0"}}, {"uniqueid": "MTK0789:3TPWUS5F8A8HIMHDELL9YRVACJVWC6", "current_trial": 272, "dateTime": 1512754838894, "trialdata": {"rt": -1, "stimulus": "<p id=\"stim\">8</p>", "key_press": -1, "trial_type": "single-stim", "trial_index": 272, "time_elapsed": 1504799, "internal_node_id": "0.0-198.0-2.0"}}, {"uniqueid": "MTK0789:3TPWUS5F8A8HIMHDELL9YRVACJVWC6", "current_trial": 273, "dateTime": 1512754839896, "trialdata": {"rt": -1, "stimulus": "<p id=\"stim\">7</p>", "key_press": -1, "trial_type": "single-stim", "trial_index": 273, "time_elapsed": 1505801, "internal_node_id": "0.0-198.0-3.0"}}, {"uniqueid": "MTK0789:3TPWUS5F8A8HIMHDELL9YRVACJVWC6", "current_trial": 274, "dateTime": 1512754840898, "trialdata": {"rt": -1, "stimulus": "<p id=\"stim\">6</p>", "key_press": -1, "trial_type": "single-stim", "trial_index": 274, "time_elapsed": 1506803, "internal_node_id": "0.0-198.0-4.0"}}, {"uniqueid": "MTK0789:3TPWUS5F8A8HIMHDELL9YRVACJVWC6", "current_trial": 275, "dateTime": 1512754841900, "t