{"condition": 0, "counterbalance": 628, "assignmentId": "3TXWC2NHN0XMD7T1IW1HZCRHWLX9SK", "workerId": "MTK0008", "hitId": "3D17ECOUOE2YH17XY2GLNE52THQ31H", "currenttrial": 625, "bonus": 0, "data": [{"uniqueid": "MTK0008:3TXWC2NHN0XMD7T1IW1HZCRHWLX9SK", "current_trial": 0, "dateTime": 1508953065061, "trialdata": {"rt": 3482, "key_press": 39, "type": "INSTRUCTIONS", "trial_type": "text", "trial_index": 0, "time_elapsed": 3486, "internal_node_id": "0.0-0.0"}}, {"uniqueid": "MTK0008:3TXWC2NHN0XMD7T1IW1HZCRHWLX9SK", "current_trial": 1, "dateTime": 1508953082669, "trialdata": {"rt": 17605, "key_press": 39, "type": "INSTRUCTIONS", "trial_type": "text", "trial_index": 1, "time_elapsed": 21095, "internal_node_id": "0.0-1.0"}}, {"uniqueid": "MTK0008:3TXWC2NHN0XMD7T1IW1HZCRHWLX9SK", "current_trial": 2, "dateTime": 1508953094600, "trialdata": {"rt": [11918], "responses": ["ocean"], "type": "AUDIO_TEST", "trial_type": "audio-test", "trial_index": 2, "time_elapsed": 33026, "internal_node_id": "0.0-2.0"}}, {"uniqueid": "MTK0008:3TXWC2NHN0XMD7T1IW1HZCRHWLX9SK", "current_trial": 3, "dateTime": 1508953105652, "trialdata": {"rt": [11043], "responses": ["crystal"], "type": "AUDIO_TEST", "trial_type": "audio-test", "trial_index": 3, "time_elapsed": 44078, "internal_node_id": "0.0-3.0"}}, {"uniqueid": "MTK0008:3TXWC2NHN0XMD7T1IW1HZCRHWLX9SK", "current_trial": 4, "dateTime": 1508953113470, "trialdata": {"rt": [7809], "responses": ["spice"], "type": "AUDIO_TEST", "trial_type": "audio-test", "trial_index": 4, "time_elapsed": 51896, "internal_node_id": "0.0-4.0"}}, {"uniqueid": "MTK0008:3TXWC2NHN0XMD7T1IW1HZCRHWLX9SK", "current_trial": 5, "dateTime": 1508953118850, "trialdata": {"rt": 4598, "key_press": 20, "type": "INSTRUCTIONS", "trial_type": "text", "trial_index": 5, "time_elapsed": 57275, "internal_node_id": "0.0-5.0"}}, {"uniqueid": "MTK0008:3TXWC2NHN0XMD7T1IW1HZCRHWLX9SK", "current_trial": 6, "dateTime": 1508953118851, "trialdata": {"rt": 0, "key_press": 16, "type": "INSTRUCTIONS", "trial_type": "text", "trial_index": 6, "time_elapsed": 57277, "internal_node_id": "0.0-6.0"}}, {"uniqueid": "MTK0008:3TXWC2NHN0XMD7T1IW1HZCRHWLX9SK", "current_trial": 7, "dateTime": 1508953118852, "trialdata": {"rt": 0, "key_press": 20, "type": "INSTRUCTIONS", "trial_type": "text", "trial_index": 7, "time_elapsed": 57278, "internal_node_id": "0.0-7.0"}}, {"uniqueid": "MTK0008:3TXWC2NHN0XMD7T1IW1HZCRHWLX9SK", "current_trial": 8, "dateTime": 1508953130654, "trialdata": {"rt": 11800, "key_press": 20, "type": "INSTRUCTIONS", "trial_type": "text", "trial_index": 8, "time_elapsed": 69080, "internal_node_id": "0.0-8.0"}}, {"uniqueid": "MTK0008:3TXWC2NHN0XMD7T1IW1HZCRHWLX9SK", "current_trial": 9, "dateTime": 1508953149674, "trialdata": {"rt": [7176, 14465, 16926], "responses": ["17", "15", "8"], "num1": [7, 5, 2, 3], "num2": [3, 6, 3, 8], "num3": [7, 4, 3, 5], "type": "DISTRACTOR", "conditions": [18, 1200, "v", 18000], "trial": 0, "trial_type": "math-distractor", "trial_index": 9, "time_elapsed": 88099, "internal_node_id": "0.0-9.0"}}, {"uniqueid": "MTK0008:3TXWC2NHN0XMD7T1IW1HZCRHWLX9SK", "current_trial": 10, "dateTime": 1508953152684, "trialdata": {"rt": -1, "stimulus": "<p id=\"stim\">10</p>", "key_press": -1, "trial_type": "single-stim", "trial_index": 10, "time_elapsed": 91109, "internal_node_id": "0.0-10.0-0.0"}}, {"uniqueid": "MTK0008:3TXWC2NHN0XMD7T1IW1HZCRHWLX9SK", "current_trial": 11, "dateTime": 1508953153685, "trialdata": {"rt": -1, "stimulus": "<p id=\"stim\">9</p>", "key_press": -1, "trial_type": "single-stim", "trial_index": 11, "time_elapsed": 92111, "internal_node_id": "0.0-10.0-1.0"}}, {"uniqueid": "MTK0008:3TXWC2NHN0XMD7T1IW1HZCRHWLX9SK", "current_trial": 12, "dateTime": 1508953154690, "trialdata": {"rt": -1, "stimulus": "<p id=\"stim\">8</p>", "key_press": -1, "trial_type": "single-stim", "trial_index": 12, "time_elapsed": 93115, "internal_node_id": "0.0-10.0-2.0"}}, {"uniqueid": "MTK0008:3TXWC2NHN0XMD7T1IW1HZCRHWLX9SK", "current_trial": 13, "dateTime": 1508953155693, "trialdata": {"rt": -1, "stimulus": "<p id=\"stim\">7</p>", "key_press": -1, "trial_type": "single-stim", "trial_index": 13, "time_elapsed": 94119, "internal_node_id": "0.0-10.0-3.0"}}, {"uniqueid": "MTK0008:3TXWC2NHN0XMD7T1IW1HZCRHWLX9SK", "current_trial": 14, "dateTime": 1508953156707, "trialdata": {"rt": -1, "stimulus": "<p id=\"stim\">6</p>", "key_press": -1, "trial_type": "single-stim", "trial_index": 14, "time_elapsed": 95133, "internal_node_id": "0.0-10.0-4.0"}}, {"uniqueid": "MTK0008:3TXWC2NHN0XMD7T1IW1HZCRHWLX9SK", "current_trial": 15, "dateTime": 1508953157711, "trialdata": {"rt": -1, "stimulus": "<p id=\"stim\">5</p>", "key_press": -1, "trial_type": "single-stim", "trial_index": 15, "time_elapsed": 96136, "internal_node_id": "0.0-10.0-5.0"}}, {"uniqueid": "MTK0008:3TXWC2NHN0XMD7T1IW1HZCRHWLX9SK", "current_trial": 16, "dateTime": 1508953158713, "trialdata": {"rt": -1, "stimulus": "<p id=\"stim\">4</p>", "key_press": -1, "trial_type": "single-stim", "trial_index": 16, "time_elapsed": 97139, "internal_node_id": "0.0-10.0-6.0"}}, {"uniqueid": "MTK0008:3TXWC2NHN0XMD7T1IW1HZCRHWLX9SK", "current_trial": 17, "dateTime": 1508953159715, "trialdata": {"rt": -1, "stimulus": "<p id=\"stim\">3</p>", "key_press": -1, "trial_type": "single-stim", "trial_index": 17, "time_elapsed": 98141, "internal_node_id": "0.0-10.0-7.0"}}, {"uniqueid": "MTK0008:3TXWC2NHN0XMD7T1IW1HZCRHWLX9SK", "current_trial": 18, "dateTime": 1508953160733, "trialdata": {"rt": -1, "stimulus": "<p id=\"stim\">2</p>", "key_press": -1, "trial_type": "single-stim", "trial_index": 18, "time_elapsed": 99159, "internal_node_id": "0.0-10.0-8.0"}}, {"uniqueid": "MTK0008:3TXWC2NHN0XMD7T1IW1HZCRHWLX9SK", "current_trial": 19, "dateTime": 1508953161737, "trialdata": {"rt": -1, "stimulus": "<p id=\"stim\">1</p>", "key_press": -1, "trial_type": "single-stim", "trial_index": 19, "time_elapsed": 100162, "internal_node_id": "0.0-10.0-9.0"}}, {"uniqueid": "MTK0008:3TXWC2NHN0XMD7T1IW1HZCRHWLX9SK", "current_trial": 20, "dateTime": 1508953163239, "trialdata": {"rt": -1, "stimulus": "<p id=\"stim\">+</p>", "key_press": -1, "type": "FIXATION", "trial_type": "single-stim", "trial_index": 20, "time_elapsed": 101665, "internal_node_id": "0.0-11.0-0.0"}}, {"uniqueid": "MTK0008:3TXWC2NHN0XMD7T1IW1HZCRHWLX9SK", "current_trial": 21, "dateTime": 1508953164440, "trialdata": {"rt": -1, "stimulus": "<p id=\"stim\">MAMMAL</p>", "key_press": -1, "type": "PRES_VIS", "word": "mammal", "wordID": 860, "conditions": [18, 1200, "v", 18000], "trial": 0, "serialpos": 0, "trial_type": "single-stim", "trial_index": 21, "time_elapsed": 102866, "internal_node_id": "0.0-12.0"}}, {"uniqueid": "MTK0008:3TXWC2NHN0XMD7T1IW1HZCRHWLX9SK", "current_trial": 22, "dateTime": 1508953166718, "trialdata": {"rt": -1, "stimulus": "<p id=\"stim\">SNAKE</p>", "key_press": -1, "type": "PRES_VIS", "word": "snake", "wordID": 1332, "conditions": [18, 1200, "v", 18000], "trial": 0, "serialpos": 1, "trial_type": "single-stim", "trial_index": 22, "time_elapsed": 105144, "internal_node_id": "0.0-13.0"}}, {"uniqueid": "MTK0008:3TXWC2NHN0XMD7T1IW1HZCRHWLX9SK", "current_trial": 23, "dateTime": 1508953169053, "trialdata": {"rt": -1, "stimulus": "<p id=\"stim\">ROOSTER</p>", "key_press": -1, "type": "PRES_VIS", "word": "rooster", "wordID": 1208, "conditions": [18, 1200, "v", 18000], "trial": 0, "serialpos": 2, "trial_type": "single-stim", "trial_index": 23, "time_elapsed": 107479, "internal_node_id": "0.0-14.0"}}, {"uniqueid": "MTK0008:3TXWC2NHN0XMD7T1IW1HZCRHWLX9SK", "current_trial": 24, "dateTime": 1508953171397, "trialdata": {"rt": -1, "stimulus": "<p id=\"stim\">AIRPORT</p>", "key_press": -1, "type": "PRES_VIS", "word": "airport", "wordID": 12, "conditions": [18, 1200, "v", 18000], "trial": 0, "serialpos": 3, "trial_type": "single-stim", "trial_index": 24, "time_elapsed": 109823, "internal_node_id": "0.0-15.0"}}, {"uniqueid": "MTK0008:3TXWC2NHN0XMD7T1IW1HZCRHWLX9SK", "current_trial": 25, "dateTime": 1508953173647, "trialdata": {"rt": -1, "stimulus": "<p id=\"stim\">GRAVE</p>", "key_press": -1, "type": "PRES_VIS", "word": "grave", "wordID": 657, "conditions": [18, 1200, "v", 18000], "trial": 0, "serialpos": 4, "trial_type": "single-stim", "trial_index": 25, "time_elapsed": 112073, "internal_node_id": "0.0-16.0"}}, {"uniqueid": "MTK0008:3TXWC2NHN0XMD7T1IW1HZCRHWLX9SK", "current_trial": 26, "dateTime": 1508953175978, "trialdata": {"rt": -1, "stimulus": "<p id=\"stim\">SALAD</p>", "key_press": -1, "type": "PRES_VIS", "word": "salad", "wordID": 1223, "conditions": [18, 1200, "v", 18000], "trial": 0, "serialpos": 5, "trial_type": "single-stim", "trial_index": 26, "time_elapsed": 114404, "internal_node_id": "0.0-17.0"}}, {"uniqueid": "MTK0008:3TXWC2NHN0XMD7T1IW1HZCRHWLX9SK", "current_trial": 27, "dateTime": 1508953178003, "trialdata": {"rt": -1, "stimulus": "<p id=\"stim\">PROTON</p>", "key_press": -1, "type": "PRES_VIS", "word": "proton", "wordID": 1131, "conditions": [18, 1200, "v", 18000], "trial": 0, "serialpos": 6, "trial_type": "single-stim", "trial_index": 27, "time_elapsed": 116429, "internal_node_id": "0.0-18.0"}}, {"uniqueid": "MTK0008:3TXWC2NHN0XMD7T1IW1HZCRHWLX9SK", "current_trial": 28, "dateTime": 1508953180168, "trialdata": {"rt": -1, "stimulus": "<p id=\"stim\">LEADER</p>", "key_press": -1, "type": "PRES_VIS", "word": "leader", "wordID": 806, "conditions": [18, 1200, "v", 18000], "trial": 0, "serialpos": 7, "trial_type": "single-stim", "trial_index": 28, "time_elapsed": 118594, "internal_node_id": "0.0-19.0"}}, {"uniqueid": "MTK0008:3TXWC2NHN0XMD7T1IW1HZCRHWLX9SK", "current_trial": 29, "dateTime": 1508953182508, "trialdata": {"rt": -1, "stimulus": "<p id=\"stim\">BULLET</p>", "key_press": -1, "type": "PRES_VIS", "word": "bullet", "wordID": 193, "conditions": [18, 1200, "v", 18000], "trial": 0, "serialpos": 8, "trial_type": "single-stim", "trial_index": 29, "time_elapsed": 120933, "internal_node_id": "0.0-20.0"}}, {"uniqueid": "MTK0008:3TXWC2NHN0XMD7T1IW1HZCRHWLX9SK", "current_trial": 30, "dateTime": 1508953184656, "trialdata": {"rt": -1, "stimulus": "<p id=\"stim\">BUG</p>", "key_press": -1, "type": "PRES_VIS", "word": "bug", "wordID": 186, "conditions": [18, 1200, "v", 18000], "trial": 0, "serialpos": 9, "trial_type": "single-stim", "trial_index": 30, "time_elapsed": 123081, "internal_node_id": "0.0-21.0"}}, {"uniqueid": "MTK0008:3TXWC2NHN0XMD7T1IW1HZCRHWLX9SK", "current_trial": 31, "dateTime": 1508953187043, "trialdata": {"rt": -1, "stimulus": "<p id=\"stim\">LACE</p>", "key_press": -1, "type": "PRES_VIS", "word": "lace", "wordID": 791, "conditions": [18, 1200, "v", 18000], "trial": 0, "serialpos": 10, "trial_type": "single-stim", "trial_index": 31, "time_elapsed": 125469, "internal_node_id": "0.0-22.0"}}, {"uniqueid": "MTK0008:3TXWC2NHN0XMD7T1IW1HZCRHWLX9SK", "current_trial": 32, "dateTime": 1508953189374, "trialdata": {"rt": -1, "stimulus": "<p id=\"stim\">FOREHEAD</p>", "key_press": -1, "type": "PRES_VIS", "word": "forehead", "wordID": 591, "conditions": [18, 1200, "v", 18000], "trial": 0, "serialpos": 11, "trial_type": "single-stim", "trial_index": 32, "time_elapsed": 127800, "internal_node_id": "0.0-23.0"}}, {"uniqueid": "MTK0008:3TXWC2NHN0XMD7T1IW1HZCRHWLX9SK", "current_trial": 33, "dateTime": 1508953191819, "trialdata": {"rt": -1, "stimulus": "<p id=\"stim\">SCULPTURE</p>", "key_press": -1, "type": "PRES_VIS", "word": "sculpture", "wordID": 1257, "conditions": [18, 1200, "v", 18000], "trial": 0, "serialpos": 12, "trial_type": "single-stim", "trial_index": 33, "time_elapsed": 130245, "internal_node_id": "0.0-24.0"}}, {"uniqueid": "MTK0008:3TXWC2NHN0XMD7T1IW1HZCRHWLX9SK", "current_trial": 34, "dateTime": 1508953193956, "trialdata": {"rt": -1, "stimulus": "<p id=\"stim\">LAGOON</p>", "key_press": -1, "type": "PRES_VIS", "word": "lagoon", "wordID": 794, "conditions": [18, 1200, "v", 18000], "trial": 0, "serialpos": 13, "trial_type": "single-stim", "trial_index": 34, "time_elapsed": 132382, "internal_node_id": "0.0-25.0"}}, {"uniqueid": "MTK0008:3TXWC2NHN0XMD7T1IW1HZCRHWLX9SK", "current_trial": 35, "dateTime": 1508953196178, "trialdata": {"rt": -1, "stimulus": "<p id=\"stim\">SHOVEL</p>", "key_press": -1, "type": "PRES_VIS", "word": "shovel", "wordID": 1294, "conditions": [18, 1200, "v", 18000], "trial": 0, "serialpos": 14, "trial_type": "single-stim", "trial_index": 35, "time_elapsed": 134604, "internal_node_id": "0.0-26.0"}}, {"uniqueid": "MTK0008:3TXWC2NHN0XMD7T1IW1HZCRHWLX9SK", "current_trial": 36, "dateTime": 1508953198425, "trialdata": {"rt": -1, "stimulus": "<p id=\"stim\">CHEST</p>", "key_press": -1, "type": "PRES_VIS", "word": "chest", "wordID": 294, "conditions": [18, 1200, "v", 18000], "trial": 0, "serialpos": 15, "trial_type": "single-stim", "trial_index": 36, "time_elapsed": 136851, "internal_node_id": "0.0-27.0"}}, {"uniqueid": "MTK0008:3TXWC2NHN0XMD7T1IW1HZCRHWLX9SK", "current_trial": 37, "dateTime": 1508953200634, "trialdata": {"rt": -1, "stimulus": "<p id=\"stim\">STAMP</p>", "key_press": -1, "type": "PRES_VIS", "word": "stamp", "wordID": 1369, "conditions": [18, 1200, "v", 18000], "trial": 0, "serialpos": 16, "trial_type": "single-stim", "trial_index": 37, "time_elapsed": 139059, "internal_node_id": "0.0-28.0"}}, {"uniqueid": "MTK0008:3TXWC2NHN0XMD7T1IW1HZCRHWLX9SK", "current_trial": 38, "dateTime": 1508953202880, "trialdata": {"rt": -1, "stimulus": "<p id=\"stim\">SADDLE</p>", "key_press": -1, "type": "PRES_VIS", "word": "saddle", "wordID": 1220, "conditions": [18, 1200, "v", 18000], "trial": 0, "serialpos": 17, "trial_type": "single-stim", "trial_index": 38, "time_elapsed": 141305, "internal_node_id": "0.0-29.0"}}, {"uniqueid": "MTK0008:3TXWC2NHN0XMD7T1IW1HZCRHWLX9SK", "current_trial": 39, "dateTime": 1508953205196, "trialdata": {"rt": -1, "stimulus": "", "key_press": -1, "type": "PRE_RECALL_DELAY", "trial_type": "single-stim", "trial_index": 39, "time_elapsed": 143622, "internal_node_id": "0.0-30.0-0.0"}}, {"uniqueid": "MTK0008:3TXWC2NHN0XMD7T1IW1HZCRHWLX9SK", "current_trial": 40, "dateTime": 1508953205706, "trialdata": {"rt": -1000, "stimulus": "/static/audio/400Hz.wav", "key_press": -1, "type": "PRE_RECALL_ALERT", "trial_type": "single-audio", "trial_index": 40, "time_elapsed": 144132, "internal_node_id": "0.0-31.0"}}, {"uniqueid": "MTK0008:3TXWC2NHN0XMD7T1IW1HZCRHWLX9SK", "current_trial": 41, "dateTime": 1508953265714, "trialdata": {"rt": [5689, 10534, 12606, 14658, 16054, 19744, 27213, 29628, 31235, 32313, 36289, 37775, 41030, 41809, 42079, 42341, 42575, 42813, 43070, 43520, 44721, 47449, 52220, 54936, 56615], "recwords": ["mammal", "king", "orange", "phone", "mouse", "fish", "chickem", "ice", "blue", "red", "yellow", "fish", "chocken", "", "", "", "", "", "", "", "", "ice", "ghost", "pumpkin", "mouse"], "type": "FREE_RECALL", "conditions": [18, 1200, "v", 18000], "trial": 0, "trial_type": "free-recall", "trial_index": 41, "time_elapsed": 204139, "internal_node_id": "0.0-32.0-0.0"}}, {"uniqueid": "MTK0008:3TXWC2NHN0XMD7T1IW1HZCRHWLX9SK", "current_trial": 42, "dateTime": 1508953269163, "trialdata": {"rt": 1447, "key_press": 32, "type": "INSTRUCTIONS", "trial_type": "text", "trial_index": 42, "time_elapsed": 207589, "internal_node_id": "0.0-33.0"}}, {"uniqueid": "MTK0008:3TXWC2NHN0XMD7T1IW1HZCRHWLX9SK", "current_trial": 43, "dateTime": 1508953289169, "trialdata": {"rt": [], "responses": [], "num1": [8], "num2": [8], "num3": [9], "type": "DISTRACTOR", "conditions": [18, 1200, "a", 18000], "trial": 1, "trial_type": "math-distractor", "trial_index": 43, "time_elapsed": 227595, "internal_node_id": "0.0-34.0"}}, {"uniqueid": "MTK0008:3TXWC2NHN0XMD7T1IW1HZCRHWLX9SK", "current_trial": 44, "dateTime": 1508953292172, "trialdata": {"rt": -1, "stimulus": "<p id=\"stim\">10</p>", "key_press": -1, "trial_type": "single-stim", "trial_index": 44, "time_elapsed": 230598, "internal_node_id": "0.0-35.0-0.0"}}, {"uniqueid": "MTK0008:3TXWC2NHN0XMD7T1IW1HZCRHWLX9SK", "current_trial": 45, "dateTime": 1508953293176, "trialdata": {"rt": -1, "stimulus": "<p id=\"stim\">9</p>", "key_press": -1, "trial_type": "single-stim", "trial_index": 45, "time_elapsed": 231602, "internal_node_id": "0.0-35.0-1.0"}}, {"uniqueid": "MTK0008:3TXWC2NHN0XMD7T1IW1HZCRHWLX9SK", "current_trial": 46, "dateTime": 1508953294177, "trialdata": {"rt": -1, "stimulus": "<p id=\"stim\">8</p>", "key_press": -1, "trial_type": "single-stim", "trial_index": 46, "time_elapsed": 232603, "internal_node_id": "0.0-35.0-2.0"}}, {"uniqueid": "MTK0008:3TXWC2NHN0XMD7T1IW1HZCRHWLX9SK", "current_trial": 47, "dateTime": 1508953295178, "trialdata": {"rt": -1, "stimulus": "<p id=\"stim\">7</p>", "key_press": -1, "trial_type": "single-stim", "trial_index": 47, "time_elapsed": 233604, "internal_node_id": "0.0-35.0-3.0"}}, {"uniqueid": "MTK0008:3TXWC2NHN0XMD7T1IW1HZCRHWLX9SK", "current_trial": 48, "dateTime": 1508953296179, "trialdata": {"rt": -1, "stimulus": "<p id=\"stim\">6</p>", "key_press": -1, "trial_type": "single-stim", "trial_index": 48, "time_elapsed": 234605, "internal_node_id": "0.0-35.0-4.0"}}, {"uniqueid": "MTK0008:3TXWC2NHN0XMD7T1IW1HZCRHWLX9SK", "current_trial": 49, "dateTime": 1508953297288, "trialdata": {"rt": -1, "stimulus": "<p id=\"stim\">5</p>", "key_press": -1, "trial_type": "single-stim", "trial_index": 49, "time_elapsed": 235713, "internal_node_id": "0.0-35.0-5.0"}}, {"uniqueid": "MTK0008:3TXWC2NHN0XMD7T1IW1HZCRHWLX9SK", "current_trial": 50, "dateTime": 1508953298291, "trialdata": {"rt": -1, "stimulus": "<p id=\"stim\">4</p>", "key_press": -1, "trial_type": "single-stim", "trial_index": 50, "time_elapsed": 236717, "internal_node_id": "0.0-35.0-6.0"}}, {"uniqueid": "MTK0008:3TXWC2NHN0XMD7T1IW1HZCRHWLX9SK", "current_trial": 51, "dateTime": 1508953299292, "trialdata": {"rt": -1, "stimulus": "<p id=\"stim\">3</p>", "key_press": -1, "trial_type": "single-stim", "trial_index": 51, "time_elapsed": 237718, "internal_node_id": "0.0-35.0-7.0"}}, {"uniqueid": "MTK0008:3TXWC2NHN0XMD7T1IW1HZCRHWLX9SK", "current_trial": 52, "dateTime": 1508953300294, "trialdata": {"rt": -1, "stimulus": "<p id=\"stim\">2</p>", "key_press": -1, "trial_type": "single-stim", "trial_index": 52, "time_elapsed": 238720, "internal_node_id": "0.0-35.0-8.0"}}, {"uniqueid": "MTK0008:3TXWC2NHN0XMD7T1IW1HZCRHWLX9SK", "current_trial": 53, "dateTime": 1508953301296, "trialdata": {"rt": -1, "stimulus": "<p id=\"stim\">1</p>", "key_press": -1, "trial_type": "single-stim", "trial_index": 53, "time_elapsed": 239722, "internal_node_id": "0.0-35.0-9.0"}}, {"uniqueid": "MTK0008:3TXWC2NHN0XMD7T1IW1HZCRHWLX9SK", "current_trial": 54, "dateTime": 1508953302798, "trialdata": {"rt": -1, "stimulus": "<p id=\"stim\">+</p>", "key_press": -1, "type": "FIXATION", "trial_type": "single-stim", "trial_index": 54, "time_elapsed": 241224, "internal_node_id": "0.0-36.0-0.0"}}, {"uniqueid": "MTK0008:3TXWC2NHN0XMD7T1IW1HZCRHWLX9SK", "current_trial": 55, "dateTime": 1508953305122, "trialdata": {"rt": -1000, "stimulus": "/static/audio/wordpool/FARMER.wav", "key_press": -1, "type": "PRES_AUD", "word": "farmer", "wordID": 552, "conditions": [18, 1200, "a", 18000], "trial": 1, "serialpos": 0, "trial_type": "single-audio", "trial_index": 55, "time_elapsed": 243548, "internal_node_id": "0.0-37.0"}}, {"uniqueid": "MTK0008:3TXWC2NHN0XMD7T1IW1HZCRHWLX9SK", "current_trial": 56, "dateTime": 1508953307460, "trialdata": {"rt": -1000, "stimulus": "/static/audio/wordpool/CANAL.wav", "key_press": -1, "type": "PRES_AUD", "word": "canal", "wordID": 225, "conditions": [18, 1200, "a", 18000], "trial": 1, "serialpos": 1, "trial_type": "single-audio", "trial_index": 56, "time_elapsed": 245886, "internal_node_id": "0.0-38.0"}}, {"uniqueid": "MTK0008:3TXWC2NHN0XMD7T1IW1HZCRHWLX9SK", "current_trial": 57, "dateTime": 1508953309624, "trialdata": {"rt": -1000, "stimulus": "/static/audio/wordpool/STREAM.wav", "key_press": -1, "type": "PRES_AUD", "word": "stream", "wordID": 1391, "conditions": [18, 1200, "a", 18000], "trial": 1, "serialpos": 2, "trial_type": "single-audio", "trial_index": 57, "time_elapsed": 248050, "internal_node_id": "0.0-39.0"}}, {"uniqueid": "MTK0008:3TXWC2NHN0XMD7T1IW1HZCRHWLX9SK", "current_trial": 58, "dateTime": 1508953311680, "trialdata": {"rt": -1000, "stimulus": "/static/audio/wordpool/CHAMPAGNE.wav", "key_press": -1, "type": "PRES_AUD", "word": "champagne", "wordID": 277, "conditions": [18, 1200, "a", 18000], "trial": 1, "serialpos": 3, "trial_type": "single-audio", "trial_index": 58, "time_elapsed": 250105, "internal_node_id": "0.0-40.0"}}, {"uniqueid": "MTK0008:3TXWC2NHN0XMD7T1IW1HZCRHWLX9SK", "current_trial": 59, "dateTime": 1508953314081, "trialdata": {"rt": -1000, "stimulus": "/static/audio/wordpool/DENIM.wav", "key_press": -1, "type": "PRES_AUD", "word": "denim", "wordID": 445, "conditions": [18, 1200, "a", 18000], "trial": 1, "serialpos": 4, "trial_type": "single-audio", "trial_index": 59, "time_elapsed": 252506, "internal_node_id": "0.0-41.0"}}, {"uniqueid": "MTK0008:3TXWC2NHN0XMD7T1IW1HZCRHWLX9SK", "current_trial": 60, "dateTime": 1508953316219, "trialdata": {"rt": -1000, "stimulus": "/static/audio/wordpool/RAFT.wav", "key_press": -1, "type": "PRES_AUD", "word": "raft", "wordID": 1158, "conditions": [18, 1200, "a", 18000], "trial": 1, "serialpos": 5, "trial_type": "single-audio", "trial_index": 60, "time_elapsed": 254645, "internal_node_id": "0.0-42.0"}}, {"uniqueid": "MTK0008:3TXWC2NHN0XMD7T1IW1HZCRHWLX9SK", "current_trial": 61, "dateTime": 1508953318485, "trialdata": {"rt": -1000, "stimulus": "/static/audio/wordpool/BATHTUB.wav", "key_press": -1, "type": "PRES_AUD", "word": "bathtub", "wordID": 99, "conditions": [18, 1200, "a", 18000], "trial": 1, "serialpos": 6, "trial_type": "single-audio", "trial_index": 61, "time_elapsed": 256911, "internal_node_id": "0.0-43.0"}}, {"uniqueid": "MTK0008:3TXWC2NHN0XMD7T1IW1HZCRHWLX9SK", "current_trial": 62, "dateTime": 1508953320820, "trialdata": {"rt": -1000, "stimulus": "/static/audio/wordpool/LEOPARD.wav", "key_press": -1, "type": "PRES_AUD", "word": "leopard", "wordID": 811, "conditions": [18, 1200, "a", 18000], "trial": 1, "serialpos": 7, "trial_type": "single-audio", "trial_index": 62, "time_elapsed": 259246, "internal_node_id": "0.0-44.0"}}, {"uniqueid": "MTK0008:3TXWC2NHN0XMD7T1IW1HZCRHWLX9SK", "current_trial": 63, "dateTime": 1508953322853, "trialdata": {"rt": -1000, "stimulus": "/static/audio/wordpool/ORANGE.wav", "key_press": -1, "type": "PRES_AUD", "word": "orange", "wordID": 979, "conditions": [18, 1200, "a", 18000], "trial": 1, "serialpos": 8, "trial_type": "single-audio", "trial_index": 63, "time_elapsed": 261279, "internal_node_id": "0.0-45.0"}}, {"uniqueid": "MTK0008:3TXWC2NHN0XMD7T1IW1HZCRHWLX9SK", "current_trial": 64, "dateTime": 1508953324870, "trialdata": {"rt": -1000, "stimulus": "/static/audio/wordpool/PACKAGE.wav", "key_press": -1, "type": "PRES_AUD", "word": "package", "wordID": 996, "conditions": [18, 1200, "a", 18000], "trial": 1, "serialpos": 9, "trial_type": "single-audio", "trial_index": 64, "time_elapsed": 263296, "internal_node_id": "0.0-46.0"}}, {"uniqueid": "MTK0008:3TXWC2NHN0XMD7T1IW1HZCRHWLX9SK", "current_trial": 65, "dateTime": 1508953326954, "trialdata": {"rt": -1000, "stimulus": "/static/audio/wordpool/BEAKER.wav", "key_press": -1, "type": "PRES_AUD", "word": "beaker", "wordID": 103, "conditions": [18, 1200, "a", 18000], "trial": 1, "serialpos": 10, "trial_type": "single-audio", "trial_index": 65, "time_elapsed": 265380, "internal_node_id": "0.0-47.0"}}, {"uniqueid": "MTK0008:3TXWC2NHN0XMD7T1IW1HZCRHWLX9SK", "current_trial": 66, "dateTime": 1508953329310, "trialdata": {"rt": -1000, "stimulus": "/static/audio/wordpool/GRAPE.wav", "key_press": -1, "type": "PRES_AUD", "word": "grape", "wordID": 653, "conditions": [18, 1200, "a", 18000], "trial": 1, "serialpos": 11, "trial_type": "single-audio", "trial_index": 66, "time_elapsed": 267735, "internal_node_id": "0.0-48.0"}}, {"uniqueid": "MTK0008:3TXWC2NHN0XMD7T1IW1HZCRHWLX9SK", "current_trial": 67, "dateTime": 1508953331406, "trialdata": {"rt": -1000, "stimulus": "/static/audio/wordpool/SPONGE.wav", "key_press": -1, "type": "PRES_AUD", "word": "sponge", "wordID": 1354, "conditions": [18, 1200, "a", 18000], "trial": 1, "serialpos": 12, "trial_type": "single-audio", "trial_index": 67, "time_elapsed": 269831, "internal_node_id": "0.0-49.0"}}, {"uniqueid": "MTK0008:3TXWC2NHN0XMD7T1IW1HZCRHWLX9SK", "current_trial": 68, "dateTime": 1508953333687, "trialdata": {"rt": -1000, "stimulus": "/static/audio/wordpool/PUDDING.wav", "key_press": -1, "type": "PRES_AUD", "word": "pudding", "wordID": 1138, "conditions": [18, 1200, "a", 18000], "trial": 1, "serialpos": 13, "trial_type": "single-audio", "trial_index": 68, "time_elapsed": 272110, "internal_node_id": "0.0-50.0"}}, {"uniqueid": "MTK0008:3TXWC2NHN0XMD7T1IW1HZCRHWLX9SK", "current_trial": 69, "dateTime": 1508953335695, "trialdata": {"rt": -1000, "stimulus": "/static/audio/wordpool/WITNESS.wav", "key_press": -1, "type": "PRES_AUD", "word": "witness", "wordID": 1617, "conditions": [18, 1200, "a", 18000], "trial": 1, "serialpos": 14, "trial_type": "single-audio", "trial_index": 69, "time_elapsed": 274121, "internal_node_id": "0.0-51.0"}}, {"uniqueid": "MTK0008:3TXWC2NHN0XMD7T1IW1HZCRHWLX9SK", "current_trial": 70, "dateTime": 1508953337728, "trialdata": {"rt": -1000, "stimulus": "/static/audio/wordpool/ITEM.wav", "key_press": -1, "type": "PRES_AUD", "word": "item", "wordID": 745, "conditions": [18, 1200, "a", 18000], "trial": 1, "serialpos": 15, "trial_type": "single-audio", "trial_index": 70, "time_elapsed": 276154, "internal_node_id": "0.0-52.0"}}, {"uniqueid": "MTK0008:3TXWC2NHN0XMD7T1IW1HZCRHWLX9SK", "current_trial": 71, "dateTime": 1508953340099, "trialdata": {"rt": -1000, "stimulus": "/static/audio/wordpool/PEACH.wav", "key_press": -1, "type": "PRES_AUD", "word": "peach", "wordID": 1030, "conditions": [18, 1200, "a", 18000], "trial": 1, "serialpos": 16, "trial_type": "single-audio", "trial_index": 71, "time_elapsed": 278525, "internal_node_id": "0.0-53.0"}}, {"uniqueid": "MTK0008:3TXWC2NHN0XMD7T1IW1HZCRHWLX9SK", "current_trial": 72, "dateTime": 1508953342481, "trialdata": {"rt": -1000, "stimulus": "/static/audio/wordpool/MARROW.wav", "key_press": -1, "type": "PRES_AUD", "word": "marrow", "wordID": 871, "conditions": [18, 1200, "a", 18000], "trial": 1, "serialpos": 17, "trial_type": "single-audio", "trial_index": 72, "time_elapsed": 280906, "internal_node_id": "0.0-54.0"}}, {"uniqueid": "MTK0008:3TXWC2NHN0XMD7T1IW1HZCRHWLX9SK", "current_trial": 73, "dateTime": 1508953343759, "trialdata": {"rt": -1, "stimulus": "", "key_press": -1, "type": "PRE_RECALL_DELAY", "trial_type": "single-stim", "trial_index": 73, "time_elapsed": 282185, "internal_node_id": "0.0-55.0-0.0"}}, {"uniqueid": "MTK0008:3TXWC2NHN0XMD7T1IW1HZCRHWLX9SK", "current_trial": 74, "dateTime": 1508953344260, "trialdata": {"rt": -1000, "stimulus": "/static/audio/400Hz.wav", "key_press": -1, "type": "PRE_RECALL_ALERT", "trial_type": "single-audio", "trial_index": 74, "time_elapsed": 282686, "internal_node_id": "0.0-56.0"}}, {"uniqueid": "MTK0008:3TXWC2NHN0XMD7T1IW1HZCRHWLX9SK", "current_trial": 75, "dateTime": 1508953404266, "trialdata": {"rt": [], "recwords": [], "type": "FREE_RECALL", "conditions": [18, 1200, "a", 18000], "trial": 1, "trial_type": "free-recall", "trial_index": 75, "time_elapsed": 342692, "internal_node_id": "0.0-57.0-0.0"}}, {"uniqueid": "MTK0008:3TXWC2NHN0XMD7T1IW1HZCRHWLX9SK", "current_trial": 76, "dateTime": 1508953983798, "trialdata": {"rt": 577530, "key_press": 40, "type": "INSTRUCTIONS", "trial_type": "text", "trial_index": 76, "time_elapsed": 922224, "internal_node_id": "0.0-58.0"}}, {"uniqueid": "MTK0008:3TXWC2NHN0XMD7T1IW1HZCRHWLX9SK", "current_trial": 77, "dateTime": 1508953996823, "trialdata": {"rt": [3768, 9634], "responses": ["14", "13"], "num1": [5, 2, 2], "num2": [6, 7, 3], "num3": [3, 4, 2], "type": "DISTRACTOR", "conditions": [24, 800, "a", 12000], "trial": 2, "trial_type": "math-distractor", "trial_index": 77, "time_elapsed": 935249, "internal_node_id": "0.0-59.0"}}, {"uniqueid": "MTK0008:3TXWC2NHN0XMD7T1IW1HZCRHWLX9SK", "current_trial": 78, "dateTime": 1508953999825, "trialdata": {"rt": -1, "stimulus": "<p id=\"stim\">10</p>", "key_press": -1, "trial_type": "single-stim", "trial_index": 78, "time_elapsed": 938250, "internal_node_id": "0.0-60.0-0.0"}}, {"uniqueid": "MTK0008:3TXWC2NHN0XMD7T1IW1HZCRHWLX9SK", "current_trial": 79, "dateTime": 1508954000827, "trialdata": {"rt": -1, "stimulus": "<p id=\"stim\">9</p>", "key_press": -1, "trial_type": "single-stim", "trial_index": 79, "time_elapsed": 939252, "internal_node_id": "0.0-60.0-1.0"}}, {"uniqueid": "MTK0008:3TXWC2NHN0XMD7T1IW1HZCRHWLX9SK", "current_trial": 80, "dateTime": 1508954001829, "trialdata": {"rt": -1, "stimulus": "<p id=\"stim\">8</p>", "key_press": -1, "trial_type": "single-stim", "trial_index": 80, "time_elapsed": 940255, "internal_node_id": "0.0-60.0-2.0"}}, {"uniqueid": "MTK0008:3TXWC2NHN0XMD7T1IW1HZCRHWLX9SK", "current_trial": 81, "dateTime": 1508954002830, "trialdata": {"rt": -1, "stimulus": "<p id=\"stim\">7</p>", "key_press": -1, "trial_type": "single-stim", "trial_index": 81, "time_elapsed": 941256, "internal_node_id": "0.0-60.0-3.0"}}, {"uniqueid": "MTK0008:3TXWC2NHN0XMD7T1IW1HZCRHWLX9SK", "current_trial": 82, "dateTime": 1508954003832, "trialdata": {"rt": -1, "stimulus": "<p id=\"stim\">6</p>", "key_press": -1, "trial_type": "single-stim", "trial_index": 82, "time_elapsed": 942258, "internal_node_id": "0.0-60.0-4.0"}}, {"uniqueid": "MTK0008:3TXWC2NHN0XMD7T1IW1HZCRHWLX9SK", "current_trial": 83, "dateTime": 1508954004835, "trialdata": {"rt": -1, "stimulus": "<p id=\"stim\">5</p>", "key_press": -1, "trial_type": "single-stim", "trial_index": 83, "time_elapsed": 943261, "internal_node_id": "0.0-60.0-5.0"}}, {"uniqueid": "MTK0008:3TXWC2NHN0XMD7T1IW1HZCRHWLX9SK", "current_trial": 84, "dateTime": 1508954005838, "trialdata": {"rt": -1, "stimulus": "<p id=\"stim\">4</p>", "key_press": -1, "trial_type": "single-stim", "trial_index": 84, "time_elapsed": 944264, "internal_node_id": "0.0-60.0-6.0"}}, {"uniqueid": "MTK0008:3TXWC2NHN0XMD7T1IW1HZCRHWLX9SK", "current_trial": 85, "dateTime": 1508954006844, "trialdata": {"rt": -1, "stimulus": "<p id=\"stim\">3</p>", "key_press": -1, "trial_type": "single-stim", "trial_index": 85, "time_elapsed": 945270, "internal_node_id": "0.0-60.0-7.0"}}, {"uniqueid": "MTK0008:3TXWC2NHN0XMD7T1IW1HZCRHWLX9SK", "current_trial": 86, "dateTime": 1508954007846, "trialdata": {"rt": -1, "stimulus": "<p id=\"stim\">2</p>", "key_press": -1, "trial_type": "single-stim", "trial_index": 86, "time_elapsed": 946271, "internal_node_id": "0.0-60.0-8.0"}}, {"uniqueid": "MTK0008:3TXWC2NHN0XMD7T1IW1HZCRHWLX9SK", "current_trial": 87, "dateTime": 1508954008848, "trialdata": {"rt": -1, "stimulus": "<p id=\"stim\">1</p>", "key_press": -1, "trial_type": "single-stim", "trial_index": 87, "time_elapsed": 947274, "internal_node_id": "0.0-60.0-9.0"}}, {"uniqueid": "MTK0008:3TXWC2NHN0XMD7T1IW1HZCRHWLX9SK", "current_trial": 88, "dateTime": 1508954010352, "trialdata": {"rt": -1, "stimulus": "<p id=\"stim\">+</p>", "key_press": -1, "type": "FIXATION", "trial_type": "single-stim", "trial_index": 88, "time_elapsed": 948778, "internal_node_id": "0.0-61.0-0.0"}}, {"uniqueid": "MTK0008:3TXWC2NHN0XMD7T1IW1HZCRHWLX9SK", "current_trial": 89, "dateTime": 1508954012141, "trialdata": {"rt": -1000, "stimulus": "/static/audio/wordpool/FRIEND.wav", "key_press": -1, "type": "PRES_AUD", "word": "friend", "wordID": 605, "conditions": [24, 800, "a", 12000], "trial": 2, "serialpos": 0, "trial_type": "single-audio", "trial_index": 89, "time_elapsed": 950567, "internal_node_id": "0.0-62.0"}}, {"uniqueid": "MTK0008:3TXWC2NHN0XMD7T1IW1HZCRHWLX9SK", "current_trial": 90, "dateTime": 1508954014121, "trialdata": {"rt": -1000, "stimulus": "/static/audio/wordpool/MACHINE.wav", "key_press": -1, "type": "PRES_AUD", "word": "machine", "wordID": 851, "conditions": [24, 800, "a", 12000], "trial": 2, "serialpos": 1, "trial_type": "single-audio", "trial_index": 90, "time_elapsed": 952547, "internal_node_id": "0.0-63.0"}}, {"uniqueid": "MTK0008:3TXWC2NHN0XMD7T1IW1HZCRHWLX9SK", "current_trial": 91, "dateTime": 1508954015929, "trialdata": {"rt": -1000, "stimulus": "/static/audio/wordpool/PICTURE.wav", "key_press": -1, "type": "PRES_AUD", "word": "picture", "wordID": 1060, "conditions": [24, 800, "a", 12000], "trial": 2, "serialpos": 2, "trial_type": "single-audio", "trial_index": 91, "time_elapsed": 954355, "internal_node_id": "0.0-64.0"}}, {"uniqueid": "MTK0008:3TXWC2NHN0XMD7T1IW1HZCRHWLX9SK", "current_trial": 92, "dateTime": 1508954017549, "trialdata": {"rt": -1000, "stimulus": "/static/audio/wordpool/PORK.wav", "key_press": -1, "type": "PRES_AUD", "word": "pork", "wordID": 1107, "conditions": [24, 800, "a", 12000], "trial": 2, "serialpos": 3, "trial_type": "single-audio", "trial_index": 92, "time_elapsed": 955975, "internal_node_id": "0.0-65.0"}}, {"uniqueid": "MTK0008:3TXWC2NHN0XMD7T1IW1HZCRHWLX9SK", "current_trial": 93, "dateTime": 1508954019387, "trialdata": {"rt": -1000, "stimulus": "/static/audio/wordpool/HANDBAG.wav", "key_press": -1, "type": "PRES_AUD", "word": "handbag", "wordID": 683, "conditions": [24, 800, "a", 12000], "trial": 2, "serialpos": 4, "trial_type": "single-audio", "trial_index": 93, "time_elapsed": 957812, "internal_node_id": "0.0-66.0"}}, {"uniqueid": "MTK0008:3TXWC2NHN0XMD7T1IW1HZCRHWLX9SK", "current_trial": 94, "dateTime": 1508954021269, "trialdata": {"rt": -1000, "stimulus": "/static/audio/wordpool/BEAVER.wav", "key_press": -1, "type": "PRES_AUD", "word": "beaver", "wordID": 108, "conditions": [24, 800, "a", 12000], "trial": 2, "serialpos": 5, "trial_type": "single-audio", "trial_index": 94, "time_elapsed": 959693, "internal_node_id": "0.0-67.0"}}, {"uniqueid": "MTK0008:3TXWC2NHN0XMD7T1IW1HZCRHWLX9SK", "current_trial": 95, "dateTime": 1508954023247, "trialdata": {"rt": -1000, "stimulus": "/static/audio/wordpool/SHORTCAKE.wav", "key_press": -1, "type": "PRES_AUD", "word": "shortcake", "wordID": 1291, "conditions": [24, 800, "a", 12000], "trial": 2, "serialpos": 6, "trial_type": "single-audio", "trial_index": 95, "time_elapsed": 961672, "internal_node_id": "0.0-68.0"}}, {"uniqueid": "MTK0008:3TXWC2NHN0XMD7T1IW1HZCRHWLX9SK", "current_trial": 96, "dateTime": 1508954024991, "trialdata": {"rt": -1000, "stimulus": "/static/audio/wordpool/PASTA.wav", "key_press": -1, "type": "PRES_AUD", "word": "pasta", "wordID": 1020, "conditions": [24, 800, "a", 12000], "trial": 2, "serialpos": 7, "trial_type": "single-audio", "trial_index": 96, "time_elapsed": 963417, "internal_node_id": "0.0-69.0"}}, {"uniqueid": "MTK0008:3TXWC2NHN0XMD7T1IW1HZCRHWLX9SK", "current_trial": 97, "dateTime": 1508954026899, "trialdata": {"rt": -1000, "stimulus": "/static/audio/wordpool/TURKEY.wav", "key_press": -1, "type": "PRES_AUD", "word": "turkey", "wordID": 1519, "conditions": [24, 800, "a", 12000], "trial": 2, "serialpos": 8, "trial_type": "single-audio", "trial_index": 97, "time_elapsed": 965325, "internal_node_id": "0.0-70.0"}}, {"uniqueid": "MTK0008:3TXWC2NHN0XMD7T1IW1HZCRHWLX9SK", "current_trial": 98, "dateTime": 1508954028879, "trialdata": {"rt": -1000, "stimulus": "/static/audio/wordpool/BIKE.wav", "key_press": -1, "type": "PRES_AUD", "word": "bike", "wordID": 124, "conditions": [24, 800, "a", 12000], "trial": 2, "serialpos": 9, "trial_type": "single-audio", "trial_index": 98, "time_elapsed": 967305, "internal_node_id": "0.0-71.0"}}, {"uniqueid": "MTK0008:3TXWC2NHN0XMD7T1IW1HZCRHWLX9SK", "current_trial": 99, "dateTime": 1508954030620, "trialdata": {"rt": -1000, "stimulus": "/static/audio/wordpool/LAKE.wav", "key_press": -1, "type": "PRES_AUD", "word": "lake", "wordID": 795, "conditions": [24, 800, "a", 12000], "trial": 2, "serialpos": 10, "trial_type": "single-audio", "trial_index": 99, "time_elapsed": 969046, "internal_node_id": "0.0-72.0"}}, {"uniqueid": "MTK0008:3TXWC2NHN0XMD7T1IW1HZCRHWLX9SK", "current_trial": 100, "dateTime": 1508954032288, "trialdata": {"rt": -1000, "stimulus": "/static/audio/wordpool/LUGGAGE.wav", "key_press": -1, "type": "PRES_AUD", "word": "luggage", "wordID": 846, "conditions": [24, 800, "a", 12000], "trial": 2, "serialpos": 11, "trial_type": "single-audio", "trial_index": 100, "time_elapsed": 970713, "internal_node_id": "0.0-73.0"}}, {"uniqueid": "MTK0008:3TXWC2NHN0XMD7T1IW1HZCRHWLX9SK", "current_trial": 101, "dateTime": 1508954034179, "trialdata": {"rt": -1000, "stimulus": "/static/audio/wordpool/SPIDER.wav", "key_press": -1, "type": "PRES_AUD", "word": "spider", "wordID": 1350, "conditions": [24, 800, "a", 12000], "trial": 2, "serialpos": 12, "trial_type": "single-audio", "trial_index": 101, "time_elapsed": 972605, "internal_node_id": "0.0-74.0"}}, {"uniqueid": "MTK0008:3TXWC2NHN0XMD7T1IW1HZCRHWLX9SK", "current_trial": 102, "dateTime": 1508954036137, "trialdata": {"rt": -1000, "stimulus": "/static/audio/wordpool/BREAST.wav", "key_press": -1, "type": "PRES_AUD", "word": "breast", "wordID": 170, "conditions": [24, 800, "a", 12000], "trial": 2, "serialpos": 13, "trial_type": "single-audio", "trial_index": 102, "time_elapsed": 974563, "internal_node_id": "0.0-75.0"}}, {"uniqueid": "MTK0008:3TXWC2NHN0XMD7T1IW1HZCRHWLX9SK", "current_trial": 103, "dateTime": 1508954038043, "trialdata": {"rt": -1000, "stimulus": "/static/audio/wordpool/WARDROBE.wav", "key_press": -1, "type": "PRES_AUD", "word": "wardrobe", "wordID": 1586, "conditions": [24, 800, "a", 12000], "trial": 2, "serialpos": 14, "trial_type": "single-audio", "trial_index": 103, "time_elapsed": 976468, "internal_node_id": "0.0-76.0"}}, {"uniqueid": "MTK0008:3TXWC2NHN0XMD7T1IW1HZCRHWLX9SK", "current_trial": 104, "dateTime": 1508954039984, "trialdata": {"rt": -1000, "stimulus": "/static/audio/wordpool/LIVER.wav", "key_press": -1, "type": "PRES_AUD", "word": "liver", "wordID": 832, "conditions": [24, 800, "a", 12000], "trial": 2, "serialpos": 15, "trial_type": "single-audio", "trial_index": 104, "time_elapsed": 978410, "internal_node_id": "0.0-77.0"}}, {"uniqueid": "MTK0008:3TXWC2NHN0XMD7T1IW1HZCRHWLX9SK", "current_trial": 105, "dateTime": 1508954041808, "trialdata": {"rt": -1000, "stimulus": "/static/audio/wordpool/RATTLE.wav", "key_press": -1, "type": "PRES_AUD", "word": "rattle", "wordID": 1169, "conditions": [24, 800, "a", 12000], "trial": 2, "serialpos": 16, "trial_type": "single-audio", "trial_index": 105, "time_elapsed": 980234, "internal_node_id": "0.0-78.0"}}, {"uniqueid": "MTK0008:3TXWC2NHN0XMD7T1IW1HZCRHWLX9SK", "current_trial": 106, "dateTime": 1508954043464, "trialdata": {"rt": -1000, "stimulus": "/static/audio/wordpool/MISSILE.wav", "key_press": -1, "type": "PRES_AUD", "word": "missile", "wordID": 899, "conditions": [24, 800, "a", 12000], "trial": 2, "serialpos": 17, "trial_type": "single-audio", "trial_index": 106, "time_elapsed": 981890, "internal_node_id": "0.0-79.0"}}, {"uniqueid": "MTK0008:3TXWC2NHN0XMD7T1IW1HZCRHWLX9SK", "current_trial": 107, "dateTime": 1508954045300, "trialdata": {"rt": -1000, "stimulus": "/static/audio/wordpool/PATROL.wav", "key_press": -1, "type": "PRES_AUD", "word": "patrol", "wordID": 1026, "conditions": [24, 800, "a", 12000], "trial": 2, "serialpos": 18, "trial_type": "single-audio", "trial_index": 107, "time_elapsed": 983725, "internal_node_id": "0.0-80.0"}}, {"uniqueid": "MTK0008:3TXWC2NHN0XMD7T1IW1HZCRHWLX9SK", "current_trial": 108, "dateTime": 1508954047238, "trialdata": {"rt": -1000, "stimulus": "/static/audio/wordpool/WASP.wav", "key_press": -1, "type": "PRES_AUD", "word": "wasp", "wordID": 1592, "conditions": [24, 800, "a", 12000], "trial": 2, "serialpos": 19, "trial_type": "single-audio", "trial_index": 108, "time_elapsed": 985663, "internal_node_id": "0.0-81.0"}}, {"uniqueid": "MTK0008:3TXWC2NHN0XMD7T1IW1HZCRHWLX9SK", "current_trial": 109, "dateTime": 1508954048898, "trialdata": {"rt": -1000, "stimulus": "/static/audio/wordpool/WAITER.wav", "key_press": -1, "type": "PRES_AUD", "word": "waiter", "wordID": 1579, "conditions": [24, 800, "a", 12000], "trial": 2, "serialpos": 20, "trial_type": "single-audio", "trial_index": 109, "time_elapsed": 987324, "internal_node_id": "0.0-82.0"}}, {"uniqueid": "MTK0008:3TXWC2NHN0XMD7T1IW1HZCRHWLX9SK", "current_trial": 110, "dateTime": 1508954050523, "trialdata": {"rt": -1000, "stimulus": "/static/audio/wordpool/QUARTER.wav", "key_press": -1, "type": "PRES_AUD", "word": "quarter", "wordID": 1147, "conditions": [24, 800, "a", 12000], "trial": 2, "serialpos": 21, "trial_type": "single-audio", "trial_index": 110, "time_elapsed": 988948, "internal_node_id": "0.0-83.0"}}, {"uniqueid": "MTK0008:3TXWC2NHN0XMD7T1IW1HZCRHWLX9SK", "current_trial": 111, "dateTime": 1508954052463, "trialdata": {"rt": -1000, "stimulus": "/static/audio/wordpool/CHILD.wav", "key_press": -1, "type": "PRES_AUD", "word": "child", "wordID": 298, "conditions": [24, 800, "a", 12000], "trial": 2, "serialpos": 22, "trial_type": "single-audio", "trial_index": 111, "time_elapsed": 990889, "internal_node_id": "0.0-84.0"}}, {"uniqueid": "MTK0008:3TXWC2NHN0XMD7T1IW1HZCRHWLX9SK", "current_trial": 112, "dateTime": 1508954054120, "trialdata": {"rt": -1000, "stimulus": "/static/audio/wordpool/INFANT.wav", "key_press": -1, "type": "PRES_AUD", "word": "infant", "wordID": 736, "conditions": [24, 800, "a", 12000], "trial": 2, "serialpos": 23, "trial_type": "single-audio", "trial_index": 112, "time_elapsed": 992545, "internal_node_id": "0.0-85.0"}}, {"uniqueid": "MTK0008:3TXWC2NHN0XMD7T1IW1HZCRHWLX9SK", "current_trial": 113, "dateTime": 1508954055505, "trialdata": {"rt": -1, "stimulus": "", "key_press": -1, "type": "PRE_RECALL_DELAY", "trial_type": "single-stim", "trial_index": 113, "time_elapsed": 993930, "internal_node_id": "0.0-86.0-0.0"}}, {"uniqueid": "MTK0008:3TXWC2NHN0XMD7T1IW1HZCRHWLX9SK", "current_trial": 114, "dateTime": 1508954056006, "trialdata": {"rt": -1000, "stimulus": "/static/audio/400Hz.wav", "key_press": -1, "type": "PRE_RECALL_ALERT", "trial_type": "single-audio", "trial_index": 114, "time_elapsed": 994432, "internal_node_id": "0.0-87.0"}}, {"uniqueid": "MTK0008:3TXWC2NHN0XMD7T1IW1HZCRHWLX9SK", "current_trial": 115, "dateTime": 1508954116017, "trialdata": {"rt": [9404, 12193, 13992, 17112, 19527, 22767, 25782, 27148, 29772, 32397, 36661, 37995, 40377, 41953, 44367, 49218, 52019, 53622, 55490, 57224], "recwords": ["machine", "water", "infant", "radio", "cookie", "floor", "pasta", "mouse", "remote", "phone", "paper", "mouse", "stapler", "pen", "book", "lottery", "rent", "house", "money", "cars"], "type": "FREE_RECALL", "conditions": [24, 800, "a", 12000], "trial": 2, "trial_type": "free-recall", "trial_index": 115, "time_elapsed": 1054443, "internal_node_id": "0.0-88.0-0.0"}}, {"uniqueid": "MTK0008:3TXWC2NHN0XMD7T1IW1HZCRHWLX9SK", "current_trial": 116, "dateTime": 1508954119366, "trialdata": {"rt": 1348, "key_press": 32, "type": "INSTRUCTIONS", "trial_type": "text", "trial_index": 116, "time_elapsed": 1057792, "internal_node_id": "0.0-89.0"}}, {"uniqueid": "MTK0008:3TXWC2NHN0XMD7T1IW1HZCRHWLX9SK", "current_trial": 117, "dateTime": 1508954145407, "trialdata": {"rt": [], "responses": [], "num1": [5], "num2": [7], "num3": [8], "type": "DISTRACTOR", "conditions": [12, 800, "v", 24000], "trial": 3, "trial_type": "math-distractor", "trial_index": 117, "time_elapsed": 1083832, "internal_node_id": "0.0-90.0"}}, {"uniqueid": "MTK0008:3TXWC2NHN0XMD7T1IW1HZCRHWLX9SK", "current_trial": 118, "dateTime": 1508954148411, "trialdata": {"rt": -1, "stimulus": "<p id=\"stim\">10</p>", "key_press": -1, "trial_type": "single-stim", "trial_index": 118, "time_elapsed": 1086837, "internal_node_id": "0.0-91.0-0.0"}}, {"uniqueid": "MTK0008:3TXWC2NHN0XMD7T1IW1HZCRHWLX9SK", "current_trial": 119, "dateTime": 1508954149413, "trialdata": {"rt": -1, "stimulus": "<p id=\"stim\">9</p>", "key_press": -1, "trial_type": "single-stim", "trial_index": 119, "time_elapsed": 1087839, "internal_node_id": "0.0-91.0-1.0"}}, {"uniqueid": "MTK0008:3TXWC2NHN0XMD7T1IW1HZCRHWLX9SK", "current_trial": 120, "dateTime": 1508954150443, "trialdata": {"rt": -1, "stimulus": "<p id=\"stim\">8</p>", "key_press": -1, "trial_type": "single-stim", "trial_index": 120, "time_elapsed": 1088869, "internal_node_id": "0.0-91.0-2.0"}}, {"uniqueid": "MTK0008:3TXWC2NHN0XMD7T1IW1HZCRHWLX9SK", "current_trial": 121, "dateTime": 1508954151445, "trialdata": {"rt": -1, "stimulus": "<p id=\"stim\">7</p>", "key_press": -1, "trial_type": "single-stim", "trial_index": 121, "time_elapsed": 1089871, "internal_node_id": "0.0-91.0-3.0"}}, {"uniqueid": "MTK0008:3TXWC2NHN0XMD7T1IW1HZCRHWLX9SK", "current_trial": 122, "dateTime": 1508954152449, "trialdata": {"rt": -1, "stimulus": "<p id=\"stim\">6</p>", "key_press": -1, "trial_type": "single-stim", "trial_index": 122, "time_elapsed": 1090874, "internal_node_id": "0.0-91.0-4.0"}}, {"uniqueid": "MTK0008:3TXWC2NHN0XMD7T1IW1HZCRHWLX9SK", "current_trial": 123, "dateTime": 1508954153457, "trialdata": {"rt": -1, "stimulus": "<p id=\"stim\">5</p>", "key_press": -1, "trial_type": "single-stim", "trial_index": 123, "time_elapsed": 1091882, "internal_node_id": "0.0-91.0-5.0"}}, {"uniqueid": "MTK0008:3TXWC2NHN0XMD7T1IW1HZCRHWLX9SK", "current_trial": 124, "dateTime": 1508954154459, "trialdata": {"rt": -1, "stimulus": "<p id=\"stim\">4</p>", "key_press": -1, "trial_type": "single-stim", "trial_index": 124, "time_elapsed": 1092885, "internal_node_id": "0.0-91.0-6.0"}}, {"uniqueid": "MTK0008:3TXWC2NHN0XMD7T1IW1HZCRHWLX9SK", "current_trial": 125, "dateTime": 1508954155461, "trialdata": {"rt": -1, "stimulus": "<p id=\"stim\">3</p>", "key_press": -1, "trial_type": "single-stim", "trial_index": 125, "time_elapsed": 1093887, "internal_node_id": "0.0-91.0-7.0"}}, {"uniqueid": "MTK0008:3TXWC2NHN0XMD7T1IW1HZCRHWLX9SK", "current_trial": 126, "dateTime": 1508954156463, "trialdata": {"rt": -1, "stimulus": "<p id=\"stim\">2</p>", "key_press": -1, "trial_type": "single-stim", "trial_index": 126, "time_elapsed": 1094889, "internal_node_id": "0.0-91.0-8.0"}}, {"uniqueid": "MTK0008:3TXWC2NHN0XMD7T1IW1HZCRHWLX9SK", "current_trial": 127, "dateTime": 1508954157466, "trialdata": {"rt": -1, "stimulus": "<p id=\"stim\">1</p>", "key_press": -1, "trial_type": "single-stim", "trial_index": 127, "time_elapsed": 1095891, "internal_node_id": "0.0-91.0-9.0"}}, {"uniqueid": "MTK0008:3TXWC2NHN0XMD7T1IW1HZCRHWLX9SK", "current_trial": 128, "dateTime": 1508954158968, "trialdata": {"rt": -1, "stimulus": "<p id=\"stim\">+</p>", "key_press": -1, "type": "FIXATION", "trial_type": "single-stim", "trial_index": 128, "time_elapsed": 1097394, "internal_node_id": "0.0-92.0-0.0"}}, {"uniqueid": "MTK0008:3TXWC2NHN0XMD7T1IW1HZCRHWLX9SK", "current_trial": 129, "dateTime": 1508954159771, "trialdata": {"rt": -1, "stimulus": "<p id=\"stim\">REPORT</p>", "key_press": -1, "type": "PRES_VIS", "word": "report", "wordID": 1183, "conditions": [12, 800, "v", 24000], "trial": 3, "serialpos": 0, "trial_type": "single-stim", "trial_index": 129, "time_elapsed": 1098196, "internal_node_id": "0.0-93.0"}}, {"uniqueid": "MTK0008:3TXWC2NHN0XMD7T1IW1HZCRHWLX9SK", "current_trial": 130, "dateTime": 1508954161636, "trialdata": {"rt": -1, "stimulus": "<p id=\"stim\">KETCHUP</p>", "key_press": -1, "type": "PRES_VIS", "word": "ketchup", "wordID": 770, "conditions": [12, 800, "v", 24000], "trial": 3, "serialpos": 1, "trial_type": "single-stim", "trial_index": 130, "time_elapsed": 1100061, "internal_node_id": "0.0-94.0"}}, {"uniqueid": "MTK0008:3TXWC2NHN0XMD7T1IW1HZCRHWLX9SK", "current_trial": 131, "dateTime": 1508954163636, "trialdata": {"rt": -1, "stimulus": "<p id=\"stim\">RECEIPT</p>", "key_press": -1, "type": "PRES_VIS", "word": "receipt", "wordID": 1172, "conditions": [12, 800, "v", 24000], "trial": 3, "serialpos": 2, "trial_type": "single-stim", "trial_index": 131, "time_elapsed": 1102062, "internal_node_id": "0.0-95.0"}}, {"uniqueid": "MTK0008:3TXWC2NHN0XMD7T1IW1HZCRHWLX9SK", "current_trial": 132, "dateTime": 1508954165357, "trialdata": {"rt": -1, "stimulus": "<p id=\"stim\">PERMIT</p>", "key_press": -1, "type": "PRES_VIS", "word": "permit", "wordID": 1050, "conditions": [12, 800, "v", 24000], "trial": 3, "serialpos": 3, "trial_type": "single-stim", "trial_index": 132, "time_elapsed": 1103783, "internal_node_id": "0.0-96.0"}}, {"uniqueid": "MTK0008:3TXWC2NHN0XMD7T1IW1HZCRHWLX9SK", "current_trial": 133, "dateTime": 1508954167176, "trialdata": {"rt": -1, "stimulus": "<p id=\"stim\">SURVEY</p>", "key_press": -1, "type": "PRES_VIS", "word": "survey", "wordID": 1413, "conditions": [12, 800, "v", 24000], "trial": 3, "serialpos": 4, "trial_type": "single-stim", "trial_index": 133, "time_elapsed": 1105602, "internal_node_id": "0.0-97.0"}}, {"uniqueid": "MTK0008:3TXWC2NHN0XMD7T1IW1HZCRHWLX9SK", "current_trial": 134, "dateTime": 1508954169025, "trialdata": {"rt": -1, "stimulus": "<p id=\"stim\">PUPPY</p>", "key_press": -1, "type": "PRES_VIS", "word": "puppy", "wordID": 1143, "conditions": [12, 800, "v", 24000], "trial": 3, "serialpos": 5, "trial_type": "single-stim", "trial_index": 134, "time_elapsed": 1107450, "internal_node_id": "0.0-98.0"}}, {"uniqueid": "MTK0008:3TXWC2NHN0XMD7T1IW1HZCRHWLX9SK", "current_trial": 135, "dateTime": 1508954170911, "trialdata": {"rt": -1, "stimulus": "<p id=\"stim\">MARSH</p>", "key_press": -1, "type": "PRES_VIS", "word": "marsh", "wordID": 873, "conditions": [12, 800, "v", 24000], "trial": 3, "serialpos": 6, "trial_type": "single-stim", "trial_index": 135, "time_elapsed": 1109337, "internal_node_id": "0.0-99.0"}}, {"uniqueid": "MTK0008:3TXWC2NHN0XMD7T1IW1HZCRHWLX9SK", "current_trial": 136, "dateTime": 1508954172882, "trialdata": {"rt": -1, "stimulus": "<p id=\"stim\">SISTER</p>", "key_press": -1, "type": "PRES_VIS", "word": "sister", "wordID": 1311, "conditions": [12, 800, "v", 24000], "trial": 3, "serialpos": 7, "trial_type": "single-stim", "trial_index": 136, "time_elapsed": 1111308, "internal_node_id": "0.0-100.0"}}, {"uniqueid": "MTK0008:3TXWC2NHN0XMD7T1IW1HZCRHWLX9SK", "current_trial": 137, "dateTime": 1508954174878, "trialdata": {"rt": -1, "stimulus": "<p id=\"stim\">UNCLE</p>", "key_press": -1, "type": "PRES_VIS", "word": "uncle", "wordID": 1535, "conditions": [12, 800, "v", 24000], "trial": 3, "serialpos": 8, "trial_type": "single-stim", "trial_index": 137, "time_elapsed": 1113304, "internal_node_id": "0.0-101.0"}}, {"uniqueid": "MTK0008:3TXWC2NHN0XMD7T1IW1HZCRHWLX9SK", "current_trial": 138, "dateTime": 1508954176751, "trialdata": {"rt": -1, "stimulus": "<p id=\"stim\">COWBOY</p>", "key_press": -1, "type": "PRES_VIS", "word": "cowboy", "wordID": 394, "conditions": [12, 800, "v", 24000], "trial": 3, "serialpos": 9, "trial_type": "single-stim", "trial_index": 138, "time_elapsed": 1115177, "internal_node_id": "0.0-102.0"}}, {"uniqueid": "MTK0008:3TXWC2NHN0XMD7T1IW1HZCRHWLX9SK", "current_trial": 139, "dateTime": 1508954178379, "trialdata": {"rt": -1, "stimulus": "<p id=\"stim\">BUBBLE</p>", "key_press": -1, "type": "PRES_VIS", "word": "bubble", "wordID": 182, "conditions": [12, 800, "v", 24000], "trial": 3, "serialpos": 10, "trial_type": "single-stim", "trial_index": 139, "time_elapsed": 1116805, "internal_node_id": "0.0-103.0"}}, {"uniqueid": "MTK0008:3TXWC2NHN0XMD7T1IW1HZCRHWLX9SK", "current_trial": 140, "dateTime": 1508954180246, "trialdata": {"rt": -1, "stimulus": "<p id=\"stim\">OFFICE</p>", "key_press": -1, "type": "PRES_VIS", "word": "office", "wordID": 971, "conditions": [12, 800, "v", 24000], "trial": 3, "serialpos": 11, "trial_type": "single-stim", "trial_index": 140, "time_elapsed": 1118672, "internal_node_id": "0.0-104.0"}}, {"uniqueid": "MTK0008:3TXWC2NHN0XMD7T1IW1HZCRHWLX9SK", "current_trial": 141, "dateTime": 1508954182352, "trialdata": {"rt": -1, "stimulus": "", "key_press": -1, "type": "PRE_RECALL_DELAY", "trial_type": "single-stim", "trial_index": 141, "time_elapsed": 1120778, "internal_node_id": "0.0-105.0-0.0"}}, {"uniqueid": "MTK0008:3TXWC2NHN0XMD7T1IW1HZCRHWLX9SK", "current_trial": 142, "dateTime": 1508954182854, "trialdata": {"rt": -1000, "stimulus": "/static/audio/400Hz.wav", "key_press": -1, "type": "PRE_RECALL_ALERT", "trial_type": "single-audio", "trial_index": 142, "time_elapsed": 1121280, "internal_node_id": "0.0-106.0"}}, {"uniqueid": "MTK0008:3TXWC2NHN0XMD7T1IW1HZCRHWLX9SK", "current_trial": 143, "dateTime": 1508954242857, "trialdata": {"rt": [3154, 5135, 9321, 14242, 16055, 17842, 20315, 22625, 24485, 26166, 28951, 32121, 33693, 34892, 37148, 39712, 42908, 46764, 56436], "recwords": ["office", "survey", "puppy", "puppy", "marsh", "sister", "overn", "child", "chicken", "water", "stapler", "book", "phone", "fly", "nails", "finger", "tools", "alien", "black"], "type": "FREE_RECALL", "conditions": [12, 800, "v", 24000], "trial": 3, "trial_type": "free-recall", "trial_index": 143, "time_elapsed": 1181283, "internal_node_id": "0.0-107.0-0.0"}}, {"uniqueid": "MTK0008:3TXWC2NHN0XMD7T1IW1HZCRHWLX9SK", "current_trial": 144, "dateTime": 1508954245867, "trialdata": {"rt": 1003, "key_press": 20, "type": "INSTRUCTIONS", "trial_type": "text", "trial_index": 144, "time_elapsed": 1184292, "internal_node_id": "0.0-108.0"}}, {"uniqueid": "MTK0008:3TXWC2NHN0XMD7T1IW1HZCRHWLX9SK", "current_trial": 145, "dateTime": 1508954271890, "trialdata": {"rt": [3361, 5596, 8689, 12000, 17881, 21104, 23431], "responses": ["177", "17", "14", "12", "21", "20", "12"], "num1": [1, 5, 7, 5, 7, 6, 9, 5], "num2": [7, 7, 2, 6, 6, 7, 2, 2], "num3": [9, 5, 5, 1, 8, 7, 1, 2], "type": "DISTRACTOR", "conditions": [24, 800, "a", 24000], "trial": 4, "trial_type": "math-distractor", "trial_index": 145, "time_elapsed": 1210315, "internal_node_id": "0.0-109.0"}}, {"uniqueid": "MTK0008:3TXWC2NHN0XMD7T1IW1HZCRHWLX9SK", "current_trial": 146, "dateTime": 1508954274893, "trialdata": {"rt": -1, "stimulus": "<p id=\"stim\">10</p>", "key_press": -1, "trial_type": "single-stim", "trial_index": 146, "time_elapsed": 1213318, "internal_node_id": "0.0-110.0-0.0"}}, {"uniqueid": "MTK0008:3TXWC2NHN0XMD7T1IW1HZCRHWLX9SK", "current_trial": 147, "dateTime": 1508954275895, "trialdata": {"rt": -1, "stimulus": "<p id=\"stim\">9</p>", "key_press": -1, "trial_type": "single-stim", "trial_index": 147, "time_elapsed": 1214321, "internal_node_id": "0.0-110.0-1.0"}}, {"uniqueid": "MTK0008:3TXWC2NHN0XMD7T1IW1HZCRHWLX9SK", "current_trial": 148, "dateTime": 1508954276899, "trialdata": {"rt": -1, "stimulus": "<p id=\"stim\">8</p>", "key_press": -1, "trial_type": "single-stim", "trial_index": 148, "time_elapsed": 1215325, "internal_node_id": "0.0-110.0-2.0"}}, {"uniqueid": "MTK0008:3TXWC2NHN0XMD7T1IW1HZCRHWLX9SK", "current_trial": 149, "dateTime": 1508954278096, "trialdata": {"rt": -1, "stimulus": "<p id=\"stim\">7</p>", "key_press": -1, "trial_type": "single-stim", "trial_index": 149, "time_elapsed": 1216522, "internal_node_id": "0.0-110.0-3.0"}}, {"uniqueid": "MTK0008:3TXWC2NHN0XMD7T1IW1HZCRHWLX9SK", "current_trial": 150, "dateTime": 1508954279240, "trialdata": {"rt": -1, "stimulus": "<p id=\"stim\">6</p>", "key_press": -1, "trial_type": "single-stim", "trial_index": 150, "time_elapsed": 1217666, "internal_node_id": "0.0-110.0-4.0"}}, {"uniqueid": "MTK0008:3TXWC2NHN0XMD7T1IW1HZCRHWLX9SK", "current_trial": 151, "dateTime": 1508954280243, "trialdata": {"rt": -1, "stimulus": "<p id=\"stim\">5</p>", "key_press": -1, "trial_type": "single-stim", "trial_index": 151, "time_elapsed": 1218669, "internal_node_id": "0.0-110.0-5.0"}}, {"uniqueid": "MTK0008:3TXWC2NHN0XMD7T1IW1HZCRHWLX9SK", "current_trial": 152, "dateTime": 1508954281246, "trialdata": {"rt": -1, "stimulus": "<p id=\"stim\">4</p>", "key_press": -1, "trial_type": "single-stim", "trial_index": 152, "time_elapsed": 1219671, "internal_node_id": "0.0-110.0-6.0"}}, {"uniqueid": "MTK0008:3TXWC2NHN0XMD7T1IW1HZCRHWLX9SK", "current_trial": 153, "dateTime": 1508954282248, "trialdata": {"rt": -1, "stimulus": "<p id=\"stim\">3</p>", "key_press": -1, "trial_type": "single-stim", "trial_index": 153, "time_elapsed": 1220674, "internal_node_id": "0.0-110.0-7.0"}}, {"uniqueid": "MTK0008:3TXWC2NHN0XMD7T1IW1HZCRHWLX9SK", "current_trial": 154, "dateTime": 1508954283253, "trialdata": {"rt": -1, "stimulus": "<p id=\"stim\">2</p>", "key_press": -1, "trial_type": "single-stim", "trial_index": 154, "time_elapsed": 1221678, "internal_node_id": "0.0-110.0-8.0"}}, {"uniqueid": "MTK0008:3TXWC2NHN0XMD7T1IW1HZCRHWLX9SK", "current_trial": 155, "dateTime": 1508954284259, "trialdata": {"rt": -1, "stimulus": "<p id=\"stim\">1</p>", "key_press": -1, "trial_type": "single-stim", "trial_index": 155, "time_elapsed": 1222684, "internal_node_id": "0.0-110.0-9.0"}}, {"uniqueid": "MTK0008:3TXWC2NHN0XMD7T1IW1HZCRHWLX9SK", "current_trial": 156, "dateTime": 1508954285761, "trialdata": {"rt": -1, "stimulus": "<p id=\"stim\">+</p>", "key_press": -1, "type": "FIXATION", "trial_type": "single-stim", "trial_index": 156, "time_elapsed": 1224187, "internal_node_id": "0.0-111.0-0.0"}}, {"uniqueid": "MTK0008:3TXWC2NHN0XMD7T1IW1HZCRHWLX9SK", "current_trial": 157, "dateTime": 1508954287519, "trialdata": {"rt": -1000, "stimulus": "/static/audio/wordpool/SCOTCH.wav", "key_press": -1, "type": "PRES_AUD", "word": "scotch", "wordID": 1250, "conditions": [24, 800, "a", 24000], "trial": 4, "serialpos": 0, "trial_type": "single-audio", "trial_index": 157, "time_elapsed": 1225945, "internal_node_id": "0.0-112.0"}}, {"uniqueid": "MTK0008:3TXWC2NHN0XMD7T1IW1HZCRHWLX9SK", "current_trial": 158, "dateTime": 1508954289449, "trialdata": {"rt": -1000, "stimulus": "/static/audio/wordpool/BRANDY.wav", "key_press": -1, "type": "PRES_AUD", "word": "brandy", "wordID": 168, "conditions": [24, 800, "a", 24000], "trial": 4, "serialpos": 1, "trial_type": "single-audio", "trial_index": 158, "time_elapsed": 1227875, "internal_node_id": "0.0-113.0"}}, {"uniqueid": "MTK0008:3TXWC2NHN0XMD7T1IW1HZCRHWLX9SK", "current_trial": 159, "dateTime": 1508954291346, "trialdata": {"rt": -1000, "stimulus": "/static/audio/wordpool/BISON.wav", "key_press": -1, "type": "PRES_AUD", "word": "bison", "wordID": 130, "conditions": [24, 800, "a", 24000], "trial": 4, "serialpos": 2, "trial_type": "single-audio", "trial_index": 159, "time_elapsed": 1229771, "internal_node_id": "0.0-114.0"}}, {"uniqueid": "MTK0008:3TXWC2NHN0XMD7T1IW1HZCRHWLX9SK", "current_trial": 160, "dateTime": 1508954293321, "trialdata": {"rt": -1000, "stimulus": "/static/audio/wordpool/GARDEN.wav", "key_press": -1, "type": "PRES_AUD", "word": "garden", "wordID": 622, "conditions": [24, 800, "a", 24000], "trial": 4, "serialpos": 3, "trial_type": "single-audio", "trial_index": 160, "time_elapsed": 1231747, "internal_node_id": "0.0-115.0"}}, {"uniqueid": "MTK0008:3TXWC2NHN0XMD7T1IW1HZCRHWLX9SK", "current_trial": 161, "dateTime": 1508954295110, "trialdata": {"rt": -1000, "stimulus": "/static/audio/wordpool/DRAWING.wav", "key_press": -1, "type": "PRES_AUD", "word": "drawing", "wordID": 493, "conditions": [24, 800, "a", 24000], "trial": 4, "serialpos": 4, "trial_type": "single-audio", "trial_index": 161, "time_elapsed": 1233535, "internal_node_id": "0.0-116.0"}}, {"uniqueid": "MTK0008:3TXWC2NHN0XMD7T1IW1HZCRHWLX9SK", "current_trial": 162, "dateTime": 1508954296791, "trialdata": {"rt": -1000, "stimulus": "/static/audio/wordpool/POSTAGE.wav", "key_press": -1, "type": "PRES_AUD", "word": "postage", "wordID": 1112, "conditions": [24, 800, "a", 24000], "trial": 4, "serialpos": 5, "trial_type": "single-audio", "trial_index": 162, "time_elapsed": 1235217, "internal_node_id": "0.0-117.0"}}, {"uniqueid": "MTK0008:3TXWC2NHN0XMD7T1IW1HZCRHWLX9SK", "current_trial": 163, "dateTime": 1508954298513, "trialdata": {"rt": -1000, "stimulus": "/static/audio/wordpool/PLIERS.wav", "key_press": -1, "type": "PRES_AUD", "word": "pliers", "wordID": 1088, "conditions": [24, 800, "a", 24000], "trial": 4, "serialpos": 6, "trial_type": "single-audio", "trial_index": 163, "time_elapsed": 1236938, "internal_node_id": "0.0-118.0"}}, {"uniqueid": "MTK0008:3TXWC2NHN0XMD7T1IW1HZCRHWLX9SK", "current_trial": 164, "dateTime": 1508954300422, "trialdata": {"rt": -1000, "stimulus": "/static/audio/wordpool/HUMAN.wav", "key_press": -1, "type": "PRES_AUD", "word": "human", "wordID": 725, "conditions": [24, 800, "a", 24000], "trial": 4, "serialpos": 7, "trial_type": "single-audio", "trial_index": 164, "time_elapsed": 1238848, "internal_node_id": "0.0-119.0"}}, {"uniqueid": "MTK0008:3TXWC2NHN0XMD7T1IW1HZCRHWLX9SK", "current_trial": 165, "dateTime": 1508954302178, "trialdata": {"rt": -1000, "stimulus": "/static/audio/wordpool/PATIENT.wav", "key_press": -1, "type": "PRES_AUD", "word": "patient", "wordID": 1023, "conditions": [24, 800, "a", 24000], "trial": 4, "serialpos": 8, "trial_type": "single-audio", "trial_index": 165, "time_elapsed": 1240604, "internal_node_id": "0.0-120.0"}}, {"uniqueid": "MTK0008:3TXWC2NHN0XMD7T1IW1HZCRHWLX9SK", "current_trial": 166, "dateTime": 1508954303926, "trialdata": {"rt": -1000, "stimulus": "/static/audio/wordpool/DONOR.wav", "key_press": -1, "type": "PRES_AUD", "word": "donor", "wordID": 484, "conditions": [24, 800, "a", 24000], "trial": 4, "serialpos": 9, "trial_type": "single-audio", "trial_index": 166, "time_elapsed": 1242352, "internal_node_id": "0.0-121.0"}}, {"uniqueid": "MTK0008:3TXWC2NHN0XMD7T1IW1HZCRHWLX9SK", "current_trial": 167, "dateTime": 1508954305903, "trialdata": {"rt": -1000, "stimulus": "/static/audio/wordpool/CHURCH.wav", "key_press": -1, "type": "PRES_AUD", "word": "church", "wordID": 306, "conditions": [24, 800, "a", 24000], "trial": 4, "serialpos": 10, "trial_type": "single-audio", "trial_index": 167, "time_elapsed": 1244329, "internal_node_id": "0.0-122.0"}}, {"uniqueid": "MTK0008:3TXWC2NHN0XMD7T1IW1HZCRHWLX9SK", "current_trial": 168, "dateTime": 1508954307748, "trialdata": {"rt": -1000, "stimulus": "/static/audio/wordpool/TWEEZERS.wav", "key_press": -1, "type": "PRES_AUD", "word": "tweezers", "wordID": 1525, "conditions": [24, 800, "a", 24000], "trial": 4, "serialpos": 11, "trial_type": "single-audio", "trial_index": 168, "time_elapsed": 1246173, "internal_node_id": "0.0-123.0"}}, {"uniqueid": "MTK0008:3TXWC2NHN0XMD7T1IW1HZCRHWLX9SK", "current_trial": 169, "dateTime": 1508954309400, "trialdata": {"rt": -1000, "stimulus": "/static/audio/wordpool/SNAIL.wav", "key_press": -1, "type": "PRES_AUD", "word": "snail", "wordID": 1331, "conditions": [24, 800, "a", 24000], "trial": 4, "serialpos": 12, "trial_type": "single-audio", "trial_index": 169, "time_elapsed": 1247825, "internal_node_id": "0.0-124.0"}}, {"uniqueid": "MTK0008:3TXWC2NHN0XMD7T1IW1HZCRHWLX9SK", "current_trial": 170, "dateTime": 1508954311125, "trialdata": {"rt": -1000, "stimulus": "/static/audio/wordpool/PILOT.wav", "key_press": -1, "type": "PRES_AUD", "word": "pilot", "wordID": 1069, "conditions": [24, 800, "a", 24000], "trial": 4, "serialpos": 13, "trial_type": "single-audio", "trial_index": 170, "time_elapsed": 1249550, "internal_node_id": "0.0-125.0"}}, {"uniqueid": "MTK0008:3TXWC2NHN0XMD7T1IW1HZCRHWLX9SK", "current_trial": 171, "dateTime": 1508954313061, "trialdata": {"rt": -1000, "stimulus": "/static/audio/wordpool/FLOWER.wav", "key_press": -1, "type": "PRES_AUD", "word": "flower", "wordID": 583, "conditions": [24, 800, "a", 24000], "trial": 4, "serialpos": 14, "trial_type": "single-audio", "trial_index": 171, "time_elapsed": 1251487, "internal_node_id": "0.0-126.0"}}, {"uniqueid": "MTK0008:3TXWC2NHN0XMD7T1IW1HZCRHWLX9SK", "current_trial": 172, "dateTime": 1508954315032, "trialdata": {"rt": -1000, "stimulus": "/static/audio/wordpool/DAISY.wav", "key_press": -1, "type": "PRES_AUD", "word": "daisy", "wordID": 434, "conditions": [24, 800, "a", 24000], "trial": 4, "serialpos": 15, "trial_type": "single-audio", "trial_index": 172, "time_elapsed": 1253458, "internal_node_id": "0.0-127.0"}}, {"uniqueid": "MTK0008:3TXWC2NHN0XMD7T1IW1HZCRHWLX9SK", "current_trial": 173, "dateTime": 1508954316675, "trialdata": {"rt": -1000, "stimulus": "/static/audio/wordpool/MAILMAN.wav", "key_press": -1, "type": "PRES_AUD", "word": "mailman", "wordID": 857, "conditions": [24, 800, "a", 24000], "trial": 4, "serialpos": 16, "trial_type": "single-audio", "trial_index": 173, "time_elapsed": 1255101, "internal_node_id": "0.0-128.0"}}, {"uniqueid": "MTK0008:3TXWC2NHN0XMD7T1IW1HZCRHWLX9SK", "current_trial": 174, "dateTime": 1508954318365, "trialdata": {"rt": -1000, "stimulus": "/static/audio/wordpool/CHEMIST.wav", "key_press": -1, "type": "PRES_AUD", "word": "chemist", "wordID": 291, "conditions": [24, 800, "a", 24000], "trial": 4, "serialpos": 17, "trial_type": "single-audio", "trial_index": 174, "time_elapsed": 1256790, "internal_node_id": "0.0-129.0"}}, {"uniqueid": "MTK0008:3TXWC2NHN0XMD7T1IW1HZCRHWLX9SK", "current_trial": 175, "dateTime": 1508954320315, "trialdata": {"rt": -1000, "stimulus": "/static/audio/wordpool/KITCHEN.wav", "key_press": -1, "type": "PRES_AUD", "word": "kitchen", "wordID": 777, "conditions": [24, 800, "a", 24000], "trial": 4, "serialpos": 18, "trial_type": "single-audio", "trial_index": 175, "time_elapsed": 1258741, "internal_node_id": "0.0-130.0"}}, {"uniqueid": "MTK0008:3TXWC2NHN0XMD7T1IW1HZCRHWLX9SK", "current_trial": 176, "dateTime": 1508954322301, "trialdata": {"rt": -1000, "stimulus": "/static/audio/wordpool/CHAPEL.wav", "key_press": -1, "type": "PRES_AUD", "word": "chapel", "wordID": 279, "conditions": [24, 800, "a", 24000], "trial": 4, "serialpos": 19, "trial_type": "single-audio", "trial_index": 176, "time_elapsed": 1260727, "internal_node_id": "0.0-131.0"}}, {"uniqueid": "MTK0008:3TXWC2NHN0XMD7T1IW1HZCRHWLX9SK", "current_trial": 177, "dateTime": 1508954324230, "trialdata": {"rt": -1000, "stimulus": "/static/audio/wordpool/LIZARD.wav", "key_press": -1, "type": "PRES_AUD", "word": "lizard", "wordID": 833, "conditions": [24, 800, "a", 24000], "trial": 4, "serialpos": 20, "trial_type": "single-audio", "trial_index": 177, "time_elapsed": 1262656, "internal_node_id": "0.0-132.0"}}, {"uniqueid": "MTK0008:3TXWC2NHN0XMD7T1IW1HZCRHWLX9SK", "current_trial": 178, "dateTime": 1508954325935, "trialdata": {"rt": -1000, "stimulus": "/static/audio/wordpool/HORNET.wav", "key_press": -1, "type": "PRES_AUD", "word": "hornet", "wordID": 717, "conditions": [24, 800, "a", 24000], "trial": 4, "serialpos": 21, "trial_type": "single-audio", "trial_index": 178, "time_elapsed": 1264360, "internal_node_id": "0.0-133.0"}}, {"uniqueid": "MTK0008:3TXWC2NHN0XMD7T1IW1HZCRHWLX9SK", "current_trial": 179, "dateTime": 1508954327834, "trialdata": {"rt": -1000, "stimulus": "/static/audio/wordpool/ANKLE.wav", "key_press": -1, "type": "PRES_AUD", "word": "ankle", "wordID": 23, "conditions": [24, 800, "a", 24000], "trial": 4, "serialpos": 22, "trial_type": "single-audio", "trial_index": 179, "time_elapsed": 1266259, "internal_node_id": "0.0-134.0"}}, {"uniqueid": "MTK0008:3TXWC2NHN0XMD7T1IW1HZCRHWLX9SK", "current_trial": 180, "dateTime": 1508954329688, "trialdata": {"rt": -1000, "stimulus": "/static/audio/wordpool/AIRPLANE.wav", "key_press": -1, "type": "PRES_AUD", "word": "airplane", "wordID": 11, "conditions": [24, 800, "a", 24000], "trial": 4, "serialpos": 23, "trial_type": "single-audio", "trial_index": 180, "time_elapsed": 1268113, "internal_node_id": "0.0-135.0"}}, {"uniqueid": "MTK0008:3TXWC2NHN0XMD7T1IW1HZCRHWLX9SK", "current_trial": 181, "dateTime": 1508954331030, "trialdata": {"rt": -1, "stimulus": "", "key_press": -1, "type": "PRE_RECALL_DELAY", "trial_type": "single-stim", "trial_index": 181, "time_elapsed": 1269456, "internal_node_id": "0.0-136.0-0.0"}}, {"uniqueid": "MTK0008:3TXWC2NHN0XMD7T1IW1HZCRHWLX9SK", "current_trial": 182, "dateTime": 1508954331538, "trialdata": {"rt": -1000, "stimulus": "/static/audio/400Hz.wav", "key_press": -1, "type": "PRE_RECALL_ALERT", "trial_type": "single-audio", "trial_index": 182, "time_elapsed": 1269964, "internal_node_id": "0.0-137.0"}}, {"uniqueid": "MTK0008:3TXWC2NHN0XMD7T1IW1HZCRHWLX9SK", "current_trial": 183, "dateTime": 1508954391543, "trialdata": {"rt": [9705, 11685, 23700, 35411, 37907, 39885, 42466, 48181, 49697, 53118, 56913, 59671], "recwords": ["daisy", "church", "church", "ball", "church", "pastor", "tweasers", "today", "tape", "glasses", "shoes", "blanket"], "type": "FREE_RECALL", "conditions": [24, 800, "a", 24000], "trial": 4, "trial_type": "free-recall", "trial_index": 183, "time_elapsed": 1329969, "internal_node_id": "0.0-138.0-0.0"}}, {"uniqueid": "MTK0008:3TXWC2NHN0XMD7T1IW1HZCRHWLX9SK", "current_trial": 184, "dateTime": 1508954394690, "trialdata": {"rt": 1145, "key_press": 32, "type": "INSTRUCTIONS", "trial_type": "text", "trial_index": 184, "time_elapsed": 1333115, "internal_node_id": "0.0-139.0"}}, {"uniqueid": "MTK0008:3TXWC2NHN0XMD7T1IW1HZCRHWLX9SK", "current_trial": 185, "dateTime": 1508954408697, "trialdata": {"rt": [], "responses": [], "num1": [8], "num2": [2], "num3": [6], "type": "DISTRACTOR", "conditions": [12, 800, "v", 12000], "trial": 5, "trial_type": "math-distractor", "trial_index": 185, "time_elapsed": 1347122, "internal_node_id": "0.0-140.0"}}, {"uniqueid": "MTK0008:3TXWC2NHN0XMD7T1IW1HZCRHWLX9SK", "current_trial": 186, "dateTime": 1508954411703, "trialdata": {"rt": -1, "stimulus": "<p id=\"stim\">10</p>", "key_press": -1, "trial_type": "single-stim", "trial_index": 186, "time_elapsed": 1350128, "internal_node_id": "0.0-141.0-0.0"}}, {"uniqueid": "MTK0008:3TXWC2NHN0XMD7T1IW1HZCRHWLX9SK", "current_trial": 187, "dateTime": 1508954412705, "trialdata": {"rt": -1, "stimulus": "<p id=\"stim\">9</p>", "key_press": -1, "trial_type": "single-stim", "trial_index": 187, "time_elapsed": 1351131, "internal_node_id": "0.0-141.0-1.0"}}, {"uniqueid": "MTK0008:3TXWC2NHN0XMD7T1IW1HZCRHWLX9SK", "current_trial": 188, "dateTime": 1508954413710, "trialdata": {"rt": -1, "stimulus": "<p id=\"stim\">8</p>", "key_press": -1, "trial_type": "single-stim", "trial_index": 188, "time_elapsed": 1352135, "internal_node_id": "0.0-141.0-2.0"}}, {"uniqueid": "MTK0008:3TXWC2NHN0XMD7T1IW1HZCRHWLX9SK", "current_trial": 189, "dateTime": 1508954414718, "trialdata": {"rt": -1, "stimulus": "<p id=\"stim\">7</p>", "key_press": -1, "trial_type": "single-stim", "trial_index": 189, "time_elapsed": 1353142, "internal_node_id": "0.0-141.0-3.0"}}, {"uniqueid": "MTK0008:3TXWC2NHN0XMD7T1IW1HZCRHWLX9SK", "current_trial": 190, "dateTime": 1508954415728, "trialdata": {"rt": -1, "stimulus": "<p id=\"stim\">6</p>", "key_press": -1, "trial_type": "single-stim", "trial_index": 190, "time_elapsed": 1354154, "internal_node_id": "0.0-141.0-4.0"}}, {"uniqueid": "MTK0008:3TXWC2NHN0XMD7T1IW1HZCRHWLX9SK", "current_trial": 191, "dateTime": 1508954416730, "trialdata": {"rt": -1, "stimulus": "<p id=\"stim\">5</p>", "key_press": -1, "trial_type": "single-stim", "trial_index": 191, "time_elapsed": 1355156, "internal_node_id": "0.0-141.0-5.0"}}, {"uniqueid": "MTK0008:3TXWC2NHN0XMD7T1IW1HZCRHWLX9SK", "current_trial": 192, "dateTime": 1508954417732, "trialdata": {"rt": -1, "stimulus": "<p id=\"stim\">4</p>", "key_press": -1, "trial_type": "single-stim", "trial_index": 192, "time_elapsed": 1356158, "internal_node_id": "0.0-141.0-6.0"}}, {"uniqueid": "MTK0008:3TXWC2NHN0XMD7T1IW1HZCRHWLX9SK", "current_trial": 193, "dateTime": 1508954418740, "trialdata": {"rt": -1, "stimulus": "<p id=\"stim\">3</p>", "key_press": -1, "trial_type": "single-stim", "trial_index": 193, "time_elapsed": 1357164, "internal_node_id": "0.0-141.0-7.0"}}, {"uniqueid": "MTK0008:3TXWC2NHN0XMD7T1IW1HZCRHWLX9SK", "current_trial": 194, "dateTime": 1508954419749, "trialdata": {"rt": -1, "stimulus": "<p id=\"stim\">2</p>", "key_press": -1, "trial_type": "single-stim", "trial_index": 194, "time_elapsed": 1358174, "internal_node_id": "0.0-141.0-8.0"}}, {"uniqueid": "MTK0008:3TXWC2NHN0XMD7T1IW1HZCRHWLX9SK", "current_trial": 195, "dateTime": 1508954420750, "trialdata": {"rt": -1, "stimulus": "<p id=\"stim\">1</p>", "key_press": -1, "trial_type": "single-stim", "trial_index": 195, "time_elapsed": 1359176, "internal_node_id": "0.0-141.0-9.0"}}, {"uniqueid": "MTK0008:3TXWC2NHN0XMD7T1IW1HZCRHWLX9SK", "current_trial": 196, "dateTime": 1508954422254, "trialdata": {"rt": -1, "stimulus": "<p id=\"stim\">+</p>", "key_press": -1, "type": "FIXATION", "trial_type": "single-stim", "trial_index": 196, "time_elapsed": 1360680, "internal_node_id": "0.0-142.0-0.0"}}, {"uniqueid": "MTK0008:3TXWC2NHN0XMD7T1IW1HZCRHWLX9SK", "current_trial": 197, "dateTime": 1508954423059, "trialdata": {"rt": -1, "stimulus": "<p id=\"stim\">STICKER</p>", "key_press": -1, "type": "PRES_VIS", "word": "sticker", "wordID": 1381, "conditions": [12, 800, "v", 12000], "trial": 5, "serialpos": 0, "trial_type": "single-stim", "trial_index": 197, "time_elapsed": 1361484, "internal_node_id": "0.0-143.0"}}, {"uniqueid": "MTK0008:3TXWC2NHN0XMD7T1IW1HZCRHWLX9SK", "current_trial": 198, "dateTime": 1508954424843, "trialdata": {"rt": -1, "stimulus": "<p id=\"stim\">CRICKET</p>", "key_press": -1, "type": "PRES_VIS", "word": "cricket", "wordID": 407, "conditions": [12, 800, "v", 12000], "trial": 5, "serialpos": 1, "trial_type": "single-stim", "trial_index": 198, "time_elapsed": 1363269, "internal_node_id": "0.0-144.0"}}, {"uniqueid": "MTK0008:3TXWC2NHN0XMD7T1IW1HZCRHWLX9SK", "current_trial": 199, "dateTime": 1508954426763, "trialdata": {"rt": -1, "stimulus": "<p id=\"stim\">LION</p>", "key_press": -1, "type": "PRES_VIS", "word": "lion", "wordID": 826, "conditions": [12, 800, "v", 12000], "trial": 5, "serialpos": 2, "trial_type": "single-stim", "trial_index": 199, "time_elapsed": 1365188, "internal_node_id": "0.0-145.0"}}, {"uniqueid": "MTK0008:3TXWC2NHN0XMD7T1IW1HZCRHWLX9SK", "current_trial": 200, "dateTime": 1508954428523, "trialdata": {"rt": -1, "stimulus": "<p id=\"stim\">NOTEBOOK</p>", "key_press": -1, "type": "PRES_VIS", "word": "notebook", "wordID": 958, "conditions": [12, 800, "v", 12000], "trial": 5, "serialpos": 3, "trial_type": "single-stim", "trial_index": 200, "time_elapsed": 1366949, "internal_node_id": "0.0-146.0"}}, {"uniqueid": "MTK0008:3TXWC2NHN0XMD7T1IW1HZCRHWLX9SK", "current_trial": 201, "dateTime": 1508954430404, "trialdata": {"rt": -1, "stimulus": "<p id=\"stim\">BADGE</p>", "key_press": -1, "type": "PRES_VIS", "word": "badge", "wordID": 67, "conditions": [12, 800, "v", 12000], "trial": 5, "serialpos": 4, "trial_type": "single-stim", "trial_index": 201, "time_elapsed": 1368830, "internal_node_id": "0.0-147.0"}}, {"uniqueid": "MTK0008:3TXWC2NHN0XMD7T1IW1HZCRHWLX9SK", "current_trial": 202, "dateTime": 1508954432241, "trialdata": {"rt": -1, "stimulus": "<p id=\"stim\">WRIST</p>", "key_press": -1, "type": "PRES_VIS", "word": "wrist", "wordID": 1625, "conditions": [12, 800, "v", 12000], "trial": 5, "serialpos": 5, "trial_type": "single-stim", "trial_index": 202, "time_elapsed": 1370666, "internal_node_id": "0.0-148.0"}}, {"uniqueid": "MTK0008:3TXWC2NHN0XMD7T1IW1HZCRHWLX9SK", "current_trial": 203, "dateTime": 1508954434088, "trialdata": {"rt": -1, "stimulus": "<p id=\"stim\">FINGER</p>", "key_press": -1, "type": "PRES_VIS", "word": "finger", "wordID": 566, "conditions": [12, 800, "v", 12000], "trial": 5, "serialpos": 6, "trial_type": "single-stim", "trial_index": 203, "time_elapsed": 1372514, "internal_node_id": "0.0-149.0"}}, {"uniqueid": "MTK0008:3TXWC2NHN0XMD7T1IW1HZCRHWLX9SK", "current_trial": 204, "dateTime": 1508954435838, "trialdata": {"rt": -1, "stimulus": "<p id=\"stim\">CARROT</p>", "key_press": -1, "type": "PRES_VIS", "word": "carrot", "wordID": 248, "conditions": [12, 800, "v", 12000], "trial": 5, "serialpos": 7, "trial_type": "single-stim", "trial_index": 204, "time_elapsed": 1374264, "internal_node_id": "0.0-150.0"}}, {"uniqueid": "MTK0008:3TXWC2NHN0XMD7T1IW1HZCRHWLX9SK", "current_trial": 205, "dateTime": 1508954437525, "trialdata": {"rt": -1, "stimulus": "<p id=\"stim\">KLEENEX</p>", "key_press": -1, "type": "PRES_VIS", "word": "kleenex", "wordID": 781, "conditions": [12, 800, "v", 12000], "trial": 5, "serialpos": 8, "trial_type": "single-stim", "trial_index": 205, "time_elapsed": 1375950, "internal_node_id": "0.0-151.0"}}, {"uniqueid": "MTK0008:3TXWC2NHN0XMD7T1IW1HZCRHWLX9SK", "current_trial": 206, "dateTime": 1508954439203, "trialdata": {"rt": -1, "stimulus": "<p id=\"stim\">PARROT</p>", "key_press": -1, "type": "PRES_VIS", "word": "parrot", "wordID": 1014, "conditions": [12, 800, "v", 12000], "trial": 5, "serialpos": 9, "trial_type": "single-stim", "trial_index": 206, "time_elapsed": 1377629, "internal_node_id": "0.0-152.0"}}, {"uniqueid": "MTK0008:3TXWC2NHN0XMD7T1IW1HZCRHWLX9SK", "current_trial": 207, "dateTime": 1508954441286, "trialdata": {"rt": -1, "stimulus": "<p id=\"stim\">SALMON</p>", "key_press": -1, "type": "PRES_VIS", "word": "salmon", "wordID": 1226, "conditions": [12, 800, "v", 12000], "trial": 5, "serialpos": 10, "trial_type": "single-stim", "trial_index": 207, "time_elapsed": 1379712, "internal_node_id": "0.0-153.0"}}, {"uniqueid": "MTK0008:3TXWC2NHN0XMD7T1IW1HZCRHWLX9SK", "current_trial": 208, "dateTime": 1508954443228, "trialdata": {"rt": -1, "stimulus": "<p id=\"stim\">NOVEL</p>", "key_press": -1, "type": "PRES_VIS", "word": "novel", "wordID": 959, "conditions": [12, 800, "v", 12000], "trial": 5, "serialpos": 11, "trial_type": "single-stim", "trial_index": 208, "time_elapsed": 1381654, "internal_node_id": "0.0-154.0"}}, {"uniqueid": "MTK0008:3TXWC2NHN0XMD7T1IW1HZCRHWLX9SK", "current_trial": 209, "dateTime": 1508954445747, "trialdata": {"rt": -1, "stimulus": "", "key_press": -1, "type": "PRE_RECALL_DELAY", "trial_type": "single-stim", "trial_index": 209, "time_elapsed": 1384173, "internal_node_id": "0.0-155.0-0.0"}}, {"uniqueid": "MTK0008:3TXWC2NHN0XMD7T1IW1HZCRHWLX9SK", "current_trial": 210, "dateTime": 1508954446251, "trialdata": {"rt": -1000, "stimulus": "/static/audio/400Hz.wav", "key_press": -1, "type": "PRE_RECALL_ALERT", "trial_type": "single-audio", "trial_index": 210, "time_elapsed": 1384677, "internal_node_id": "0.0-156.0"}}, {"uniqueid": "MTK0008:3TXWC2NHN0XMD7T1IW1HZCRHWLX9SK", "current_trial": 211, "dateTime": 1508954506262, "trialdata": {"rt": [23737], "recwords": ["sticker"], "type": "FREE_RECALL", "conditions": [12, 800, "v", 12000], "trial": 5, "trial_type": "free-recall", "trial_index": 211, "time_elapsed": 1444688, "internal_node_id": "0.0-157.0-0.0"}}, {"uniqueid": "MTK0008:3TXWC2NHN0XMD7T1IW1HZCRHWLX9SK", "current_trial": 212, "dateTime": 1508954509712, "trialdata": {"rt": 1414, "key_press": 32, "type": "INSTRUCTIONS", "trial_type": "text", "trial_index": 212, "time_elapsed": 1448138, "internal_node_id": "0.0-158.0"}}, {"uniqueid": "MTK0008:3TXWC2NHN0XMD7T1IW1HZCRHWLX9SK", "current_trial": 213, "dateTime": 1508954523718, "trialdata": {"rt": [5484, 8245], "responses": ["13", "10"], "num1": [7, 1, 9], "num2": [1, 3, 8], "num3": [5, 6, 9], "type": "DISTRACTOR", "conditions": [24, 1600, "a", 12000], "trial": 6, "trial_type": "math-distractor", "trial_index": 213, "time_elapsed": 1462144, "internal_node_id": "0.0-159.0"}}, {"uniqueid": "MTK0008:3TXWC2NHN0XMD7T1IW1HZCRHWLX9SK", "current_trial": 214, "dateTime": 1508954526732, "trialdata": {"rt": -1, "stimulus": "<p id=\"stim\">10</p>", "key_press": -1, "trial_type": "single-stim", "trial_index": 214, "time_elapsed": 1465158, "internal_node_id": "0.0-160.0-0.0"}}, {"uniqueid": "MTK0008:3TXWC2NHN0XMD7T1IW1HZCRHWLX9SK", "current_trial": 215, "dateTime": 1508954527736, "trialdata": {"rt": -1, "stimulus": "<p id=\"stim\">9</p>", "key_press": -1, "trial_type": "single-stim", "trial_index": 215, "time_elapsed": 1466162, "internal_node_id": "0.0-160.0-1.0"}}, {"uniqueid": "MTK0008:3TXWC2NHN0XMD7T1IW1HZCRHWLX9SK", "current_trial": 216, "dateTime": 1508954528740, "trialdata": {"rt": -1, "stimulus": "<p id=\"stim\">8</p>", "key_press": -1, "trial_type": "single-stim", "trial_index": 216, "time_elapsed": 1467166, "internal_node_id": "0.0-160.0-2.0"}}, {"uniqueid": "MTK0008:3TXWC2NHN0XMD7T1IW1HZCRHWLX9SK", "current_trial": 217, "dateTime": 1508954529746, "trialdata": {"rt": -1, "stimulus": "<p id=\"stim\">7</p>", "key_press": -1, "trial_type": "single-stim", "trial_index": 217, "time_elapsed": 1468171, "internal_node_id": "0.0-160.0-3.0"}}, {"uniqueid": "MTK0008:3TXWC2NHN0XMD7T1IW1HZCRHWLX9SK", "current_trial": 218, "dateTime": 1508954530748, "trialdata": {"rt": -1, "stimulus": "<p id=\"stim\">6</p>", "key_press": -1, "trial_type": "single-stim", "trial_index": 218, "time_elapsed": 1469174, "internal_node_id": "0.0-160.0-4.0"}}, {"uniqueid": "MTK0008:3TXWC2NHN0XMD7T1IW1HZCRHWLX9SK", "current_trial": 219, "dateTime": 1508954531756, "trialdata": {"rt": -1, "stimulus": "<p id=\"stim\">5</p>", "key_press": -1, "trial_type": "single-stim", "trial_index": 219, "time_elapsed": 1470182, "internal_node_id": "0.0-160.0-5.0"}}, {"uniqueid": "MTK0008:3TXWC2NHN0XMD7T1IW1HZCRHWLX9SK", "current_trial": 220, "dateTime": 1508954532760, "trialdata": {"rt": -1, "stimulus": "<p id=\"stim\">4</p>", "key_press": -1, "trial_type": "single-stim", "trial_index": 220, "time_elapsed": 1471186, "internal_node_id": "0.0-160.0-6.0"}}, {"uniqueid": "MTK0008:3TXWC2NHN0XMD7T1IW1HZCRHWLX9SK", "current_trial": 221, "dateTime": 1508954533763, "trialdata": {"rt": -1, "stimulus": "<p id=\"stim\">3</p>", "key_press": -1, "trial_type": "single-stim", "trial_index": 221, "time_elapsed": 1472189, "internal_node_id": "0.0-160.0-7.0"}}, {"uniqueid": "MTK0008:3TXWC2NHN0XMD7T1IW1HZCRHWLX9SK", "current_trial": 222, "dateTime": 1508954534766, "trialdata": {"rt": -1, "stimulus": "<p id=\"stim\">2</p>", "key_press": -1, "trial_type": "single-stim", "trial_index": 222, "time_elapsed": 1473192, "internal_node_id": "0.0-160.0-8.0"}}, {"uniqueid": "MTK0008:3TXWC2NHN0XMD7T1IW1HZCRHWLX9SK", "current_trial": 223, "dateTime": 1508954535767, "trialdata": {"rt": -1, "stimulus": "<p id=\"stim\">1</p>", "key_press": -1, "trial_type": "single-stim", "trial_index": 223, "time_elapsed": 1474193, "internal_node_id": "0.0-160.0-9.0"}}, {"uniqueid": "MTK0008:3TXWC2NHN0XMD7T1IW1HZCRHWLX9SK", "current_trial": 224, "dateTime": 1508954537268, "trialdata": {"rt": -1, "stimulus": "<p id=\"stim\">+</p>", "key_press": -1, "type": "FIXATION", "trial_type": "single-stim", "trial_index": 224, "time_elapsed": 1475694, "internal_node_id": "0.0-161.0-0.0"}}, {"uniqueid": "MTK0008:3TXWC2NHN0XMD7T1IW1HZCRHWLX9SK", "current_trial": 225, "dateTime": 1508954539696, "trialdata": {"rt": -1000, "stimulus": "/static/audio/wordpool/ANTLER.wav", "key_press": -1, "type": "PRES_AUD", "word": "antler", "wordID": 28, "conditions": [24, 1600, "a", 12000], "trial": 6, "serialpos": 0, "trial_type": "single-audio", "trial_index": 225, "time_elapsed": 1478122, "internal_node_id": "0.0-162.0"}}, {"uniqueid": "MTK0008:3TXWC2NHN0XMD7T1IW1HZCRHWLX9SK", "current_trial": 226, "dateTime": 1508954542202, "trialdata": {"rt": -1000, "stimulus": "/static/audio/wordpool/TWIG.wav", "key_press": -1, "type": "PRES_AUD", "word": "twig", "wordID": 1526, "conditions": [24, 1600, "a", 12000], "trial": 6, "serialpos": 1, "trial_type": "single-audio", "trial_index": 226, "time_elapsed": 1480627, "internal_node_id": "0.0-163.0"}}, {"uniqueid": "MTK0008:3TXWC2NHN0XMD7T1IW1HZCRHWLX9SK", "current_trial": 227, "dateTime": 1508954544867, "trialdata": {"rt": -1000, "stimulus": "/static/audio/wordpool/ELBOW.wav", "key_press": -1, "type": "PRES_AUD", "word": "elbow", "wordID": 519, "conditions": [24, 1600, "a", 12000], "trial": 6, "serialpos": 2, "trial_type": "single-audio", "trial_index": 227, "time_elapsed": 1483292, "internal_node_id": "0.0-164.0"}}, {"uniqueid": "MTK0008:3TXWC2NHN0XMD7T1IW1HZCRHWLX9SK", "current_trial": 228, "dateTime": 1508954547518, "trialdata": {"rt": -1000, "stimulus": "/static/audio/wordpool/PIANO.wav", "key_press": -1, "type": "PRES_AUD", "word": "piano", "wordID": 1056, "conditions": [24, 1600, "a", 12000], "trial": 6, "serialpos": 3, "trial_type": "single-audio", "trial_index": 228, "time_elapsed": 1485944, "internal_node_id": "0.0-165.0"}}, {"uniqueid": "MTK0008:3TXWC2NHN0XMD7T1IW1HZCRHWLX9SK", "current_trial": 229, "dateTime": 1508954550205, "trialdata": {"rt": -1000, "stimulus": "/static/audio/wordpool/SODA.wav", "key_press": -1, "type": "PRES_AUD", "word": "soda", "wordID": 1340, "conditions": [24, 1600, "a", 12000], "trial": 6, "serialpos": 4, "trial_type": "single-audio", "trial_index": 229, "time_elapsed": 1488631, "internal_node_id": "0.0-166.0"}}, {"uniqueid": "MTK0008:3TXWC2NHN0XMD7T1IW1HZCRHWLX9SK", "current_trial": 230, "dateTime": 1508954552899, "trialdata": {"rt": -1000, "stimulus": "/static/audio/wordpool/COFFEE.wav", "key_press": -1, "type": "PRES_AUD", "word": "coffee", "wordID": 340, "conditions": [24, 1600, "a", 12000], "trial": 6, "serialpos": 5, "trial_type": "single-audio", "trial_index": 230, "time_elapsed": 1491324, "internal_node_id": "0.0-167.0"}}, {"uniqueid": "MTK0008:3TXWC2NHN0XMD7T1IW1HZCRHWLX9SK", "current_trial": 231, "dateTime": 1508954555597, "trialdata": {"rt": -1000, "stimulus": "/static/audio/wordpool/BANJO.wav", "key_press": -1, "type": "PRES_AUD", "word": "banjo", "wordID": 81, "conditions": [24, 1600, "a", 12000], "trial": 6, "serialpos": 6, "trial_type": "single-audio", "trial_index": 231, "time_elapsed": 1494023, "internal_node_id": "0.0-168.0"}}, {"uniqueid": "MTK0008:3TXWC2NHN0XMD7T1IW1HZCRHWLX9SK", "current_trial": 232, "dateTime": 1508954558205, "trialdata": {"rt": -1000, "stimulus": "/static/audio/wordpool/GIRL.wav", "key_press": -1, "type": "PRES_AUD", "word": "girl", "wordID": 636, "conditions": [24, 1600, "a", 12000], "trial": 6, "serialpos": 7, "trial_type": "single-audio", "trial_index": 232, "time_elapsed": 1496631, "internal_node_id": "0.0-169.0"}}, {"uniqueid": "MTK0008:3TXWC2NHN0XMD7T1IW1HZCRHWLX9SK", "current_trial": 233, "dateTime": 1508954560925, "trialdata": {"rt": -1000, "stimulus": "/static/audio/wordpool/BRANCH.wav", "key_press": -1, "type": "PRES_AUD", "word": "branch", "wordID": 167, "conditions": [24, 1600, "a", 12000], "trial": 6, "serialpos": 8, "trial_type": "single-audio", "trial_index": 233, "time_elapsed": 1499351, "internal_node_id": "0.0-170.0"}}, {"uniqueid": "MTK0008:3TXWC2NHN0XMD7T1IW1HZCRHWLX9SK", "current_trial": 234, "dateTime": 1508954563401, "trialdata": {"rt": -1000, "stimulus": "/static/audio/wordpool/SHRUB.wav", "key_press": -1, "type": "PRES_AUD", "word": "shrub", "wordID": 1298, "conditions": [24, 1600, "a", 12000], "trial": 6, "serialpos": 9, "trial_type": "single-audio", "trial_index": 234, "time_elapsed": 1501826, "internal_node_id": "0.0-171.0"}}, {"uniqueid": "MTK0008:3TXWC2NHN0XMD7T1IW1HZCRHWLX9SK", "current_trial": 235, "dateTime": 1508954565817, "trialdata": {"rt": -1000, "stimulus": "/static/audio/wordpool/COLLEGE.wav", "key_press": -1, "type": "PRES_AUD", "word": "college", "wordID": 345, "conditions": [24, 1600, "a", 12000], "trial": 6, "serialpos": 10, "trial_type": "single-audio", "trial_index": 235, "time_elapsed": 1504242, "internal_node_id": "0.0-172.0"}}, {"uniqueid": "MTK0008:3TXWC2NHN0XMD7T1IW1HZCRHWLX9SK", "current_trial": 236, "dateTime": 1508954568359, "trialdata": {"rt": -1000, "stimulus": "/static/audio/wordpool/SEAGULL.wav", "key_press": -1, "type": "PRES_AUD", "word": "seagull", "wordID": 1260, "conditions": [24, 1600, "a", 12000], "trial": 6, "serialpos": 11, "trial_type": "single-audio", "trial_index": 236, "time_elapsed": 1506785, "internal_node_id": "0.0-173.0"}}, {"uniqueid": "MTK0008:3TXWC2NHN0XMD7T1IW1HZCRHWLX9SK", "current_trial": 237, "dateTime": 1508954570875, "trialdata": {"rt": -1000, "stimulus": "/static/audio/wordpool/AUTHOR.wav", "key_press": -1, "type": "PRES_AUD", "word": "author", "wordID": 60, "conditions": [24, 1600, "a", 12000], "trial": 6, "serialpos": 12, "trial_type": "single-audio", "trial_index": 237, "time_elapsed": 1509301, "internal_node_id": "0.0-174.0"}}, {"uniqueid": "MTK0008:3TXWC2NHN0XMD7T1IW1HZCRHWLX9SK", "current_trial": 238, "dateTime": 1508954573467, "trialdata": {"rt": -1000, "stimulus": "/static/audio/wordpool/WIDOW.wav", "key_press": -1, "type": "PRES_AUD", "word": "widow", "wordID": 1607, "conditions": [24, 1600, "a", 12000], "trial": 6, "serialpos": 13, "trial_type": "single-audio", "trial_index": 238, "time_elapsed": 1511892, "internal_node_id": "0.0-175.0"}}, {"uniqueid": "MTK0008:3TXWC2NHN0XMD7T1IW1HZCRHWLX9SK", "current_trial": 239, "dateTime": 1508954576126, "trialdata": {"rt": -1000, "stimulus": "/static/audio/wordpool/COCKTAIL.wav", "key_press": -1, "type": "PRES_AUD", "word": "cocktail", "wordID": 337, "conditions": [24, 1600, "a", 12000], "trial": 6, "serialpos": 14, "trial_type": "single-audio", "trial_index": 239, "time_elapsed": 1514551, "internal_node_id": "0.0-176.0"}}, {"uniqueid": "MTK0008:3TXWC2NHN0XMD7T1IW1HZCRHWLX9SK", "current_trial": 240, "dateTime": 1508954578837, "trialdata": {"rt": -1000, "stimulus": "/static/audio/wordpool/COUNTRY.wav", "key_press": -1, "type": "PRES_AUD", "word": "country", "wordID": 387, "conditions": [24, 1600, "a", 12000], "trial": 6, "serialpos": 15, "trial_type": "single-audio", "trial_index": 240, "time_elapsed": 1517262, "internal_node_id": "0.0-177.0"}}, {"uniqueid": "MTK0008:3TXWC2NHN0XMD7T1IW1HZCRHWLX9SK", "current_trial": 241, "dateTime": 1508954581438, "trialdata": {"rt": -1000, "stimulus": "/static/audio/wordpool/WORLD.wav", "key_press": -1, "type": "PRES_AUD", "word": "world", "wordID": 1621, "conditions": [24, 1600, "a", 12000], "trial": 6, "serialpos": 16, "trial_type": "single-audio", "trial_index": 241, "time_elapsed": 1519863, "internal_node_id": "0.0-178.0"}}, {"uniqueid": "MTK0008:3TXWC2NHN0XMD7T1IW1HZCRHWLX9SK", "current_trial": 242, "dateTime": 1508954584132, "trialdata": {"rt": -1000, "stimulus": "/static/audio/wordpool/DINER.wav", "key_press": -1, "type": "PRES_AUD", "word": "diner", "wordID": 466, "conditions": [24, 1600, "a", 12000], "trial": 6, "serialpos": 17, "trial_type": "single-audio", "trial_index": 242, "time_elapsed": 1522558, "internal_node_id": "0.0-179.0"}}, {"uniqueid": "MTK0008:3TXWC2NHN0XMD7T1IW1HZCRHWLX9SK", "current_trial": 243, "dateTime": 1508954586764, "trialdata": {"rt": -1000, "stimulus": "/static/audio/wordpool/KNIFE.wav", "key_press": -1, "type": "PRES_AUD", "word": "knife", "wordID": 784, "conditions": [24, 1600, "a", 12000], "trial": 6, "serialpos": 18, "trial_type": "single-audio", "trial_index": 243, "time_elapsed": 1525190, "internal_node_id": "0.0-180.0"}}, {"uniqueid": "MTK0008:3TXWC2NHN0XMD7T1IW1HZCRHWLX9SK", "current_trial": 244, "dateTime": 1508954589481, "trialdata": {"rt": -1000, "stimulus": "/static/audio/wordpool/IGLOO.wav", "key_press": -1, "type": "PRES_AUD", "word": "igloo", "wordID": 733, "conditions": [24, 1600, "a", 12000], "trial": 6, "serialpos": 19, "trial_type": "single-audio", "trial_index": 244, "time_elapsed": 1527907, "internal_node_id": "0.0-181.0"}}, {"uniqueid": "MTK0008:3TXWC2NHN0XMD7T1IW1HZCRHWLX9SK", "current_trial": 245, "dateTime": 1508954592018, "trialdata": {"rt": 1099.999999999909, "stimulus": "/static/audio/wordpool/SCALLOP.wav", "key_press": 32, "type": "PRES_AUD", "word": "scallop", "wordID": 1241, "conditions": [24, 1600, "a", 12000], "trial": 6, "serialpos": 20, "trial_type": "single-audio", "trial_index": 245, "time_elapsed": 1530443, "internal_node_id": "0.0-182.0"}}, {"uniqueid": "MTK0008:3TXWC2NHN0XMD7T1IW1HZCRHWLX9SK", "current_trial": 246, "dateTime": 1508954594674, "trialdata": {"rt": -1000, "stimulus": "/static/audio/wordpool/HARP.wav", "key_press": -1, "type": "PRES_AUD", "word": "harp", "wordID": 688, "conditions": [24, 1600, "a", 12000], "trial": 6, "serialpos": 21, "trial_type": "single-audio", "trial_index": 246, "time_elapsed": 1533099, "internal_node_id": "0.0-183.0"}}, {"uniqueid": "MTK0008:3TXWC2NHN0XMD7T1IW1HZCRHWLX9SK", "current_trial": 247, "dateTime": 1508954597205, "trialdata": {"rt": -1000, "stimulus": "/static/audio/wordpool/CONCERT.wav", "key_press": -1, "type": "PRES_AUD", "word": "concert", "wordID": 359, "conditions": [24, 1600, "a", 12000], "trial": 6, "serialpos": 22, "trial_type": "single-audio", "trial_index": 247, "time_elapsed": 1535630, "internal_node_id": "0.0-184.0"}}, {"uniqueid": "MTK0008:3TXWC2NHN0XMD7T1IW1HZCRHWLX9SK", "current_trial": 248, "dateTime": 1508954599659, "trialdata": {"rt": -1000, "stimulus": "/static/audio/wordpool/PIZZA.wav", "key_press": -1, "type": "PRES_AUD", "word": "pizza", "wordID": 1078, "conditions": [24, 1600, "a", 12000], "trial": 6, "serialpos": 23, "trial_type": "single-audio", "trial_index": 248, "time_elapsed": 1538085, "internal_node_id": "0.0-185.0"}}, {"uniqueid": "MTK0008:3TXWC2NHN0XMD7T1IW1HZCRHWLX9SK", "current_trial": 249, "dateTime": 1508954600937, "trialdata": {"rt": -1, "stimulus": "", "key_press": -1, "type": "PRE_RECALL_DELAY", "trial_type": "single-stim", "trial_index": 249, "time_elapsed": 1539363, "internal_node_id": "0.0-186.0-0.0"}}, {"uniqueid": "MTK0008:3TXWC2NHN0XMD7T1IW1HZCRHWLX9SK", "current_trial": 250, "dateTime": 1508954601444, "trialdata": {"rt": -1000, "stimulus": "/static/audio/400Hz.wav", "key_press": -1, "type": "PRE_RECALL_ALERT", "trial_type": "single-audio", "trial_index": 250, "time_elapsed": 1539869, "internal_node_id": "0.0-187.0"}}, {"uniqueid": "MTK0008:3TXWC2NHN0XMD7T1IW1HZCRHWLX9SK", "current_trial": 251, "dateTime": 1508954661449, "trialdata": {"rt": [4827, 7745, 11061, 13371, 16191, 18097, 20916, 26155, 29945, 31746, 35106, 39381], "recwords": ["pizza", "cheese", "rolls", "dough", "moon", "mouse", "camera", "scissors", "set", "remote", "ipad", "basketball"], "type": "FREE_RECALL", "conditions": [24, 1600, "a", 12000], "trial": 6, "trial_type": "free-recall", "trial_index": 251, "time_elapsed": 1599874, "internal_node_id": "0.0-188.0-0.0"}}, {"uniqueid": "MTK0008:3TXWC2NHN0XMD7T1IW1HZCRHWLX9SK", "current_trial": 252, "dateTime": 1508954909469, "trialdata": {"rt": 246018, "key_press": 32, "type": "INSTRUCTIONS", "trial_type": "text", "trial_index": 252, "time_elapsed": 1847894, "internal_node_id": "0.0-189.0"}}, {"uniqueid": "MTK0008:3TXWC2NHN0XMD7T1IW1HZCRHWLX9SK", "current_trial": 253, "dateTime": 1508954935477, "trialdata": {"rt": [], "responses": [], "num1": [5], "num2": [6], "num3": [4], "type": "DISTRACTOR", "conditions": [12, 1600, "v", 24000], "trial": 7, "trial_type": "math-distractor", "trial_index": 253, "time_elapsed": 1873903, "internal_node_id": "0.0-190.0"}}, {"uniqueid": "MTK0008:3TXWC2NHN0XMD7T1IW1HZCRHWLX9SK", "current_trial": 254, "dateTime": 1508954938540, "trialdata": {"rt": -1, "stimulus": "<p id=\"stim\">10</p>", "key_press": -1, "trial_type": "single-stim", "trial_index": 254, "time_elapsed": 1876966, "internal_node_id": "0.0-191.0-0.0"}}, {"uniqueid": "MTK0008:3TXWC2NHN0XMD7T1IW1HZCRHWLX9SK", "current_trial": 255, "dateTime": 1508954939542, "trialdata": {"rt": -1, "stimulus": "<p id=\"stim\">9</p>", "key_press": -1, "trial_type": "single-stim", "trial_index": 255, "time_elapsed": 1877968, "internal_node_id": "0.0-191.0-1.0"}}, {"uniqueid": "MTK0008:3TXWC2NHN0XMD7T1IW1HZCRHWLX9SK", "current_trial": 256, "dateTime": 1508954940547, "trialdata": {"rt": -1, "stimulus": "<p id=\"stim\">8</p>", "key_press": -1, "trial_type": "single-stim", "trial_index": 256, "time_elapsed": 1878972, "internal_node_id": "0.0-191.0-2.0"}}, {"uniqueid": "MTK0008:3TXWC2NHN0XMD7T1IW1HZCRHWLX9SK", "current_trial": 257, "dateTime": 1508954941550, "trialdata": {"rt": -1, "stimulus": "<p id=\"stim\">7</p>", "key_press": -1, "trial_type": "single-stim", "trial_index": 257, "time_elapsed": 1879976, "internal_node_id": "0.0-191.0-3.0"}}, {"uniqueid": "MTK0008:3TXWC2NHN0XMD7T1IW1HZCRHWLX9SK", "current_trial": 258, "dateTime": 1508954942555, "trialdata": {"rt": -1, "stimulus": "<p id=\"stim\">6</p>", "key_press": -1, "trial_type": "single-stim", "trial_index": 258, "time_elapsed": 1880981, "internal_node_id": "0.0-191.0-4.0"}}, {"uniqueid": "MTK0008:3TXWC2NHN0XMD7T1IW1HZCRHWLX9SK", "current_trial": 259, "dateTime": 1508954943653, "trialdata": {"rt": -1, "stimulus": "<p id=\"stim\">5</p>", "key_press": -1, "trial_type": "single-stim", "trial_index": 259, "time_elapsed": 1882078, "internal_node_id": "0.0-191.0-5.0"}}, {"uniqueid": "MTK0008:3TXWC2NHN0XMD7T1IW1HZCRHWLX9SK", "current_trial": 260, "dateTime": 1508954944655, "trialdata": {"rt": -1, "stimulus": "<p id=\"stim\">4</p>", "key_press": -1, "trial_type": "single-stim", "trial_index": 260, "time_elapsed": 1883081, "internal_node_id": "0.0-191.0-6.0"}}, {"uniqueid": "MTK0008:3TXWC2NHN0XMD7T1IW1HZCRHWLX9SK", "current_trial": 261, "dateTime": 1508954945667, "trialdata": {"rt": -1, "stimulus": "<p id=\"stim\">3</p>", "key_press": -1, "trial_type": "single-stim", "trial_index": 261, "time_elapsed": 1884093, "internal_node_id": "0.0-191.0-7.0"}}, {"uniqueid": "MTK0008:3TXWC2NHN0XMD7T1IW1HZCRHWLX9SK", "current_trial": 262, "dateTime": 1508954946669, "trialdata": {"rt": -1, "stimulus": "<p id=\"stim\">2</p>", "key_press": -1, "trial_type": "single-stim", "trial_index": 262, "time_elapsed": 1885094, "internal_node_id": "0.0-191.0-8.0"}}, {"uniqueid": "MTK0008:3TXWC2NHN0XMD7T1IW1HZCRHWLX9SK", "current_trial": 263, "dateTime": 1508954947670, "trialdata": {"rt": -1, "stimulus": "<p id=\"stim\">1</p>", "key_press": -1, "trial_type": "single-stim", "trial_index": 263, "time_elapsed": 1886096, "internal_node_id": "0.0-191.0-9.0"}}, {"uniqueid": "MTK0008:3TXWC2NHN0XMD7T1IW1HZCRHWLX9SK", "current_trial": 264, "dateTime": 1508954949173, "trialdata": {"rt": -1, "stimulus": "<p id=\"stim\">+</p>", "key_press": -1, "type": "FIXATION", "trial_type": "single-stim", "trial_index": 264, "time_elapsed": 1887599, "internal_node_id": "0.0-192.0-0.0"}}, {"uniqueid": "MTK0008:3TXWC2NHN0XMD7T1IW1HZCRHWLX9SK", "current_trial": 265, "dateTime": 1508954950775, "trialdata": {"rt": -1, "stimulus": "<p id=\"stim\">RELISH</p>", "key_press": -1, "type": "PRES_VIS", "word": "relish", "wordID": 1182, "conditions": [12, 1600, "v", 24000], "trial": 7, "serialpos": 0, "trial_type": "single-stim", "trial_index": 265, "time_elapsed": 1889201, "internal_node_id": "0.0-193.0"}}, {"uniqueid": "MTK0008:3TXWC2NHN0XMD7T1IW1HZCRHWLX9SK", "current_trial": 266, "dateTime": 1508954953577, "trialdata": {"rt": -1, "stimulus": "<p id=\"stim\">LETTUCE</p>", "key_press": -1, "type": "PRES_VIS", "word": "lettuce", "wordID": 813, "conditions": [12, 1600, "v", 24000], "trial": 7, "serialpos": 1, "trial_type": "single-stim", "trial_index": 266, "time_elapsed": 1892003, "internal_node_id": "0.0-194.0"}}, {"uniqueid": "MTK0008:3TXWC2NHN0XMD7T1IW1HZCRHWLX9SK", "current_trial": 267, "dateTime": 1508954956305, "trialdata": {"rt": -1, "stimulus": "<p id=\"stim\">JAPAN</p>", "key_press": -1, "type": "PRES_VIS", "word": "japan", "wordID": 748, "conditions": [12, 1600, "v", 24000], "trial": 7, "serialpos": 2, "trial_type": "single-stim", "trial_index": 267, "time_elapsed": 1894731, "internal_node_id": "0.0-195.0"}}, {"uniqueid": "MTK0008:3TXWC2NHN0XMD7T1IW1HZCRHWLX9SK", "current_trial": 268, "dateTime": 1508954958902, "trialdata": {"rt": -1, "stimulus": "<p id=\"stim\">STATUE</p>", "key_press": -1, "type": "PRES_VIS", "word": "statue", "wordID": 1373, "conditions": [12, 1600, "v", 24000], "trial": 7, "serialpos": 3, "trial_type": "single-stim", "trial_index": 268, "time_elapsed": 1897328, "internal_node_id": "0.0-196.0"}}, {"uniqueid": "MTK0008:3TXWC2NHN0XMD7T1IW1HZCRHWLX9SK", "current_trial": 269, "dateTime": 1508954961447, "trialdata": {"rt": -1, "stimulus": "<p id=\"stim\">ROBBER</p>", "key_press": -1, "type": "PRES_VIS", "word": "robber", "wordID": 1196, "conditions": [12, 1600, "v", 24000], "trial": 7, "serialpos": 4, "trial_type": "single-stim", "trial_index": 269, "time_elapsed": 1899873, "internal_node_id": "0.0-197.0"}}, {"uniqueid": "MTK0008:3TXWC2NHN0XMD7T1IW1HZCRHWLX9SK", "current_trial": 270, "dateTime": 1508954964053, "trialdata": {"rt": -1, "stimulus": "<p id=\"stim\">EUROPE</p>", "key_press": -1, "type": "PRES_VIS", "word": "europe", "wordID": 540, "conditions": [12, 1600, "v", 24000], "trial": 7, "serialpos": 5, "trial_type": "single-stim", "trial_index": 270, "time_elapsed": 1902479, "internal_node_id": "0.0-198.0"}}, {"uniqueid": "MTK0008:3TXWC2NHN0XMD7T1IW1HZCRHWLX9SK", "current_trial": 271, "dateTime": 1508954966788, "trialdata": {"rt": -1, "stimulus": "<p id=\"stim\">CABBAGE</p>", "key_press": -1, "type": "PRES_VIS", "word": "cabbage", "wordID": 209, "conditions": [12, 1600, "v", 24000], "trial": 7, "serialpos": 6, "t