{"condition": 0, "counterbalance": 2930, "assignmentId": "351SEKWQS1OVI2TDAFAX9ZB1YB8DMY", "workerId": "MTK0656", "hitId": "30QQTY5GMKRWRHZI22TVBXMFAK47UT", "currenttrial": 626, "bonus": 0, "data": [{"uniqueid": "MTK0656:351SEKWQS1OVI2TDAFAX9ZB1YB8DMY", "current_trial": 0, "dateTime": 1512581510373, "trialdata": {"rt": 3135, "key_press": 32, "type": "INSTRUCTIONS", "trial_type": "text", "trial_index": 0, "time_elapsed": 3137, "internal_node_id": "0.0-0.0"}}, {"uniqueid": "MTK0656:351SEKWQS1OVI2TDAFAX9ZB1YB8DMY", "current_trial": 1, "dateTime": 1512581556790, "trialdata": {"rt": 46416, "key_press": 32, "type": "INSTRUCTIONS", "trial_type": "text", "trial_index": 1, "time_elapsed": 49555, "internal_node_id": "0.0-1.0"}}, {"uniqueid": "MTK0656:351SEKWQS1OVI2TDAFAX9ZB1YB8DMY", "current_trial": 2, "dateTime": 1512581575173, "trialdata": {"rt": [18377], "responses": ["ocean"], "type": "AUDIO_TEST", "trial_type": "audio-test", "trial_index": 2, "time_elapsed": 67938, "internal_node_id": "0.0-2.0"}}, {"uniqueid": "MTK0656:351SEKWQS1OVI2TDAFAX9ZB1YB8DMY", "current_trial": 3, "dateTime": 1512581585838, "trialdata": {"rt": [10662], "responses": ["crystal"], "type": "AUDIO_TEST", "trial_type": "audio-test", "trial_index": 3, "time_elapsed": 78603, "internal_node_id": "0.0-3.0"}}, {"uniqueid": "MTK0656:351SEKWQS1OVI2TDAFAX9ZB1YB8DMY", "current_trial": 4, "dateTime": 1512581592554, "trialdata": {"rt": [6713], "responses": ["spice"], "type": "AUDIO_TEST", "trial_type": "audio-test", "trial_index": 4, "time_elapsed": 85319, "internal_node_id": "0.0-4.0"}}, {"uniqueid": "MTK0656:351SEKWQS1OVI2TDAFAX9ZB1YB8DMY", "current_trial": 5, "dateTime": 1512581609351, "trialdata": {"rt": 16041, "responses": "{\"Q0\":\"10\",\"Q1\":\"9\",\"Q2\":\"4\"}", "type": "SLEEP_SURVEY", "trial_type": "survey-text", "trial_index": 5, "time_elapsed": 102116, "internal_node_id": "0.0-5.0"}}, {"uniqueid": "MTK0656:351SEKWQS1OVI2TDAFAX9ZB1YB8DMY", "current_trial": 6, "dateTime": 1512581840303, "trialdata": {"rt": 229948, "key_press": 32, "type": "INSTRUCTIONS", "trial_type": "text", "trial_index": 6, "time_elapsed": 333068, "internal_node_id": "0.0-6.0"}}, {"uniqueid": "MTK0656:351SEKWQS1OVI2TDAFAX9ZB1YB8DMY", "current_trial": 7, "dateTime": 1512581850586, "trialdata": {"rt": 9780, "key_press": 32, "type": "INSTRUCTIONS", "trial_type": "text", "trial_index": 7, "time_elapsed": 343350, "internal_node_id": "0.0-7.0"}}, {"uniqueid": "MTK0656:351SEKWQS1OVI2TDAFAX9ZB1YB8DMY", "current_trial": 8, "dateTime": 1512581854421, "trialdata": {"rt": 3332, "key_press": 32, "type": "INSTRUCTIONS", "trial_type": "text", "trial_index": 8, "time_elapsed": 347186, "internal_node_id": "0.0-8.0"}}, {"uniqueid": "MTK0656:351SEKWQS1OVI2TDAFAX9ZB1YB8DMY", "current_trial": 9, "dateTime": 1512581873428, "trialdata": {"rt": [6757, 11527, 16005], "responses": ["13", "15", "17"], "num1": [6, 7, 8, 2], "num2": [5, 7, 2, 3], "num3": [2, 1, 7, 3], "type": "DISTRACTOR", "conditions": [18, 1200, "a", 18000], "trial": 0, "trial_type": "math-distractor", "trial_index": 9, "time_elapsed": 366193, "internal_node_id": "0.0-9.0"}}, {"uniqueid": "MTK0656:351SEKWQS1OVI2TDAFAX9ZB1YB8DMY", "current_trial": 10, "dateTime": 1512581876436, "trialdata": {"rt": -1, "stimulus": "<p id=\"stim\">10</p>", "key_press": -1, "trial_type": "single-stim", "trial_index": 10, "time_elapsed": 369201, "internal_node_id": "0.0-10.0-0.0"}}, {"uniqueid": "MTK0656:351SEKWQS1OVI2TDAFAX9ZB1YB8DMY", "current_trial": 11, "dateTime": 1512581877439, "trialdata": {"rt": -1, "stimulus": "<p id=\"stim\">9</p>", "key_press": -1, "trial_type": "single-stim", "trial_index": 11, "time_elapsed": 370203, "internal_node_id": "0.0-10.0-1.0"}}, {"uniqueid": "MTK0656:351SEKWQS1OVI2TDAFAX9ZB1YB8DMY", "current_trial": 12, "dateTime": 1512581878442, "trialdata": {"rt": -1, "stimulus": "<p id=\"stim\">8</p>", "key_press": -1, "trial_type": "single-stim", "trial_index": 12, "time_elapsed": 371207, "internal_node_id": "0.0-10.0-2.0"}}, {"uniqueid": "MTK0656:351SEKWQS1OVI2TDAFAX9ZB1YB8DMY", "current_trial": 13, "dateTime": 1512581879446, "trialdata": {"rt": -1, "stimulus": "<p id=\"stim\">7</p>", "key_press": -1, "trial_type": "single-stim", "trial_index": 13, "time_elapsed": 372211, "internal_node_id": "0.0-10.0-3.0"}}, {"uniqueid": "MTK0656:351SEKWQS1OVI2TDAFAX9ZB1YB8DMY", "current_trial": 14, "dateTime": 1512581880450, "trialdata": {"rt": -1, "stimulus": "<p id=\"stim\">6</p>", "key_press": -1, "trial_type": "single-stim", "trial_index": 14, "time_elapsed": 373215, "internal_node_id": "0.0-10.0-4.0"}}, {"uniqueid": "MTK0656:351SEKWQS1OVI2TDAFAX9ZB1YB8DMY", "current_trial": 15, "dateTime": 1512581881454, "trialdata": {"rt": -1, "stimulus": "<p id=\"stim\">5</p>", "key_press": -1, "trial_type": "single-stim", "trial_index": 15, "time_elapsed": 374219, "internal_node_id": "0.0-10.0-5.0"}}, {"uniqueid": "MTK0656:351SEKWQS1OVI2TDAFAX9ZB1YB8DMY", "current_trial": 16, "dateTime": 1512581882458, "trialdata": {"rt": -1, "stimulus": "<p id=\"stim\">4</p>", "key_press": -1, "trial_type": "single-stim", "trial_index": 16, "time_elapsed": 375223, "internal_node_id": "0.0-10.0-6.0"}}, {"uniqueid": "MTK0656:351SEKWQS1OVI2TDAFAX9ZB1YB8DMY", "current_trial": 17, "dateTime": 1512581883463, "trialdata": {"rt": -1, "stimulus": "<p id=\"stim\">3</p>", "key_press": -1, "trial_type": "single-stim", "trial_index": 17, "time_elapsed": 376227, "internal_node_id": "0.0-10.0-7.0"}}, {"uniqueid": "MTK0656:351SEKWQS1OVI2TDAFAX9ZB1YB8DMY", "current_trial": 18, "dateTime": 1512581884466, "trialdata": {"rt": -1, "stimulus": "<p id=\"stim\">2</p>", "key_press": -1, "trial_type": "single-stim", "trial_index": 18, "time_elapsed": 377231, "internal_node_id": "0.0-10.0-8.0"}}, {"uniqueid": "MTK0656:351SEKWQS1OVI2TDAFAX9ZB1YB8DMY", "current_trial": 19, "dateTime": 1512581885470, "trialdata": {"rt": -1, "stimulus": "<p id=\"stim\">1</p>", "key_press": -1, "trial_type": "single-stim", "trial_index": 19, "time_elapsed": 378235, "internal_node_id": "0.0-10.0-9.0"}}, {"uniqueid": "MTK0656:351SEKWQS1OVI2TDAFAX9ZB1YB8DMY", "current_trial": 20, "dateTime": 1512581886974, "trialdata": {"rt": -1, "stimulus": "<p id=\"stim\">+</p>", "key_press": -1, "type": "FIXATION", "trial_type": "single-stim", "trial_index": 20, "time_elapsed": 379739, "internal_node_id": "0.0-11.0-0.0"}}, {"uniqueid": "MTK0656:351SEKWQS1OVI2TDAFAX9ZB1YB8DMY", "current_trial": 21, "dateTime": 1512581888998, "trialdata": {"rt": -1000, "stimulus": "/static/audio/wordpool/LIVER.wav", "key_press": -1, "type": "PRES_AUD", "word": "liver", "wordID": 832, "conditions": [18, 1200, "a", 18000], "trial": 0, "serialpos": 0, "trial_type": "single-audio", "trial_index": 21, "time_elapsed": 381763, "internal_node_id": "0.0-12.0"}}, {"uniqueid": "MTK0656:351SEKWQS1OVI2TDAFAX9ZB1YB8DMY", "current_trial": 22, "dateTime": 1512581891351, "trialdata": {"rt": -1000, "stimulus": "/static/audio/wordpool/TILE.wav", "key_press": -1, "type": "PRES_AUD", "word": "tile", "wordID": 1467, "conditions": [18, 1200, "a", 18000], "trial": 0, "serialpos": 1, "trial_type": "single-audio", "trial_index": 22, "time_elapsed": 384116, "internal_node_id": "0.0-13.0"}}, {"uniqueid": "MTK0656:351SEKWQS1OVI2TDAFAX9ZB1YB8DMY", "current_trial": 23, "dateTime": 1512581893382, "trialdata": {"rt": -1000, "stimulus": "/static/audio/wordpool/BROTHER.wav", "key_press": -1, "type": "PRES_AUD", "word": "brother", "wordID": 178, "conditions": [18, 1200, "a", 18000], "trial": 0, "serialpos": 2, "trial_type": "single-audio", "trial_index": 23, "time_elapsed": 386147, "internal_node_id": "0.0-14.0"}}, {"uniqueid": "MTK0656:351SEKWQS1OVI2TDAFAX9ZB1YB8DMY", "current_trial": 24, "dateTime": 1512581895739, "trialdata": {"rt": -1000, "stimulus": "/static/audio/wordpool/BISON.wav", "key_press": -1, "type": "PRES_AUD", "word": "bison", "wordID": 130, "conditions": [18, 1200, "a", 18000], "trial": 0, "serialpos": 3, "trial_type": "single-audio", "trial_index": 24, "time_elapsed": 388504, "internal_node_id": "0.0-15.0"}}, {"uniqueid": "MTK0656:351SEKWQS1OVI2TDAFAX9ZB1YB8DMY", "current_trial": 25, "dateTime": 1512581897841, "trialdata": {"rt": -1000, "stimulus": "/static/audio/wordpool/TUTU.wav", "key_press": -1, "type": "PRES_AUD", "word": "tutu", "wordID": 1523, "conditions": [18, 1200, "a", 18000], "trial": 0, "serialpos": 4, "trial_type": "single-audio", "trial_index": 25, "time_elapsed": 390606, "internal_node_id": "0.0-16.0"}}, {"uniqueid": "MTK0656:351SEKWQS1OVI2TDAFAX9ZB1YB8DMY", "current_trial": 26, "dateTime": 1512581900203, "trialdata": {"rt": -1000, "stimulus": "/static/audio/wordpool/SILK.wav", "key_press": -1, "type": "PRES_AUD", "word": "silk", "wordID": 1306, "conditions": [18, 1200, "a", 18000], "trial": 0, "serialpos": 5, "trial_type": "single-audio", "trial_index": 26, "time_elapsed": 392968, "internal_node_id": "0.0-17.0"}}, {"uniqueid": "MTK0656:351SEKWQS1OVI2TDAFAX9ZB1YB8DMY", "current_trial": 27, "dateTime": 1512581902304, "trialdata": {"rt": -1000, "stimulus": "/static/audio/wordpool/JUGGLER.wav", "key_press": -1, "type": "PRES_AUD", "word": "juggler", "wordID": 762, "conditions": [18, 1200, "a", 18000], "trial": 0, "serialpos": 6, "trial_type": "single-audio", "trial_index": 27, "time_elapsed": 395069, "internal_node_id": "0.0-18.0"}}, {"uniqueid": "MTK0656:351SEKWQS1OVI2TDAFAX9ZB1YB8DMY", "current_trial": 28, "dateTime": 1512581904691, "trialdata": {"rt": -1000, "stimulus": "/static/audio/wordpool/COOKBOOK.wav", "key_press": -1, "type": "PRES_AUD", "word": "cookbook", "wordID": 372, "conditions": [18, 1200, "a", 18000], "trial": 0, "serialpos": 7, "trial_type": "single-audio", "trial_index": 28, "time_elapsed": 397456, "internal_node_id": "0.0-19.0"}}, {"uniqueid": "MTK0656:351SEKWQS1OVI2TDAFAX9ZB1YB8DMY", "current_trial": 29, "dateTime": 1512581907000, "trialdata": {"rt": -1000, "stimulus": "/static/audio/wordpool/STREAM.wav", "key_press": -1, "type": "PRES_AUD", "word": "stream", "wordID": 1391, "conditions": [18, 1200, "a", 18000], "trial": 0, "serialpos": 8, "trial_type": "single-audio", "trial_index": 29, "time_elapsed": 399765, "internal_node_id": "0.0-20.0"}}, {"uniqueid": "MTK0656:351SEKWQS1OVI2TDAFAX9ZB1YB8DMY", "current_trial": 30, "dateTime": 1512581909090, "trialdata": {"rt": -1000, "stimulus": "/static/audio/wordpool/FOOTBALL.wav", "key_press": -1, "type": "PRES_AUD", "word": "football", "wordID": 590, "conditions": [18, 1200, "a", 18000], "trial": 0, "serialpos": 9, "trial_type": "single-audio", "trial_index": 30, "time_elapsed": 401855, "internal_node_id": "0.0-21.0"}}, {"uniqueid": "MTK0656:351SEKWQS1OVI2TDAFAX9ZB1YB8DMY", "current_trial": 31, "dateTime": 1512581911348, "trialdata": {"rt": -1000, "stimulus": "/static/audio/wordpool/MARKER.wav", "key_press": -1, "type": "PRES_AUD", "word": "marker", "wordID": 869, "conditions": [18, 1200, "a", 18000], "trial": 0, "serialpos": 10, "trial_type": "single-audio", "trial_index": 31, "time_elapsed": 404113, "internal_node_id": "0.0-22.0"}}, {"uniqueid": "MTK0656:351SEKWQS1OVI2TDAFAX9ZB1YB8DMY", "current_trial": 32, "dateTime": 1512581913455, "trialdata": {"rt": -1000, "stimulus": "/static/audio/wordpool/CONVICT.wav", "key_press": -1, "type": "PRES_AUD", "word": "convict", "wordID": 370, "conditions": [18, 1200, "a", 18000], "trial": 0, "serialpos": 11, "trial_type": "single-audio", "trial_index": 32, "time_elapsed": 406220, "internal_node_id": "0.0-23.0"}}, {"uniqueid": "MTK0656:351SEKWQS1OVI2TDAFAX9ZB1YB8DMY", "current_trial": 33, "dateTime": 1512581915788, "trialdata": {"rt": -1000, "stimulus": "/static/audio/wordpool/POWDER.wav", "key_press": -1, "type": "PRES_AUD", "word": "powder", "wordID": 1116, "conditions": [18, 1200, "a", 18000], "trial": 0, "serialpos": 12, "trial_type": "single-audio", "trial_index": 33, "time_elapsed": 408553, "internal_node_id": "0.0-24.0"}}, {"uniqueid": "MTK0656:351SEKWQS1OVI2TDAFAX9ZB1YB8DMY", "current_trial": 34, "dateTime": 1512581918057, "trialdata": {"rt": -1000, "stimulus": "/static/audio/wordpool/WASHER.wav", "key_press": -1, "type": "PRES_AUD", "word": "washer", "wordID": 1591, "conditions": [18, 1200, "a", 18000], "trial": 0, "serialpos": 13, "trial_type": "single-audio", "trial_index": 34, "time_elapsed": 410822, "internal_node_id": "0.0-25.0"}}, {"uniqueid": "MTK0656:351SEKWQS1OVI2TDAFAX9ZB1YB8DMY", "current_trial": 35, "dateTime": 1512581920127, "trialdata": {"rt": -1000, "stimulus": "/static/audio/wordpool/DONOR.wav", "key_press": -1, "type": "PRES_AUD", "word": "donor", "wordID": 484, "conditions": [18, 1200, "a", 18000], "trial": 0, "serialpos": 14, "trial_type": "single-audio", "trial_index": 35, "time_elapsed": 412892, "internal_node_id": "0.0-26.0"}}, {"uniqueid": "MTK0656:351SEKWQS1OVI2TDAFAX9ZB1YB8DMY", "current_trial": 36, "dateTime": 1512581922287, "trialdata": {"rt": -1000, "stimulus": "/static/audio/wordpool/TROMBONE.wav", "key_press": -1, "type": "PRES_AUD", "word": "trombone", "wordID": 1507, "conditions": [18, 1200, "a", 18000], "trial": 0, "serialpos": 15, "trial_type": "single-audio", "trial_index": 36, "time_elapsed": 415052, "internal_node_id": "0.0-27.0"}}, {"uniqueid": "MTK0656:351SEKWQS1OVI2TDAFAX9ZB1YB8DMY", "current_trial": 37, "dateTime": 1512581924673, "trialdata": {"rt": -1000, "stimulus": "/static/audio/wordpool/CLIMBER.wav", "key_press": -1, "type": "PRES_AUD", "word": "climber", "wordID": 322, "conditions": [18, 1200, "a", 18000], "trial": 0, "serialpos": 16, "trial_type": "single-audio", "trial_index": 37, "time_elapsed": 417438, "internal_node_id": "0.0-28.0"}}, {"uniqueid": "MTK0656:351SEKWQS1OVI2TDAFAX9ZB1YB8DMY", "current_trial": 38, "dateTime": 1512581926835, "trialdata": {"rt": -1000, "stimulus": "/static/audio/wordpool/BLADE.wav", "key_press": -1, "type": "PRES_AUD", "word": "blade", "wordID": 133, "conditions": [18, 1200, "a", 18000], "trial": 0, "serialpos": 17, "trial_type": "single-audio", "trial_index": 38, "time_elapsed": 419600, "internal_node_id": "0.0-29.0"}}, {"uniqueid": "MTK0656:351SEKWQS1OVI2TDAFAX9ZB1YB8DMY", "current_trial": 39, "dateTime": 1512581928089, "trialdata": {"rt": -1, "stimulus": "", "key_press": -1, "type": "PRE_RECALL_DELAY", "trial_type": "single-stim", "trial_index": 39, "time_elapsed": 420854, "internal_node_id": "0.0-30.0-0.0"}}, {"uniqueid": "MTK0656:351SEKWQS1OVI2TDAFAX9ZB1YB8DMY", "current_trial": 40, "dateTime": 1512581928590, "trialdata": {"rt": -1000, "stimulus": "/static/audio/400Hz.wav", "key_press": -1, "type": "PRE_RECALL_ALERT", "trial_type": "single-audio", "trial_index": 40, "time_elapsed": 421355, "internal_node_id": "0.0-31.0"}}, {"uniqueid": "MTK0656:351SEKWQS1OVI2TDAFAX9ZB1YB8DMY", "current_trial": 41, "dateTime": 1512581988591, "trialdata": {"rt": [5492, 9677, 11905, 15347, 24494, 42585, 43338, 43698, 43911, 44091, 44249, 44418, 44609, 44811], "recwords": ["bison", "trombone", "liver", "silk", "brother", "", "", "", "", "", "", "", "", ""], "type": "FREE_RECALL", "conditions": [18, 1200, "a", 18000], "trial": 0, "trial_type": "free-recall", "trial_index": 41, "time_elapsed": 481355, "internal_node_id": "0.0-32.0-0.0"}}, {"uniqueid": "MTK0656:351SEKWQS1OVI2TDAFAX9ZB1YB8DMY", "current_trial": 42, "dateTime": 1512581993597, "trialdata": {"rt": 3002, "key_press": 32, "type": "INSTRUCTIONS", "trial_type": "text", "trial_index": 42, "time_elapsed": 486362, "internal_node_id": "0.0-33.0"}}, {"uniqueid": "MTK0656:351SEKWQS1OVI2TDAFAX9ZB1YB8DMY", "current_trial": 43, "dateTime": 1512582013602, "trialdata": {"rt": [5737, 7796, 9439, 11711, 14377], "responses": ["19", "12", "11", "10", "13"], "num1": [3, 5, 2, 7, 5, 9], "num2": [9, 5, 8, 2, 3, 9], "num3": [7, 2, 1, 1, 5, 3], "type": "DISTRACTOR", "conditions": [18, 1200, "v", 18000], "trial": 1, "trial_type": "math-distractor", "trial_index": 43, "time_elapsed": 506367, "internal_node_id": "0.0-34.0"}}, {"uniqueid": "MTK0656:351SEKWQS1OVI2TDAFAX9ZB1YB8DMY", "current_trial": 44, "dateTime": 1512582016608, "trialdata": {"rt": -1, "stimulus": "<p id=\"stim\">10</p>", "key_press": -1, "trial_type": "single-stim", "trial_index": 44, "time_elapsed": 509373, "internal_node_id": "0.0-35.0-0.0"}}, {"uniqueid": "MTK0656:351SEKWQS1OVI2TDAFAX9ZB1YB8DMY", "current_trial": 45, "dateTime": 1512582017613, "trialdata": {"rt": -1, "stimulus": "<p id=\"stim\">9</p>", "key_press": -1, "trial_type": "single-stim", "trial_index": 45, "time_elapsed": 510377, "internal_node_id": "0.0-35.0-1.0"}}, {"uniqueid": "MTK0656:351SEKWQS1OVI2TDAFAX9ZB1YB8DMY", "current_trial": 46, "dateTime": 1512582018616, "trialdata": {"rt": -1, "stimulus": "<p id=\"stim\">8</p>", "key_press": -1, "trial_type": "single-stim", "trial_index": 46, "time_elapsed": 511381, "internal_node_id": "0.0-35.0-2.0"}}, {"uniqueid": "MTK0656:351SEKWQS1OVI2TDAFAX9ZB1YB8DMY", "current_trial": 47, "dateTime": 1512582019620, "trialdata": {"rt": -1, "stimulus": "<p id=\"stim\">7</p>", "key_press": -1, "trial_type": "single-stim", "trial_index": 47, "time_elapsed": 512385, "internal_node_id": "0.0-35.0-3.0"}}, {"uniqueid": "MTK0656:351SEKWQS1OVI2TDAFAX9ZB1YB8DMY", "current_trial": 48, "dateTime": 1512582020624, "trialdata": {"rt": -1, "stimulus": "<p id=\"stim\">6</p>", "key_press": -1, "trial_type": "single-stim", "trial_index": 48, "time_elapsed": 513389, "internal_node_id": "0.0-35.0-4.0"}}, {"uniqueid": "MTK0656:351SEKWQS1OVI2TDAFAX9ZB1YB8DMY", "current_trial": 49, "dateTime": 1512582021628, "trialdata": {"rt": -1, "stimulus": "<p id=\"stim\">5</p>", "key_press": -1, "trial_type": "single-stim", "trial_index": 49, "time_elapsed": 514393, "internal_node_id": "0.0-35.0-5.0"}}, {"uniqueid": "MTK0656:351SEKWQS1OVI2TDAFAX9ZB1YB8DMY", "current_trial": 50, "dateTime": 1512582022632, "trialdata": {"rt": -1, "stimulus": "<p id=\"stim\">4</p>", "key_press": -1, "trial_type": "single-stim", "trial_index": 50, "time_elapsed": 515397, "internal_node_id": "0.0-35.0-6.0"}}, {"uniqueid": "MTK0656:351SEKWQS1OVI2TDAFAX9ZB1YB8DMY", "current_trial": 51, "dateTime": 1512582023636, "trialdata": {"rt": -1, "stimulus": "<p id=\"stim\">3</p>", "key_press": -1, "trial_type": "single-stim", "trial_index": 51, "time_elapsed": 516401, "internal_node_id": "0.0-35.0-7.0"}}, {"uniqueid": "MTK0656:351SEKWQS1OVI2TDAFAX9ZB1YB8DMY", "current_trial": 52, "dateTime": 1512582024640, "trialdata": {"rt": -1, "stimulus": "<p id=\"stim\">2</p>", "key_press": -1, "trial_type": "single-stim", "trial_index": 52, "time_elapsed": 517405, "internal_node_id": "0.0-35.0-8.0"}}, {"uniqueid": "MTK0656:351SEKWQS1OVI2TDAFAX9ZB1YB8DMY", "current_trial": 53, "dateTime": 1512582025645, "trialdata": {"rt": -1, "stimulus": "<p id=\"stim\">1</p>", "key_press": -1, "trial_type": "single-stim", "trial_index": 53, "time_elapsed": 518409, "internal_node_id": "0.0-35.0-9.0"}}, {"uniqueid": "MTK0656:351SEKWQS1OVI2TDAFAX9ZB1YB8DMY", "current_trial": 54, "dateTime": 1512582027148, "trialdata": {"rt": -1, "stimulus": "<p id=\"stim\">+</p>", "key_press": -1, "type": "FIXATION", "trial_type": "single-stim", "trial_index": 54, "time_elapsed": 519913, "internal_node_id": "0.0-36.0-0.0"}}, {"uniqueid": "MTK0656:351SEKWQS1OVI2TDAFAX9ZB1YB8DMY", "current_trial": 55, "dateTime": 1512582028349, "trialdata": {"rt": -1, "stimulus": "<p id=\"stim\">GARLIC</p>", "key_press": -1, "type": "PRES_VIS", "word": "garlic", "wordID": 623, "conditions": [18, 1200, "v", 18000], "trial": 1, "serialpos": 0, "trial_type": "single-stim", "trial_index": 55, "time_elapsed": 521114, "internal_node_id": "0.0-37.0"}}, {"uniqueid": "MTK0656:351SEKWQS1OVI2TDAFAX9ZB1YB8DMY", "current_trial": 56, "dateTime": 1512582030671, "trialdata": {"rt": -1, "stimulus": "<p id=\"stim\">PADDING</p>", "key_press": -1, "type": "PRES_VIS", "word": "padding", "wordID": 998, "conditions": [18, 1200, "v", 18000], "trial": 1, "serialpos": 1, "trial_type": "single-stim", "trial_index": 56, "time_elapsed": 523435, "internal_node_id": "0.0-38.0"}}, {"uniqueid": "MTK0656:351SEKWQS1OVI2TDAFAX9ZB1YB8DMY", "current_trial": 57, "dateTime": 1512582032859, "trialdata": {"rt": -1, "stimulus": "<p id=\"stim\">BRANDY</p>", "key_press": -1, "type": "PRES_VIS", "word": "brandy", "wordID": 168, "conditions": [18, 1200, "v", 18000], "trial": 1, "serialpos": 2, "trial_type": "single-stim", "trial_index": 57, "time_elapsed": 525624, "internal_node_id": "0.0-39.0"}}, {"uniqueid": "MTK0656:351SEKWQS1OVI2TDAFAX9ZB1YB8DMY", "current_trial": 58, "dateTime": 1512582034971, "trialdata": {"rt": -1, "stimulus": "<p id=\"stim\">RATTLE</p>", "key_press": -1, "type": "PRES_VIS", "word": "rattle", "wordID": 1169, "conditions": [18, 1200, "v", 18000], "trial": 1, "serialpos": 3, "trial_type": "single-stim", "trial_index": 58, "time_elapsed": 527736, "internal_node_id": "0.0-40.0"}}, {"uniqueid": "MTK0656:351SEKWQS1OVI2TDAFAX9ZB1YB8DMY", "current_trial": 59, "dateTime": 1512582036996, "trialdata": {"rt": -1, "stimulus": "<p id=\"stim\">FOX</p>", "key_press": -1, "type": "PRES_VIS", "word": "fox", "wordID": 597, "conditions": [18, 1200, "v", 18000], "trial": 1, "serialpos": 4, "trial_type": "single-stim", "trial_index": 59, "time_elapsed": 529761, "internal_node_id": "0.0-41.0"}}, {"uniqueid": "MTK0656:351SEKWQS1OVI2TDAFAX9ZB1YB8DMY", "current_trial": 60, "dateTime": 1512582039191, "trialdata": {"rt": -1, "stimulus": "<p id=\"stim\">STUDENT</p>", "key_press": -1, "type": "PRES_VIS", "word": "student", "wordID": 1394, "conditions": [18, 1200, "v", 18000], "trial": 1, "serialpos": 5, "trial_type": "single-stim", "trial_index": 60, "time_elapsed": 531955, "internal_node_id": "0.0-42.0"}}, {"uniqueid": "MTK0656:351SEKWQS1OVI2TDAFAX9ZB1YB8DMY", "current_trial": 61, "dateTime": 1512582041222, "trialdata": {"rt": -1, "stimulus": "<p id=\"stim\">CLAMP</p>", "key_press": -1, "type": "PRES_VIS", "word": "clamp", "wordID": 315, "conditions": [18, 1200, "v", 18000], "trial": 1, "serialpos": 6, "trial_type": "single-stim", "trial_index": 61, "time_elapsed": 533987, "internal_node_id": "0.0-43.0"}}, {"uniqueid": "MTK0656:351SEKWQS1OVI2TDAFAX9ZB1YB8DMY", "current_trial": 62, "dateTime": 1512582043596, "trialdata": {"rt": -1, "stimulus": "<p id=\"stim\">COSTUME</p>", "key_press": -1, "type": "PRES_VIS", "word": "costume", "wordID": 382, "conditions": [18, 1200, "v", 18000], "trial": 1, "serialpos": 7, "trial_type": "single-stim", "trial_index": 62, "time_elapsed": 536361, "internal_node_id": "0.0-44.0"}}, {"uniqueid": "MTK0656:351SEKWQS1OVI2TDAFAX9ZB1YB8DMY", "current_trial": 63, "dateTime": 1512582045952, "trialdata": {"rt": -1, "stimulus": "<p id=\"stim\">SADDLE</p>", "key_press": -1, "type": "PRES_VIS", "word": "saddle", "wordID": 1220, "conditions": [18, 1200, "v", 18000], "trial": 1, "serialpos": 8, "trial_type": "single-stim", "trial_index": 63, "time_elapsed": 538717, "internal_node_id": "0.0-45.0"}}, {"uniqueid": "MTK0656:351SEKWQS1OVI2TDAFAX9ZB1YB8DMY", "current_trial": 64, "dateTime": 1512582048117, "trialdata": {"rt": -1, "stimulus": "<p id=\"stim\">PLAYGROUND</p>", "key_press": -1, "type": "PRES_VIS", "word": "playground", "wordID": 1086, "conditions": [18, 1200, "v", 18000], "trial": 1, "serialpos": 9, "trial_type": "single-stim", "trial_index": 64, "time_elapsed": 540882, "internal_node_id": "0.0-46.0"}}, {"uniqueid": "MTK0656:351SEKWQS1OVI2TDAFAX9ZB1YB8DMY", "current_trial": 65, "dateTime": 1512582050490, "trialdata": {"rt": -1, "stimulus": "<p id=\"stim\">BRICK</p>", "key_press": -1, "type": "PRES_VIS", "word": "brick", "wordID": 171, "conditions": [18, 1200, "v", 18000], "trial": 1, "serialpos": 10, "trial_type": "single-stim", "trial_index": 65, "time_elapsed": 543255, "internal_node_id": "0.0-47.0"}}, {"uniqueid": "MTK0656:351SEKWQS1OVI2TDAFAX9ZB1YB8DMY", "current_trial": 66, "dateTime": 1512582052591, "trialdata": {"rt": -1, "stimulus": "<p id=\"stim\">TABLE</p>", "key_press": -1, "type": "PRES_VIS", "word": "table", "wordID": 1425, "conditions": [18, 1200, "v", 18000], "trial": 1, "serialpos": 11, "trial_type": "single-stim", "trial_index": 66, "time_elapsed": 545356, "internal_node_id": "0.0-48.0"}}, {"uniqueid": "MTK0656:351SEKWQS1OVI2TDAFAX9ZB1YB8DMY", "current_trial": 67, "dateTime": 1512582054837, "trialdata": {"rt": -1, "stimulus": "<p id=\"stim\">WORKER</p>", "key_press": -1, "type": "PRES_VIS", "word": "worker", "wordID": 1620, "conditions": [18, 1200, "v", 18000], "trial": 1, "serialpos": 12, "trial_type": "single-stim", "trial_index": 67, "time_elapsed": 547602, "internal_node_id": "0.0-49.0"}}, {"uniqueid": "MTK0656:351SEKWQS1OVI2TDAFAX9ZB1YB8DMY", "current_trial": 68, "dateTime": 1512582057073, "trialdata": {"rt": -1, "stimulus": "<p id=\"stim\">ANTLER</p>", "key_press": -1, "type": "PRES_VIS", "word": "antler", "wordID": 28, "conditions": [18, 1200, "v", 18000], "trial": 1, "serialpos": 13, "trial_type": "single-stim", "trial_index": 68, "time_elapsed": 549837, "internal_node_id": "0.0-50.0"}}, {"uniqueid": "MTK0656:351SEKWQS1OVI2TDAFAX9ZB1YB8DMY", "current_trial": 69, "dateTime": 1512582059399, "trialdata": {"rt": -1, "stimulus": "<p id=\"stim\">BIKE</p>", "key_press": -1, "type": "PRES_VIS", "word": "bike", "wordID": 124, "conditions": [18, 1200, "v", 18000], "trial": 1, "serialpos": 14, "trial_type": "single-stim", "trial_index": 69, "time_elapsed": 552164, "internal_node_id": "0.0-51.0"}}, {"uniqueid": "MTK0656:351SEKWQS1OVI2TDAFAX9ZB1YB8DMY", "current_trial": 70, "dateTime": 1512582061489, "trialdata": {"rt": -1, "stimulus": "<p id=\"stim\">DOUGHNUT</p>", "key_press": -1, "type": "PRES_VIS", "word": "doughnut", "wordID": 489, "conditions": [18, 1200, "v", 18000], "trial": 1, "serialpos": 15, "trial_type": "single-stim", "trial_index": 70, "time_elapsed": 554253, "internal_node_id": "0.0-52.0"}}, {"uniqueid": "MTK0656:351SEKWQS1OVI2TDAFAX9ZB1YB8DMY", "current_trial": 71, "dateTime": 1512582063659, "trialdata": {"rt": -1, "stimulus": "<p id=\"stim\">SUNRISE</p>", "key_press": -1, "type": "PRES_VIS", "word": "sunrise", "wordID": 1406, "conditions": [18, 1200, "v", 18000], "trial": 1, "serialpos": 16, "trial_type": "single-stim", "trial_index": 71, "time_elapsed": 556424, "internal_node_id": "0.0-53.0"}}, {"uniqueid": "MTK0656:351SEKWQS1OVI2TDAFAX9ZB1YB8DMY", "current_trial": 72, "dateTime": 1512582065963, "trialdata": {"rt": -1, "stimulus": "<p id=\"stim\">ELBOW</p>", "key_press": -1, "type": "PRES_VIS", "word": "elbow", "wordID": 519, "conditions": [18, 1200, "v", 18000], "trial": 1, "serialpos": 17, "trial_type": "single-stim", "trial_index": 72, "time_elapsed": 558728, "internal_node_id": "0.0-54.0"}}, {"uniqueid": "MTK0656:351SEKWQS1OVI2TDAFAX9ZB1YB8DMY", "current_trial": 73, "dateTime": 1512582068482, "trialdata": {"rt": -1, "stimulus": "", "key_press": -1, "type": "PRE_RECALL_DELAY", "trial_type": "single-stim", "trial_index": 73, "time_elapsed": 561247, "internal_node_id": "0.0-55.0-0.0"}}, {"uniqueid": "MTK0656:351SEKWQS1OVI2TDAFAX9ZB1YB8DMY", "current_trial": 74, "dateTime": 1512582068983, "trialdata": {"rt": -1000, "stimulus": "/static/audio/400Hz.wav", "key_press": -1, "type": "PRE_RECALL_ALERT", "trial_type": "single-audio", "trial_index": 74, "time_elapsed": 561748, "internal_node_id": "0.0-56.0"}}, {"uniqueid": "MTK0656:351SEKWQS1OVI2TDAFAX9ZB1YB8DMY", "current_trial": 75, "dateTime": 1512582128989, "trialdata": {"rt": [11407, 20812, 26448, 33817, 43447, 48757, 55181], "recwords": ["clamp", "costume", "saddle", "playground", "brick", "table", "worker"], "type": "FREE_RECALL", "conditions": [18, 1200, "v", 18000], "trial": 1, "trial_type": "free-recall", "trial_index": 75, "time_elapsed": 621752, "internal_node_id": "0.0-57.0-0.0"}}, {"uniqueid": "MTK0656:351SEKWQS1OVI2TDAFAX9ZB1YB8DMY", "current_trial": 76, "dateTime": 1512582142337, "trialdata": {"rt": 11344, "key_press": 32, "type": "INSTRUCTIONS", "trial_type": "text", "trial_index": 76, "time_elapsed": 635099, "internal_node_id": "0.0-58.0"}}, {"uniqueid": "MTK0656:351SEKWQS1OVI2TDAFAX9ZB1YB8DMY", "current_trial": 77, "dateTime": 1512582155342, "trialdata": {"rt": [4472, 8005], "responses": ["14", "15"], "num1": [3, 6, 9], "num2": [4, 1, 7], "num3": [7, 8, 1], "type": "DISTRACTOR", "conditions": [12, 1600, "a", 12000], "trial": 2, "trial_type": "math-distractor", "trial_index": 77, "time_elapsed": 648107, "internal_node_id": "0.0-59.0"}}, {"uniqueid": "MTK0656:351SEKWQS1OVI2TDAFAX9ZB1YB8DMY", "current_trial": 78, "dateTime": 1512582158348, "trialdata": {"rt": -1, "stimulus": "<p id=\"stim\">10</p>", "key_press": -1, "trial_type": "single-stim", "trial_index": 78, "time_elapsed": 651113, "internal_node_id": "0.0-60.0-0.0"}}, {"uniqueid": "MTK0656:351SEKWQS1OVI2TDAFAX9ZB1YB8DMY", "current_trial": 79, "dateTime": 1512582159352, "trialdata": {"rt": -1, "stimulus": "<p id=\"stim\">9</p>", "key_press": -1, "trial_type": "single-stim", "trial_index": 79, "time_elapsed": 652117, "internal_node_id": "0.0-60.0-1.0"}}, {"uniqueid": "MTK0656:351SEKWQS1OVI2TDAFAX9ZB1YB8DMY", "current_trial": 80, "dateTime": 1512582160356, "trialdata": {"rt": -1, "stimulus": "<p id=\"stim\">8</p>", "key_press": -1, "trial_type": "single-stim", "trial_index": 80, "time_elapsed": 653120, "internal_node_id": "0.0-60.0-2.0"}}, {"uniqueid": "MTK0656:351SEKWQS1OVI2TDAFAX9ZB1YB8DMY", "current_trial": 81, "dateTime": 1512582161360, "trialdata": {"rt": -1, "stimulus": "<p id=\"stim\">7</p>", "key_press": -1, "trial_type": "single-stim", "trial_index": 81, "time_elapsed": 654125, "internal_node_id": "0.0-60.0-3.0"}}, {"uniqueid": "MTK0656:351SEKWQS1OVI2TDAFAX9ZB1YB8DMY", "current_trial": 82, "dateTime": 1512582162364, "trialdata": {"rt": -1, "stimulus": "<p id=\"stim\">6</p>", "key_press": -1, "trial_type": "single-stim", "trial_index": 82, "time_elapsed": 655129, "internal_node_id": "0.0-60.0-4.0"}}, {"uniqueid": "MTK0656:351SEKWQS1OVI2TDAFAX9ZB1YB8DMY", "current_trial": 83, "dateTime": 1512582163368, "trialdata": {"rt": -1, "stimulus": "<p id=\"stim\">5</p>", "key_press": -1, "trial_type": "single-stim", "trial_index": 83, "time_elapsed": 656133, "internal_node_id": "0.0-60.0-5.0"}}, {"uniqueid": "MTK0656:351SEKWQS1OVI2TDAFAX9ZB1YB8DMY", "current_trial": 84, "dateTime": 1512582164372, "trialdata": {"rt": -1, "stimulus": "<p id=\"stim\">4</p>", "key_press": -1, "trial_type": "single-stim", "trial_index": 84, "time_elapsed": 657137, "internal_node_id": "0.0-60.0-6.0"}}, {"uniqueid": "MTK0656:351SEKWQS1OVI2TDAFAX9ZB1YB8DMY", "current_trial": 85, "dateTime": 1512582165376, "trialdata": {"rt": -1, "stimulus": "<p id=\"stim\">3</p>", "key_press": -1, "trial_type": "single-stim", "trial_index": 85, "time_elapsed": 658141, "internal_node_id": "0.0-60.0-7.0"}}, {"uniqueid": "MTK0656:351SEKWQS1OVI2TDAFAX9ZB1YB8DMY", "current_trial": 86, "dateTime": 1512582166380, "trialdata": {"rt": -1, "stimulus": "<p id=\"stim\">2</p>", "key_press": -1, "trial_type": "single-stim", "trial_index": 86, "time_elapsed": 659145, "internal_node_id": "0.0-60.0-8.0"}}, {"uniqueid": "MTK0656:351SEKWQS1OVI2TDAFAX9ZB1YB8DMY", "current_trial": 87, "dateTime": 1512582167384, "trialdata": {"rt": -1, "stimulus": "<p id=\"stim\">1</p>", "key_press": -1, "trial_type": "single-stim", "trial_index": 87, "time_elapsed": 660149, "internal_node_id": "0.0-60.0-9.0"}}, {"uniqueid": "MTK0656:351SEKWQS1OVI2TDAFAX9ZB1YB8DMY", "current_trial": 88, "dateTime": 1512582168888, "trialdata": {"rt": -1, "stimulus": "<p id=\"stim\">+</p>", "key_press": -1, "type": "FIXATION", "trial_type": "single-stim", "trial_index": 88, "time_elapsed": 661652, "internal_node_id": "0.0-61.0-0.0"}}, {"uniqueid": "MTK0656:351SEKWQS1OVI2TDAFAX9ZB1YB8DMY", "current_trial": 89, "dateTime": 1512582171616, "trialdata": {"rt": -1000, "stimulus": "/static/audio/wordpool/VALVE.wav", "key_press": -1, "type": "PRES_AUD", "word": "valve", "wordID": 1545, "conditions": [12, 1600, "a", 12000], "trial": 2, "serialpos": 0, "trial_type": "single-audio", "trial_index": 89, "time_elapsed": 664381, "internal_node_id": "0.0-62.0"}}, {"uniqueid": "MTK0656:351SEKWQS1OVI2TDAFAX9ZB1YB8DMY", "current_trial": 90, "dateTime": 1512582174417, "trialdata": {"rt": -1000, "stimulus": "/static/audio/wordpool/SCALLOP.wav", "key_press": -1, "type": "PRES_AUD", "word": "scallop", "wordID": 1241, "conditions": [12, 1600, "a", 12000], "trial": 2, "serialpos": 1, "trial_type": "single-audio", "trial_index": 90, "time_elapsed": 667182, "internal_node_id": "0.0-63.0"}}, {"uniqueid": "MTK0656:351SEKWQS1OVI2TDAFAX9ZB1YB8DMY", "current_trial": 91, "dateTime": 1512582177133, "trialdata": {"rt": -1000, "stimulus": "/static/audio/wordpool/AWARD.wav", "key_press": -1, "type": "PRES_AUD", "word": "award", "wordID": 62, "conditions": [12, 1600, "a", 12000], "trial": 2, "serialpos": 2, "trial_type": "single-audio", "trial_index": 91, "time_elapsed": 669898, "internal_node_id": "0.0-64.0"}}, {"uniqueid": "MTK0656:351SEKWQS1OVI2TDAFAX9ZB1YB8DMY", "current_trial": 92, "dateTime": 1512582179542, "trialdata": {"rt": -1000, "stimulus": "/static/audio/wordpool/LACE.wav", "key_press": -1, "type": "PRES_AUD", "word": "lace", "wordID": 791, "conditions": [12, 1600, "a", 12000], "trial": 2, "serialpos": 3, "trial_type": "single-audio", "trial_index": 92, "time_elapsed": 672307, "internal_node_id": "0.0-65.0"}}, {"uniqueid": "MTK0656:351SEKWQS1OVI2TDAFAX9ZB1YB8DMY", "current_trial": 93, "dateTime": 1512582182212, "trialdata": {"rt": -1000, "stimulus": "/static/audio/wordpool/WRIST.wav", "key_press": -1, "type": "PRES_AUD", "word": "wrist", "wordID": 1625, "conditions": [12, 1600, "a", 12000], "trial": 2, "serialpos": 4, "trial_type": "single-audio", "trial_index": 93, "time_elapsed": 674976, "internal_node_id": "0.0-66.0"}}, {"uniqueid": "MTK0656:351SEKWQS1OVI2TDAFAX9ZB1YB8DMY", "current_trial": 94, "dateTime": 1512582185011, "trialdata": {"rt": -1000, "stimulus": "/static/audio/wordpool/ANKLE.wav", "key_press": -1, "type": "PRES_AUD", "word": "ankle", "wordID": 23, "conditions": [12, 1600, "a", 12000], "trial": 2, "serialpos": 5, "trial_type": "single-audio", "trial_index": 94, "time_elapsed": 677776, "internal_node_id": "0.0-67.0"}}, {"uniqueid": "MTK0656:351SEKWQS1OVI2TDAFAX9ZB1YB8DMY", "current_trial": 95, "dateTime": 1512582187814, "trialdata": {"rt": -1000, "stimulus": "/static/audio/wordpool/BADGE.wav", "key_press": -1, "type": "PRES_AUD", "word": "badge", "wordID": 67, "conditions": [12, 1600, "a", 12000], "trial": 2, "serialpos": 6, "trial_type": "single-audio", "trial_index": 95, "time_elapsed": 680579, "internal_node_id": "0.0-68.0"}}, {"uniqueid": "MTK0656:351SEKWQS1OVI2TDAFAX9ZB1YB8DMY", "current_trial": 96, "dateTime": 1512582190461, "trialdata": {"rt": -1000, "stimulus": "/static/audio/wordpool/RACKET.wav", "key_press": -1, "type": "PRES_AUD", "word": "racket", "wordID": 1154, "conditions": [12, 1600, "a", 12000], "trial": 2, "serialpos": 7, "trial_type": "single-audio", "trial_index": 96, "time_elapsed": 683226, "internal_node_id": "0.0-69.0"}}, {"uniqueid": "MTK0656:351SEKWQS1OVI2TDAFAX9ZB1YB8DMY", "current_trial": 97, "dateTime": 1512582192975, "trialdata": {"rt": -1000, "stimulus": "/static/audio/wordpool/WAITER.wav", "key_press": -1, "type": "PRES_AUD", "word": "waiter", "wordID": 1579, "conditions": [12, 1600, "a", 12000], "trial": 2, "serialpos": 8, "trial_type": "single-audio", "trial_index": 97, "time_elapsed": 685740, "internal_node_id": "0.0-70.0"}}, {"uniqueid": "MTK0656:351SEKWQS1OVI2TDAFAX9ZB1YB8DMY", "current_trial": 98, "dateTime": 1512582195767, "trialdata": {"rt": -1000, "stimulus": "/static/audio/wordpool/FLUTE.wav", "key_press": -1, "type": "PRES_AUD", "word": "flute", "wordID": 584, "conditions": [12, 1600, "a", 12000], "trial": 2, "serialpos": 9, "trial_type": "single-audio", "trial_index": 98, "time_elapsed": 688532, "internal_node_id": "0.0-71.0"}}, {"uniqueid": "MTK0656:351SEKWQS1OVI2TDAFAX9ZB1YB8DMY", "current_trial": 99, "dateTime": 1512582198553, "trialdata": {"rt": -1000, "stimulus": "/static/audio/wordpool/PISTON.wav", "key_press": -1, "type": "PRES_AUD", "word": "piston", "wordID": 1075, "conditions": [12, 1600, "a", 12000], "trial": 2, "serialpos": 10, "trial_type": "single-audio", "trial_index": 99, "time_elapsed": 691318, "internal_node_id": "0.0-72.0"}}, {"uniqueid": "MTK0656:351SEKWQS1OVI2TDAFAX9ZB1YB8DMY", "current_trial": 100, "dateTime": 1512582201098, "trialdata": {"rt": -1000, "stimulus": "/static/audio/wordpool/LEG.wav", "key_press": -1, "type": "PRES_AUD", "word": "leg", "wordID": 808, "conditions": [12, 1600, "a", 12000], "trial": 2, "serialpos": 11, "trial_type": "single-audio", "trial_index": 100, "time_elapsed": 693863, "internal_node_id": "0.0-73.0"}}, {"uniqueid": "MTK0656:351SEKWQS1OVI2TDAFAX9ZB1YB8DMY", "current_trial": 101, "dateTime": 1512582202345, "trialdata": {"rt": -1, "stimulus": "", "key_press": -1, "type": "PRE_RECALL_DELAY", "trial_type": "single-stim", "trial_index": 101, "time_elapsed": 695110, "internal_node_id": "0.0-74.0-0.0"}}, {"uniqueid": "MTK0656:351SEKWQS1OVI2TDAFAX9ZB1YB8DMY", "current_trial": 102, "dateTime": 1512582202846, "trialdata": {"rt": -1000, "stimulus": "/static/audio/400Hz.wav", "key_press": -1, "type": "PRE_RECALL_ALERT", "trial_type": "single-audio", "trial_index": 102, "time_elapsed": 695611, "internal_node_id": "0.0-75.0"}}, {"uniqueid": "MTK0656:351SEKWQS1OVI2TDAFAX9ZB1YB8DMY", "current_trial": 103, "dateTime": 1512582262850, "trialdata": {"rt": [10711, 17461, 23052, 28734, 35259, 40918, 48140, 55127], "recwords": ["scallop", "award", "lace", "wrist", "ankle", "badge", "racket", "waiter"], "type": "FREE_RECALL", "conditions": [12, 1600, "a", 12000], "trial": 2, "trial_type": "free-recall", "trial_index": 103, "time_elapsed": 755614, "internal_node_id": "0.0-76.0-0.0"}}, {"uniqueid": "MTK0656:351SEKWQS1OVI2TDAFAX9ZB1YB8DMY", "current_trial": 104, "dateTime": 1512582266568, "trialdata": {"rt": 1718, "key_press": 80, "type": "INSTRUCTIONS", "trial_type": "text", "trial_index": 104, "time_elapsed": 759333, "internal_node_id": "0.0-77.0"}}, {"uniqueid": "MTK0656:351SEKWQS1OVI2TDAFAX9ZB1YB8DMY", "current_trial": 105, "dateTime": 1512582292575, "trialdata": {"rt": [5389, 10879, 14710, 15087, 23479], "responses": ["13", "13", "18", "", "12"], "num1": [4, 1, 2, 2, 1, 2], "num2": [8, 8, 7, 3, 8, 8], "num3": [1, 4, 9, 8, 5, 3], "type": "DISTRACTOR", "conditions": [12, 800, "a", 24000], "trial": 3, "trial_type": "math-distractor", "trial_index": 105, "time_elapsed": 785340, "internal_node_id": "0.0-78.0"}}, {"uniqueid": "MTK0656:351SEKWQS1OVI2TDAFAX9ZB1YB8DMY", "current_trial": 106, "dateTime": 1512582295581, "trialdata": {"rt": -1, "stimulus": "<p id=\"stim\">10</p>", "key_press": -1, "trial_type": "single-stim", "trial_index": 106, "time_elapsed": 788346, "internal_node_id": "0.0-79.0-0.0"}}, {"uniqueid": "MTK0656:351SEKWQS1OVI2TDAFAX9ZB1YB8DMY", "current_trial": 107, "dateTime": 1512582296585, "trialdata": {"rt": -1, "stimulus": "<p id=\"stim\">9</p>", "key_press": -1, "trial_type": "single-stim", "trial_index": 107, "time_elapsed": 789350, "internal_node_id": "0.0-79.0-1.0"}}, {"uniqueid": "MTK0656:351SEKWQS1OVI2TDAFAX9ZB1YB8DMY", "current_trial": 108, "dateTime": 1512582297589, "trialdata": {"rt": -1, "stimulus": "<p id=\"stim\">8</p>", "key_press": -1, "trial_type": "single-stim", "trial_index": 108, "time_elapsed": 790354, "internal_node_id": "0.0-79.0-2.0"}}, {"uniqueid": "MTK0656:351SEKWQS1OVI2TDAFAX9ZB1YB8DMY", "current_trial": 109, "dateTime": 1512582298593, "trialdata": {"rt": -1, "stimulus": "<p id=\"stim\">7</p>", "key_press": -1, "trial_type": "single-stim", "trial_index": 109, "time_elapsed": 791358, "internal_node_id": "0.0-79.0-3.0"}}, {"uniqueid": "MTK0656:351SEKWQS1OVI2TDAFAX9ZB1YB8DMY", "current_trial": 110, "dateTime": 1512582299598, "trialdata": {"rt": -1, "stimulus": "<p id=\"stim\">6</p>", "key_press": -1, "trial_type": "single-stim", "trial_index": 110, "time_elapsed": 792362, "internal_node_id": "0.0-79.0-4.0"}}, {"uniqueid": "MTK0656:351SEKWQS1OVI2TDAFAX9ZB1YB8DMY", "current_trial": 111, "dateTime": 1512582300601, "trialdata": {"rt": -1, "stimulus": "<p id=\"stim\">5</p>", "key_press": -1, "trial_type": "single-stim", "trial_index": 111, "time_elapsed": 793366, "internal_node_id": "0.0-79.0-5.0"}}, {"uniqueid": "MTK0656:351SEKWQS1OVI2TDAFAX9ZB1YB8DMY", "current_trial": 112, "dateTime": 1512582301605, "trialdata": {"rt": -1, "stimulus": "<p id=\"stim\">4</p>", "key_press": -1, "trial_type": "single-stim", "trial_index": 112, "time_elapsed": 794370, "internal_node_id": "0.0-79.0-6.0"}}, {"uniqueid": "MTK0656:351SEKWQS1OVI2TDAFAX9ZB1YB8DMY", "current_trial": 113, "dateTime": 1512582302610, "trialdata": {"rt": -1, "stimulus": "<p id=\"stim\">3</p>", "key_press": -1, "trial_type": "single-stim", "trial_index": 113, "time_elapsed": 795374, "internal_node_id": "0.0-79.0-7.0"}}, {"uniqueid": "MTK0656:351SEKWQS1OVI2TDAFAX9ZB1YB8DMY", "current_trial": 114, "dateTime": 1512582303613, "trialdata": {"rt": -1, "stimulus": "<p id=\"stim\">2</p>", "key_press": -1, "trial_type": "single-stim", "trial_index": 114, "time_elapsed": 796378, "internal_node_id": "0.0-79.0-8.0"}}, {"uniqueid": "MTK0656:351SEKWQS1OVI2TDAFAX9ZB1YB8DMY", "current_trial": 115, "dateTime": 1512582304618, "trialdata": {"rt": -1, "stimulus": "<p id=\"stim\">1</p>", "key_press": -1, "trial_type": "single-stim", "trial_index": 115, "time_elapsed": 797383, "internal_node_id": "0.0-79.0-9.0"}}, {"uniqueid": "MTK0656:351SEKWQS1OVI2TDAFAX9ZB1YB8DMY", "current_trial": 116, "dateTime": 1512582306121, "trialdata": {"rt": -1, "stimulus": "<p id=\"stim\">+</p>", "key_press": -1, "type": "FIXATION", "trial_type": "single-stim", "trial_index": 116, "time_elapsed": 798886, "internal_node_id": "0.0-80.0-0.0"}}, {"uniqueid": "MTK0656:351SEKWQS1OVI2TDAFAX9ZB1YB8DMY", "current_trial": 117, "dateTime": 1512582308040, "trialdata": {"rt": -1000, "stimulus": "/static/audio/wordpool/BANQUET.wav", "key_press": -1, "type": "PRES_AUD", "word": "banquet", "wordID": 85, "conditions": [12, 800, "a", 24000], "trial": 3, "serialpos": 0, "trial_type": "single-audio", "trial_index": 117, "time_elapsed": 800805, "internal_node_id": "0.0-81.0"}}, {"uniqueid": "MTK0656:351SEKWQS1OVI2TDAFAX9ZB1YB8DMY", "current_trial": 118, "dateTime": 1512582309758, "trialdata": {"rt": -1000, "stimulus": "/static/audio/wordpool/OYSTER.wav", "key_press": -1, "type": "PRES_AUD", "word": "oyster", "wordID": 994, "conditions": [12, 800, "a", 24000], "trial": 3, "serialpos": 1, "trial_type": "single-audio", "trial_index": 118, "time_elapsed": 802523, "internal_node_id": "0.0-82.0"}}, {"uniqueid": "MTK0656:351SEKWQS1OVI2TDAFAX9ZB1YB8DMY", "current_trial": 119, "dateTime": 1512582311660, "trialdata": {"rt": -1000, "stimulus": "/static/audio/wordpool/BANKER.wav", "key_press": -1, "type": "PRES_AUD", "word": "banker", "wordID": 83, "conditions": [12, 800, "a", 24000], "trial": 3, "serialpos": 2, "trial_type": "single-audio", "trial_index": 119, "time_elapsed": 804425, "internal_node_id": "0.0-83.0"}}, {"uniqueid": "MTK0656:351SEKWQS1OVI2TDAFAX9ZB1YB8DMY", "current_trial": 120, "dateTime": 1512582313270, "trialdata": {"rt": -1000, "stimulus": "/static/audio/wordpool/COWBOY.wav", "key_press": -1, "type": "PRES_AUD", "word": "cowboy", "wordID": 394, "conditions": [12, 800, "a", 24000], "trial": 3, "serialpos": 3, "trial_type": "single-audio", "trial_index": 120, "time_elapsed": 806035, "internal_node_id": "0.0-84.0"}}, {"uniqueid": "MTK0656:351SEKWQS1OVI2TDAFAX9ZB1YB8DMY", "current_trial": 121, "dateTime": 1512582315059, "trialdata": {"rt": -1000, "stimulus": "/static/audio/wordpool/DIVER.wav", "key_press": -1, "type": "PRES_AUD", "word": "diver", "wordID": 475, "conditions": [12, 800, "a", 24000], "trial": 3, "serialpos": 4, "trial_type": "single-audio", "trial_index": 121, "time_elapsed": 807824, "internal_node_id": "0.0-85.0"}}, {"uniqueid": "MTK0656:351SEKWQS1OVI2TDAFAX9ZB1YB8DMY", "current_trial": 122, "dateTime": 1512582317061, "trialdata": {"rt": -1000, "stimulus": "/static/audio/wordpool/GAVEL.wav", "key_press": -1, "type": "PRES_AUD", "word": "gavel", "wordID": 626, "conditions": [12, 800, "a", 24000], "trial": 3, "serialpos": 5, "trial_type": "single-audio", "trial_index": 122, "time_elapsed": 809826, "internal_node_id": "0.0-86.0"}}, {"uniqueid": "MTK0656:351SEKWQS1OVI2TDAFAX9ZB1YB8DMY", "current_trial": 123, "dateTime": 1512582318855, "trialdata": {"rt": -1000, "stimulus": "/static/audio/wordpool/CANYON.wav", "key_press": -1, "type": "PRES_AUD", "word": "canyon", "wordID": 234, "conditions": [12, 800, "a", 24000], "trial": 3, "serialpos": 6, "trial_type": "single-audio", "trial_index": 123, "time_elapsed": 811620, "internal_node_id": "0.0-87.0"}}, {"uniqueid": "MTK0656:351SEKWQS1OVI2TDAFAX9ZB1YB8DMY", "current_trial": 124, "dateTime": 1512582320752, "trialdata": {"rt": -1000, "stimulus": "/static/audio/wordpool/VALLEY.wav", "key_press": -1, "type": "PRES_AUD", "word": "valley", "wordID": 1544, "conditions": [12, 800, "a", 24000], "trial": 3, "serialpos": 7, "trial_type": "single-audio", "trial_index": 124, "time_elapsed": 813517, "internal_node_id": "0.0-88.0"}}, {"uniqueid": "MTK0656:351SEKWQS1OVI2TDAFAX9ZB1YB8DMY", "current_trial": 125, "dateTime": 1512582322735, "trialdata": {"rt": -1000, "stimulus": "/static/audio/wordpool/CABIN.wav", "key_press": -1, "type": "PRES_AUD", "word": "cabin", "wordID": 210, "conditions": [12, 800, "a", 24000], "trial": 3, "serialpos": 8, "trial_type": "single-audio", "trial_index": 125, "time_elapsed": 815500, "internal_node_id": "0.0-89.0"}}, {"uniqueid": "MTK0656:351SEKWQS1OVI2TDAFAX9ZB1YB8DMY", "current_trial": 126, "dateTime": 1512582324517, "trialdata": {"rt": -1000, "stimulus": "/static/audio/wordpool/PARSLEY.wav", "key_press": -1, "type": "PRES_AUD", "word": "parsley", "wordID": 1015, "conditions": [12, 800, "a", 24000], "trial": 3, "serialpos": 9, "trial_type": "single-audio", "trial_index": 126, "time_elapsed": 817282, "internal_node_id": "0.0-90.0"}}, {"uniqueid": "MTK0656:351SEKWQS1OVI2TDAFAX9ZB1YB8DMY", "current_trial": 127, "dateTime": 1512582326458, "trialdata": {"rt": -1000, "stimulus": "/static/audio/wordpool/SWIMMER.wav", "key_press": -1, "type": "PRES_AUD", "word": "swimmer", "wordID": 1419, "conditions": [12, 800, "a", 24000], "trial": 3, "serialpos": 10, "trial_type": "single-audio", "trial_index": 127, "time_elapsed": 819223, "internal_node_id": "0.0-91.0"}}, {"uniqueid": "MTK0656:351SEKWQS1OVI2TDAFAX9ZB1YB8DMY", "current_trial": 128, "dateTime": 1512582328275, "trialdata": {"rt": -1000, "stimulus": "/static/audio/wordpool/SALAD.wav", "key_press": -1, "type": "PRES_AUD", "word": "salad", "wordID": 1223, "conditions": [12, 800, "a", 24000], "trial": 3, "serialpos": 11, "trial_type": "single-audio", "trial_index": 128, "time_elapsed": 821040, "internal_node_id": "0.0-92.0"}}, {"uniqueid": "MTK0656:351SEKWQS1OVI2TDAFAX9ZB1YB8DMY", "current_trial": 129, "dateTime": 1512582329573, "trialdata": {"rt": -1, "stimulus": "", "key_press": -1, "type": "PRE_RECALL_DELAY", "trial_type": "single-stim", "trial_index": 129, "time_elapsed": 822338, "internal_node_id": "0.0-93.0-0.0"}}, {"uniqueid": "MTK0656:351SEKWQS1OVI2TDAFAX9ZB1YB8DMY", "current_trial": 130, "dateTime": 1512582330075, "trialdata": {"rt": -1000, "stimulus": "/static/audio/400Hz.wav", "key_press": -1, "type": "PRE_RECALL_ALERT", "trial_type": "single-audio", "trial_index": 130, "time_elapsed": 822840, "internal_node_id": "0.0-94.0"}}, {"uniqueid": "MTK0656:351SEKWQS1OVI2TDAFAX9ZB1YB8DMY", "current_trial": 131, "dateTime": 1512582390076, "trialdata": {"rt": [10057, 13961, 18607, 23681, 28754, 33986, 38396, 44021, 49275, 54540], "recwords": ["banker", "cowboy", "diver", "gavel", "canyon", "valley", "cabin", "parsley", "swimmer", "salad"], "type": "FREE_RECALL", "conditions": [12, 800, "a", 24000], "trial": 3, "trial_type": "free-recall", "trial_index": 131, "time_elapsed": 882839, "internal_node_id": "0.0-95.0-0.0"}}, {"uniqueid": "MTK0656:351SEKWQS1OVI2TDAFAX9ZB1YB8DMY", "current_trial": 132, "dateTime": 1512582393886, "trialdata": {"rt": 1806, "key_press": 32, "type": "INSTRUCTIONS", "trial_type": "text", "trial_index": 132, "time_elapsed": 886651, "internal_node_id": "0.0-96.0"}}, {"uniqueid": "MTK0656:351SEKWQS1OVI2TDAFAX9ZB1YB8DMY", "current_trial": 133, "dateTime": 1512582419894, "trialdata": {"rt": [7120, 13048, 15467, 20957], "responses": ["20", "13", "9", "13"], "num1": [8, 6, 2, 5, 8], "num2": [7, 1, 5, 2, 6], "num3": [5, 6, 2, 6, 7], "type": "DISTRACTOR", "conditions": [24, 1600, "a", 24000], "trial": 4, "trial_type": "math-distractor", "trial_index": 133, "time_elapsed": 912659, "internal_node_id": "0.0-97.0"}}, {"uniqueid": "MTK0656:351SEKWQS1OVI2TDAFAX9ZB1YB8DMY", "current_trial": 134, "dateTime": 1512582422902, "trialdata": {"rt": -1, "stimulus": "<p id=\"stim\">10</p>", "key_press": -1, "trial_type": "single-stim", "trial_index": 134, "time_elapsed": 915665, "internal_node_id": "0.0-98.0-0.0"}}, {"uniqueid": "MTK0656:351SEKWQS1OVI2TDAFAX9ZB1YB8DMY", "current_trial": 135, "dateTime": 1512582423904, "trialdata": {"rt": -1, "stimulus": "<p id=\"stim\">9</p>", "key_press": -1, "trial_type": "single-stim", "trial_index": 135, "time_elapsed": 916669, "internal_node_id": "0.0-98.0-1.0"}}, {"uniqueid": "MTK0656:351SEKWQS1OVI2TDAFAX9ZB1YB8DMY", "current_trial": 136, "dateTime": 1512582424908, "trialdata": {"rt": -1, "stimulus": "<p id=\"stim\">8</p>", "key_press": -1, "trial_type": "single-stim", "trial_index": 136, "time_elapsed": 917673, "internal_node_id": "0.0-98.0-2.0"}}, {"uniqueid": "MTK0656:351SEKWQS1OVI2TDAFAX9ZB1YB8DMY", "current_trial": 137, "dateTime": 1512582425912, "trialdata": {"rt": -1, "stimulus": "<p id=\"stim\">7</p>", "key_press": -1, "trial_type": "single-stim", "trial_index": 137, "time_elapsed": 918677, "internal_node_id": "0.0-98.0-3.0"}}, {"uniqueid": "MTK0656:351SEKWQS1OVI2TDAFAX9ZB1YB8DMY", "current_trial": 138, "dateTime": 1512582426916, "trialdata": {"rt": -1, "stimulus": "<p id=\"stim\">6</p>", "key_press": -1, "trial_type": "single-stim", "trial_index": 138, "time_elapsed": 919681, "internal_node_id": "0.0-98.0-4.0"}}, {"uniqueid": "MTK0656:351SEKWQS1OVI2TDAFAX9ZB1YB8DMY", "current_trial": 139, "dateTime": 1512582427921, "trialdata": {"rt": -1, "stimulus": "<p id=\"stim\">5</p>", "key_press": -1, "trial_type": "single-stim", "trial_index": 139, "time_elapsed": 920686, "internal_node_id": "0.0-98.0-5.0"}}, {"uniqueid": "MTK0656:351SEKWQS1OVI2TDAFAX9ZB1YB8DMY", "current_trial": 140, "dateTime": 1512582428924, "trialdata": {"rt": -1, "stimulus": "<p id=\"stim\">4</p>", "key_press": -1, "trial_type": "single-stim", "trial_index": 140, "time_elapsed": 921689, "internal_node_id": "0.0-98.0-6.0"}}, {"uniqueid": "MTK0656:351SEKWQS1OVI2TDAFAX9ZB1YB8DMY", "current_trial": 141, "dateTime": 1512582429928, "trialdata": {"rt": -1, "stimulus": "<p id=\"stim\">3</p>", "key_press": -1, "trial_type": "single-stim", "trial_index": 141, "time_elapsed": 922693, "internal_node_id": "0.0-98.0-7.0"}}, {"uniqueid": "MTK0656:351SEKWQS1OVI2TDAFAX9ZB1YB8DMY", "current_trial": 142, "dateTime": 1512582430932, "trialdata": {"rt": -1, "stimulus": "<p id=\"stim\">2</p>", "key_press": -1, "trial_type": "single-stim", "trial_index": 142, "time_elapsed": 923697, "internal_node_id": "0.0-98.0-8.0"}}, {"uniqueid": "MTK0656:351SEKWQS1OVI2TDAFAX9ZB1YB8DMY", "current_trial": 143, "dateTime": 1512582431936, "trialdata": {"rt": -1, "stimulus": "<p id=\"stim\">1</p>", "key_press": -1, "trial_type": "single-stim", "trial_index": 143, "time_elapsed": 924701, "internal_node_id": "0.0-98.0-9.0"}}, {"uniqueid": "MTK0656:351SEKWQS1OVI2TDAFAX9ZB1YB8DMY", "current_trial": 144, "dateTime": 1512582433440, "trialdata": {"rt": -1, "stimulus": "<p id=\"stim\">+</p>", "key_press": -1, "type": "FIXATION", "trial_type": "single-stim", "trial_index": 144, "time_elapsed": 926205, "internal_node_id": "0.0-99.0-0.0"}}, {"uniqueid": "MTK0656:351SEKWQS1OVI2TDAFAX9ZB1YB8DMY", "current_trial": 145, "dateTime": 1512582436021, "trialdata": {"rt": -1000, "stimulus": "/static/audio/wordpool/LAKE.wav", "key_press": -1, "type": "PRES_AUD", "word": "lake", "wordID": 795, "conditions": [24, 1600, "a", 24000], "trial": 4, "serialpos": 0, "trial_type": "single-audio", "trial_index": 145, "time_elapsed": 928785, "internal_node_id": "0.0-100.0"}}, {"uniqueid": "MTK0656:351SEKWQS1OVI2TDAFAX9ZB1YB8DMY", "current_trial": 146, "dateTime": 1512582438749, "trialdata": {"rt": -1000, "stimulus": "/static/audio/wordpool/LAGOON.wav", "key_press": -1, "type": "PRES_AUD", "word": "lagoon", "wordID": 794, "conditions": [24, 1600, "a", 24000], "trial": 4, "serialpos": 1, "trial_type": "single-audio", "trial_index": 146, "time_elapsed": 931514, "internal_node_id": "0.0-101.0"}}, {"uniqueid": "MTK0656:351SEKWQS1OVI2TDAFAX9ZB1YB8DMY", "current_trial": 147, "dateTime": 1512582441349, "trialdata": {"rt": -1000, "stimulus": "/static/audio/wordpool/BLOUSE.wav", "key_press": -1, "type": "PRES_AUD", "word": "blouse", "wordID": 138, "conditions": [24, 1600, "a", 24000], "trial": 4, "serialpos": 2, "trial_type": "single-audio", "trial_index": 147, "time_elapsed": 934114, "internal_node_id": "0.0-102.0"}}, {"uniqueid": "MTK0656:351SEKWQS1OVI2TDAFAX9ZB1YB8DMY", "current_trial": 148, "dateTime": 1512582444076, "trialdata": {"rt": -1000, "stimulus": "/static/audio/wordpool/SODA.wav", "key_press": -1, "type": "PRES_AUD", "word": "soda", "wordID": 1340, "conditions": [24, 1600, "a", 24000], "trial": 4, "serialpos": 3, "trial_type": "single-audio", "trial_index": 148, "time_elapsed": 936841, "internal_node_id": "0.0-103.0"}}, {"uniqueid": "MTK0656:351SEKWQS1OVI2TDAFAX9ZB1YB8DMY", "current_trial": 149, "dateTime": 1512582446759, "trialdata": {"rt": -1000, "stimulus": "/static/audio/wordpool/DRUG.wav", "key_press": -1, "type": "PRES_AUD", "word": "drug", "wordID": 500, "conditions": [24, 1600, "a", 24000], "trial": 4, "serialpos": 4, "trial_type": "single-audio", "trial_index": 149, "time_elapsed": 939524, "internal_node_id": "0.0-104.0"}}, {"uniqueid": "MTK0656:351SEKWQS1OVI2TDAFAX9ZB1YB8DMY", "current_trial": 150, "dateTime": 1512582449267, "trialdata": {"rt": -1000, "stimulus": "/static/audio/wordpool/CASHIER.wav", "key_press": -1, "type": "PRES_AUD", "word": "cashier", "wordID": 253, "conditions": [24, 1600, "a", 24000], "trial": 4, "serialpos": 5, "trial_type": "single-audio", "trial_index": 150, "time_elapsed": 942032, "internal_node_id": "0.0-105.0"}}, {"uniqueid": "MTK0656:351SEKWQS1OVI2TDAFAX9ZB1YB8DMY", "current_trial": 151, "dateTime": 1512582451926, "trialdata": {"rt": -1000, "stimulus": "/static/audio/wordpool/CONTRACT.wav", "key_press": -1, "type": "PRES_AUD", "word": "contract", "wordID": 367, "conditions": [24, 1600, "a", 24000], "trial": 4, "serialpos": 6, "trial_type": "single-audio", "trial_index": 151, "time_elapsed": 944690, "internal_node_id": "0.0-106.0"}}, {"uniqueid": "MTK0656:351SEKWQS1OVI2TDAFAX9ZB1YB8DMY", "current_trial": 152, "dateTime": 1512582454462, "trialdata": {"rt": -1000, "stimulus": "/static/audio/wordpool/SPONGE.wav", "key_press": -1, "type": "PRES_AUD", "word": "sponge", "wordID": 1354, "conditions": [24, 1600, "a", 24000], "trial": 4, "serialpos": 7, "trial_type": "single-audio", "trial_index": 152, "time_elapsed": 947227, "internal_node_id": "0.0-107.0"}}, {"uniqueid": "MTK0656:351SEKWQS1OVI2TDAFAX9ZB1YB8DMY", "current_trial": 153, "dateTime": 1512582457022, "trialdata": {"rt": -1000, "stimulus": "/static/audio/wordpool/TERMITE.wav", "key_press": -1, "type": "PRES_AUD", "word": "termite", "wordID": 1450, "conditions": [24, 1600, "a", 24000], "trial": 4, "serialpos": 8, "trial_type": "single-audio", "trial_index": 153, "time_elapsed": 949787, "internal_node_id": "0.0-108.0"}}, {"uniqueid": "MTK0656:351SEKWQS1OVI2TDAFAX9ZB1YB8DMY", "current_trial": 154, "dateTime": 1512582459737, "trialdata": {"rt": -1000, "stimulus": "/static/audio/wordpool/POLICE.wav", "key_press": -1, "type": "PRES_AUD", "word": "police", "wordID": 1097, "conditions": [24, 1600, "a", 24000], "trial": 4, "serialpos": 9, "trial_type": "single-audio", "trial_index": 154, "time_elapsed": 952502, "internal_node_id": "0.0-109.0"}}, {"uniqueid": "MTK0656:351SEKWQS1OVI2TDAFAX9ZB1YB8DMY", "current_trial": 155, "dateTime": 1512582462525, "trialdata": {"rt": -1000, "stimulus": "/static/audio/wordpool/SCARF.wav", "key_press": -1, "type": "PRES_AUD", "word": "scarf", "wordID": 1245, "conditions": [24, 1600, "a", 24000], "trial": 4, "serialpos": 10, "trial_type": "single-audio", "trial_index": 155, "time_elapsed": 955290, "internal_node_id": "0.0-110.0"}}, {"uniqueid": "MTK0656:351SEKWQS1OVI2TDAFAX9ZB1YB8DMY", "current_trial": 156, "dateTime": 1512582465317, "trialdata": {"rt": -1000, "stimulus": "/static/audio/wordpool/KEEPER.wav", "key_press": -1, "type": "PRES_AUD", "word": "keeper", "wordID": 768, "conditions": [24, 1600, "a", 24000], "trial": 4, "serialpos": 11, "trial_type": "single-audio", "trial_index": 156, "time_elapsed": 958082, "internal_node_id": "0.0-111.0"}}, {"uniqueid": "MTK0656:351SEKWQS1OVI2TDAFAX9ZB1YB8DMY", "current_trial": 157, "dateTime": 1512582467865, "trialdata": {"rt": -1000, "stimulus": "/static/audio/wordpool/SISTER.wav", "key_press": -1, "type": "PRES_AUD", "word": "sister", "wordID": 1311, "conditions": [24, 1600, "a", 24000], "trial": 4, "serialpos": 12, "trial_type": "single-audio", "trial_index": 157, "time_elapsed": 960630, "internal_node_id": "0.0-112.0"}}, {"uniqueid": "MTK0656:351SEKWQS1OVI2TDAFAX9ZB1YB8DMY", "current_trial": 158, "dateTime": 1512582470547, "trialdata": {"rt": -1000, "stimulus": "/static/audio/wordpool/SIBLING.wav", "key_press": -1, "type": "PRES_AUD", "word": "sibling", "wordID": 1300, "conditions": [24, 1600, "a", 24000], "trial": 4, "serialpos": 13, "trial_type": "single-audio", "trial_index": 158, "time_elapsed": 963312, "internal_node_id": "0.0-113.0"}}, {"uniqueid": "MTK0656:351SEKWQS1OVI2TDAFAX9ZB1YB8DMY", "current_trial": 159, "dateTime": 1512582473194, "trialdata": {"rt": -1000, "stimulus": "/static/audio/wordpool/GRAVEL.wav", "key_press": -1, "type": "PRES_AUD", "word": "gravel", "wordID": 658, "conditions": [24, 1600, "a", 24000], "trial": 4, "serialpos": 14, "trial_type": "single-audio", "trial_index": 159, "time_elapsed": 965959, "internal_node_id": "0.0-114.0"}}, {"uniqueid": "MTK0656:351SEKWQS1OVI2TDAFAX9ZB1YB8DMY", "current_trial": 160, "dateTime": 1512582475980, "trialdata": {"rt": -1000, "stimulus": "/static/audio/wordpool/KIDNEY.wav", "key_press": -1, "type": "PRES_AUD", "word": "kidney", "wordID": 775, "conditions": [24, 1600, "a", 24000], "trial": 4, "serialpos": 15, "trial_type": "single-audio", "trial_index": 160, "time_elapsed": 968745, "internal_node_id": "0.0-115.0"}}, {"uniqueid": "MTK0656:351SEKWQS1OVI2TDAFAX9ZB1YB8DMY", "current_trial": 161, "dateTime": 1512582478384, "trialdata": {"rt": -1000, "stimulus": "/static/audio/wordpool/SWORD.wav", "key_press": -1, "type": "PRES_AUD", "word": "sword", "wordID": 1422, "conditions": [24, 1600, "a", 24000], "trial": 4, "serialpos": 16, "trial_type": "single-audio", "trial_index": 161, "time_elapsed": 971149, "internal_node_id": "0.0-116.0"}}, {"uniqueid": "MTK0656:351SEKWQS1OVI2TDAFAX9ZB1YB8DMY", "current_trial": 162, "dateTime": 1512582481125, "trialdata": {"rt": -1000, "stimulus": "/static/audio/wordpool/PEANUT.wav", "key_press": -1, "type": "PRES_AUD", "word": "peanut", "wordID": 1031, "conditions": [24, 1600, "a", 24000], "trial": 4, "serialpos": 17, "trial_type": "single-audio", "trial_index": 162, "time_elapsed": 973890, "internal_node_id": "0.0-117.0"}}, {"uniqueid": "MTK0656:351SEKWQS1OVI2TDAFAX9ZB1YB8DMY", "current_trial": 163, "dateTime": 1512582483647, "trialdata": {"rt": -1000, "stimulus": "/static/audio/wordpool/PATIENT.wav", "key_press": -1, "type": "PRES_AUD", "word": "patient", "wordID": 1023, "conditions": [24, 1600, "a", 24000], "trial": 4, "serialpos": 18, "trial_type": "single-audio", "trial_index": 163, "time_elapsed": 976412, "internal_node_id": "0.0-118.0"}}, {"uniqueid": "MTK0656:351SEKWQS1OVI2TDAFAX9ZB1YB8DMY", "current_trial": 164, "dateTime": 1512582486150, "trialdata": {"rt": -1000, "stimulus": "/static/audio/wordpool/FLESH.wav", "key_press": -1, "type": "PRES_AUD", "word": "flesh", "wordID": 578, "conditions": [24, 1600, "a", 24000], "trial": 4, "serialpos": 19, "trial_type": "single-audio", "trial_index": 164, "time_elapsed": 978915, "internal_node_id": "0.0-119.0"}}, {"uniqueid": "MTK0656:351SEKWQS1OVI2TDAFAX9ZB1YB8DMY", "current_trial": 165, "dateTime": 1512582488937, "trialdata": {"rt": -1000, "stimulus": "/static/audio/wordpool/PECAN.wav", "key_press": -1, "type": "PRES_AUD", "word": "pecan", "wordID": 1035, "conditions": [24, 1600, "a", 24000], "trial": 4, "serialpos": 20, "trial_type": "single-audio", "trial_index": 165, "time_elapsed": 981702, "internal_node_id": "0.0-120.0"}}, {"uniqueid": "MTK0656:351SEKWQS1OVI2TDAFAX9ZB1YB8DMY", "current_trial": 166, "dateTime": 1512582491705, "trialdata": {"rt": -1000, "stimulus": "/static/audio/wordpool/LADY.wav", "key_press": -1, "type": "PRES_AUD", "word": "lady", "wordID": 793, "conditions": [24, 1600, "a", 24000], "trial": 4, "serialpos": 21, "trial_type": "single-audio", "trial_index": 166, "time_elapsed": 984470, "internal_node_id": "0.0-121.0"}}, {"uniqueid": "MTK0656:351SEKWQS1OVI2TDAFAX9ZB1YB8DMY", "current_trial": 167, "dateTime": 1512582494428, "trialdata": {"rt": -1000, "stimulus": "/static/audio/wordpool/GYMNAST.wav", "key_press": -1, "type": "PRES_AUD", "word": "gymnast", "wordID": 674, "conditions": [24, 1600, "a", 24000], "trial": 4, "serialpos": 22, "trial_type": "single-audio", "trial_index": 167, "time_elapsed": 987193, "internal_node_id": "0.0-122.0"}}, {"uniqueid": "MTK0656:351SEKWQS1OVI2TDAFAX9ZB1YB8DMY", "current_trial": 168, "dateTime": 1512582497145, "trialdata": {"rt": -1000, "stimulus": "/static/audio/wordpool/WOMAN.wav", "key_press": -1, "type": "PRES_AUD", "word": "woman", "wordID": 1619, "conditions": [24, 1600, "a", 24000], "trial": 4, "serialpos": 23, "trial_type": "single-audio", "trial_index": 168, "time_elapsed": 989910, "internal_node_id": "0.0-123.0"}}, {"uniqueid": "MTK0656:351SEKWQS1OVI2TDAFAX9ZB1YB8DMY", "current_trial": 169, "dateTime": 1512582498528, "trialdata": {"rt": -1, "stimulus": "", "key_press": -1, "type": "PRE_RECALL_DELAY", "trial_type": "single-stim", "trial_index": 169, "time_elapsed": 991293, "internal_node_id": "0.0-124.0-0.0"}}, {"uniqueid": "MTK0656:351SEKWQS1OVI2TDAFAX9ZB1YB8DMY", "current_trial": 170, "dateTime": 1512582499029, "trialdata": {"rt": -1000, "stimulus": "/static/audio/400Hz.wav", "key_press": -1, "type": "PRE_RECALL_ALERT", "trial_type": "single-audio", "trial_index": 170, "time_elapsed": 991794, "internal_node_id": "0.0-125.0"}}, {"uniqueid": "MTK0656:351SEKWQS1OVI2TDAFAX9ZB1YB8DMY", "current_trial": 171, "dateTime": 1512582559032, "trialdata": {"rt": [10112, 17414, 23747, 32264, 38631, 48599], "recwords": ["lake", "lagoon", "blouse", "soda", "drug", "cashier"], "type": "FREE_RECALL", "conditions": [24, 1600, "a", 24000], "trial": 4, "trial_type": "free-recall", "trial_index": 171, "time_elapsed": 1051795, "internal_node_id": "0.0-126.0-0.0"}}, {"uniqueid": "MTK0656:351SEKWQS1OVI2TDAFAX9ZB1YB8DMY", "current_trial": 172, "dateTime": 1512582682429, "trialdata": {"rt": 121396, "key_press": 32, "type": "INSTRUCTIONS", "trial_type": "text", "trial_index": 172, "time_elapsed": 1175194, "internal_node_id": "0.0-127.0"}}, {"uniqueid": "MTK0656:351SEKWQS1OVI2TDAFAX9ZB1YB8DMY", "current_trial": 173, "dateTime": 1512582696435, "trialdata": {"rt": [5105, 8548], "responses": ["13", "11"], "num1": [1, 1, 8], "num2": [4, 4, 3], "num3": [8, 6, 2], "type": "DISTRACTOR", "conditions": [24, 800, "v", 12000], "trial": 5, "trial_type": "math-distractor", "trial_index": 173, "time_elapsed": 1189200, "internal_node_id": "0.0-128.0"}}, {"uniqueid": "MTK0656:351SEKWQS1OVI2TDAFAX9ZB1YB8DMY", "current_trial": 174, "dateTime": 1512582699441, "trialdata": {"rt": -1, "stimulus": "<p id=\"stim\">10</p>", "key_press": -1, "trial_type": "single-stim", "trial_index": 174, "time_elapsed": 1192206, "internal_node_id": "0.0-129.0-0.0"}}, {"uniqueid": "MTK0656:351SEKWQS1OVI2TDAFAX9ZB1YB8DMY", "current_trial": 175, "dateTime": 1512582700445, "trialdata": {"rt": -1, "stimulus": "<p id=\"stim\">9</p>", "key_press": -1, "trial_type": "single-stim", "trial_index": 175, "time_elapsed": 1193210, "internal_node_id": "0.0-129.0-1.0"}}, {"uniqueid": "MTK0656:351SEKWQS1OVI2TDAFAX9ZB1YB8DMY", "current_trial": 176, "dateTime": 1512582701449, "trialdata": {"rt": -1, "stimulus": "<p id=\"stim\">8</p>", "key_press": -1, "trial_type": "single-stim", "trial_index": 176, "time_elapsed": 1194214, "internal_node_id": "0.0-129.0-2.0"}}, {"uniqueid": "MTK0656:351SEKWQS1OVI2TDAFAX9ZB1YB8DMY", "current_trial": 177, "dateTime": 1512582702453, "trialdata": {"rt": -1, "stimulus": "<p id=\"stim\">7</p>", "key_press": -1, "trial_type": "single-stim", "trial_index": 177, "time_elapsed": 1195218, "internal_node_id": "0.0-129.0-3.0"}}, {"uniqueid": "MTK0656:351SEKWQS1OVI2TDAFAX9ZB1YB8DMY", "current_trial": 178, "dateTime": 1512582703457, "trialdata": {"rt": -1, "stimulus": "<p id=\"stim\">6</p>", "key_press": -1, "trial_type": "single-stim", "trial_index": 178, "time_elapsed": 1196222, "internal_node_id": "0.0-129.0-4.0"}}, {"uniqueid": "MTK0656:351SEKWQS1OVI2TDAFAX9ZB1YB8DMY", "current_trial": 179, "dateTime": 1512582704461, "trialdata": {"rt": -1, "stimulus": "<p id=\"stim\">5</p>", "key_press": -1, "trial_type": "single-stim", "trial_index": 179, "time_elapsed": 1197226, "internal_node_id": "0.0-129.0-5.0"}}, {"uniqueid": "MTK0656:351SEKWQS1OVI2TDAFAX9ZB1YB8DMY", "current_trial": 180, "dateTime": 1512582705465, "trialdata": {"rt": -1, "stimulus": "<p id=\"stim\">4</p>", "key_press": -1, "trial_type": "single-stim", "trial_index": 180, "time_elapsed": 1198230, "internal_node_id": "0.0-129.0-6.0"}}, {"uniqueid": "MTK0656:351SEKWQS1OVI2TDAFAX9ZB1YB8DMY", "current_trial": 181, "dateTime": 1512582706469, "trialdata": {"rt": -1, "stimulus": "<p id=\"stim\">3</p>", "key_press": -1, "trial_type": "single-stim", "trial_index": 181, "time_elapsed": 1199234, "internal_node_id": "0.0-129.0-7.0"}}, {"uniqueid": "MTK0656:351SEKWQS1OVI2TDAFAX9ZB1YB8DMY", "current_trial": 182, "dateTime": 1512582707470, "trialdata": {"rt": -1, "stimulus": "<p id=\"stim\">2</p>", "key_press": -1, "trial_type": "single-stim", "trial_index": 182, "time_elapsed": 1200235, "internal_node_id": "0.0-129.0-8.0"}}, {"uniqueid": "MTK0656:351SEKWQS1OVI2TDAFAX9ZB1YB8DMY", "current_trial": 183, "dateTime": 1512582708471, "trialdata": {"rt": -1, "stimulus": "<p id=\"stim\">1</p>", "key_press": -1, "trial_type": "single-stim", "trial_index": 183, "time_elapsed": 1201236, "internal_node_id": "0.0-129.0-9.0"}}, {"uniqueid": "MTK0656:351SEKWQS1OVI2TDAFAX9ZB1YB8DMY", "current_trial": 184, "dateTime": 1512582709972, "trialdata": {"rt": -1, "stimulus": "<p id=\"stim\">+</p>", "key_press": -1, "type": "FIXATION", "trial_type": "single-stim", "trial_index": 184, "time_elapsed": 1202737, "internal_node_id": "0.0-130.0-0.0"}}, {"uniqueid": "MTK0656:351SEKWQS1OVI2TDAFAX9ZB1YB8DMY", "current_trial": 185, "dateTime": 1512582710776, "trialdata": {"rt": -1, "stimulus": "<p id=\"stim\">FLAG</p>", "key_press": -1, "type": "PRES_VIS", "word": "flag", "wordID": 572, "conditions": [24, 800, "v", 12000], "trial": 5, "serialpos": 0, "trial_type": "single-stim", "trial_index": 185, "time_elapsed": 1203541, "internal_node_id": "0.0-131.0"}}, {"uniqueid": "MTK0656:351SEKWQS1OVI2TDAFAX9ZB1YB8DMY", "current_trial": 186, "dateTime": 1512582712419, "trialdata": {"rt": -1, "stimulus": "<p id=\"stim\">CHEMIST</p>", "key_press": -1, "type": "PRES_VIS", "word": "chemist", "wordID": 291, "conditions": [24, 800, "v", 12000], "trial": 5, "serialpos": 1, "trial_type": "single-stim", "trial_index": 186, "time_elapsed": 1205183, "internal_node_id": "0.0-132.0"}}, {"uniqueid": "MTK0656:351SEKWQS1OVI2TDAFAX9ZB1YB8DMY", "current_trial": 187, "dateTime": 1512582714101, "trialdata": {"rt": -1, "stimulus": "<p id=\"stim\">CRIB</p>", "key_press": -1, "type": "PRES_VIS", "word": "crib", "wordID": 406, "conditions": [24, 800, "v", 12000], "trial": 5, "serialpos": 2, "trial_type": "single-stim", "trial_index": 187, "time_elapsed": 1206866, "internal_node_id": "0.0-133.0"}}, {"uniqueid": "MTK0656:351SEKWQS1OVI2TDAFAX9ZB1YB8DMY", "current_trial": 188, "dateTime": 1512582715970, "trialdata": {"rt": -1, "stimulus": "<p id=\"stim\">UMPIRE</p>", "key_press": -1, "type": "PRES_VIS", "word": "umpire", "wordID": 1534, "conditions": [24, 800, "v", 12000], "trial": 5, "serialpos": 3, "trial_type": "single-stim", "trial_index": 188, "time_elapsed": 1208735, "internal_node_id": "0.0-134.0"}}, {"uniqueid": "MTK0656:351SEKWQS1OVI2TDAFAX9ZB1YB8DMY", "current_trial": 189, "dateTime": 1512582717729, "trialdata": {"rt": -1, "stimulus": "<p id=\"stim\">FLASHLIGHT</p>", "key_press": -1, "type": "PRES_VIS", "word": "flashlight", "wordID": 574, "conditions": [24, 800, "v", 12000], "trial": 5, "serialpos": 4, "trial_type": "single-stim", "trial_index": 189, "time_elapsed": 1210494, "internal_node_id": "0.0-135.0"}}, {"uniqueid": "MTK0656:351SEKWQS1OVI2TDAFAX9ZB1YB8DMY", "current_trial": 190, "dateTime": 1512582719429, "trialdata": {"rt": -1, "stimulus": "<p id=\"stim\">BLACKBOARD</p>", "key_press": -1, "type": "PRES_VIS", "word": "blackboard", "wordID": 132, "conditions": [24, 800, "v", 12000], "trial": 5, "serialpos": 5, "trial_type": "single-stim", "trial_index": 190, "time_elapsed": 1212194, "internal_node_id": "0.0-136.0"}}, {"uniqueid": "MTK0656:351SEKWQS1OVI2TDAFAX9ZB1YB8DMY", "current_trial": 191, "dateTime": 1512582721426, "trialdata": {"rt": -1, "stimulus": "<p id=\"stim\">PEBBLE</p>", "key_press": -1, "type": "PRES_VIS", "word": "pebble", "wordID": 1034, "conditions": [24, 800, "v", 12000], "trial": 5, "serialpos": 6, "trial_type": "single-stim", "trial_index": 191, "time_elapsed": 1214191, "internal_node_id": "0.0-137.0"}}, {"uniqueid": "MTK0656:351SEKWQS1OVI2TDAFAX9ZB1YB8DMY", "current_trial": 192, "dateTime": 1512582723195, "trialdata": {"rt": -1, "stimulus": "<p id=\"stim\">CANDY</p>", "key_press": -1, "type": "PRES_VIS", "word": "candy", "wordID": 229, "conditions": [24, 800, "v", 12000], "trial": 5, "serialpos": 7, "trial_type": "single-stim", "trial_index": 192, "time_elapsed": 1215960, "internal_node_id": "0.0-138.0"}}, {"uniqueid": "MTK0656:351SEKWQS1OVI2TDAFAX9ZB1YB8DMY", "current_trial": 193, "dateTime": 1512582724832, "trialdata": {"rt": -1, "stimulus": "<p id=\"stim\">VICTIM</p>", "key_press": -1, "type": "PRES_VIS", "word": "victim", "wordID": 1561, "conditions": [24, 800, "v", 12000], "trial": 5, "serialpos": 8, "trial_type": "single-stim", "trial_index": 193, "time_elapsed": 1217597, "internal_node_id": "0.0-139.0"}}, {"uniqueid": "MTK0656:351SEKWQS1OVI2TDAFAX9ZB1YB8DMY", "current_trial": 194, "dateTime": 1512582726637, "trialdata": {"rt": -1, "stimulus": "<p id=\"stim\">SUSPECT</p>", "key_press": -1, "type": "PRES_VIS", "word": "suspect", "wordID": 1414, "conditions": [24, 800, "v", 12000], "trial": 5, "serialpos": 9, "trial_type": "single-stim", "trial_index": 194, "time_elapsed": 1219402, "internal_node_id": "0.0-140.0"}}, {"uniqueid": "MTK0656:351SEKWQS1OVI2TDAFAX9ZB1YB8DMY", "current_trial": 195, "dateTime": 1512582728408, "trialdata": {"rt": -1, "stimulus": "<p id=\"stim\">SEAGULL</p>", "key_press": -1, "type": "PRES_VIS", "word": "seagull", "wordID": 1260, "conditions": [24, 800, "v", 12000], "trial": 5, "serialpos": 10, "trial_type": "single-stim", "trial_index": 195, "time_elapsed": 1221173, "internal_node_id": "0.0-141.0"}}, {"uniqueid": "MTK0656:351SEKWQS1OVI2TDAFAX9ZB1YB8DMY", "current_trial": 196, "dateTime": 1512582730364, "trialdata": {"rt": -1, "stimulus": "<p id=\"stim\">INFANT</p>", "key_press": -1, "type": "PRES_VIS", "word": "infant", "wordID": 736, "conditions": [24, 800, "v", 12000], "trial": 5, "serialpos": 11, "trial_type": "single-stim", "trial_index": 196, "time_elapsed": 1223128, "internal_node_id": "0.0-142.0"}}, {"uniqueid": "MTK0656:351SEKWQS1OVI2TDAFAX9ZB1YB8DMY", "current_trial": 197, "dateTime": 1512582732305, "trialdata": {"rt": -1, "stimulus": "<p id=\"stim\">BANJO</p>", "key_press": -1, "type": "PRES_VIS", "word": "banjo", "wordID": 81, "conditions": [24, 800, "v", 12000], "trial": 5, "serialpos": 12, "trial_type": "single-stim", "trial_index": 197, "time_elapsed": 1225070, "internal_node_id": "0.0-143.0"}}, {"uniqueid": "MTK0656:351SEKWQS1OVI2TDAFAX9ZB1YB8DMY", "current_trial": 198, "dateTime": 1512582734182, "trialdata": {"rt": -1, "stimulus": "<p id=\"stim\">CHAMPAGNE</p>", "key_press": -1, "type": "PRES_VIS", "word": "champagne", "wordID": 277, "conditions": [24, 800, "v", 12000], "trial": 5, "serialpos": 13, "trial_type": "single-stim", "trial_index": 198, "time_elapsed": 1226947, "internal_node_id": "0.0-144.0"}}, {"uniqueid": "MTK0656:351SEKWQS1OVI2TDAFAX9ZB1YB8DMY", "current_trial": 199, "dateTime": 1512582735960, "trialdata": {"rt": -1, "stimulus": "<p id=\"stim\">ROBIN</p>", "key_press": -1, "type": "PRES_VIS", "word": "robin", "wordID": 1198, "conditions": [24, 800, "v", 12000], "trial": 5, "serialpos": 14, "trial_type": "single-stim", "trial_index": 199, "time_elapsed": 1228724, "internal_node_id": "0.0-145.0"}}, {"uniqueid": "MTK0656:351SEKWQS1OVI2TDAFAX9ZB1YB8DMY", "current_trial": 200, "dateTime": 1512582737595, "trialdata": {"rt": -1, "stimulus": "<p id=\"stim\">SPARROW</p>", "key_press": -1, "type": "PRES_VIS", "word": "sparrow", "wordID": 1346, "conditions": [24, 800, "v", 12000], "trial": 5, "serialpos": 15, "trial_type": "single-stim", "trial_index": 200, "time_elapsed": 1230360, "internal_node_id": "0.0-146.0"}}, {"uniqueid": "MTK0656:351SEKWQS1OVI2TDAFAX9ZB1YB8DMY", "current_trial": 201, "dateTime": 1512582739354, "trialdata": {"rt": -1, "stimulus": "<p id=\"stim\">SPOON</p>", "key_press": -1, "type": "PRES_VIS", "word": "spoon", "wordID": 1356, "conditions": [24, 800, "v", 12000], "trial": 5, "serialpos": 16, "trial_type": "single-stim", "trial_index": 201, "time_elapsed": 1232118, "internal_node_id": "0.0-147.0"}}, {"uniqueid": "MTK0656:351SEKWQS1OVI2TDAFAX9ZB1YB8DMY", "current_trial": 202, "dateTime": 1512582741332, "trialdata": {"rt": -1, "stimulus": "<p id=\"stim\">CYCLONE</p>", "key_press": -1, "type": "PRES_VIS", "word": "cyclone", "wordID": 430, "conditions": [24, 800, "v", 12000], "trial": 5, "serialpos": 17, "trial_type": "single-stim", "trial_index": 202, "time_elapsed": 1234097, "internal_node_id": "0.0-148.0"}}, {"uniqueid": "MTK0656:351SEKWQS1OVI2TDAFAX9ZB1YB8DMY", "current_trial": 203, "dateTime": 1512582742946, "trialdata": {"rt": -1, "stimulus": "<p id=\"stim\">CAFE</p>", "key_press": -1, "type": "PRES_VIS", "word": "cafe", "wordID": 215, "conditions": [24, 800, "v", 12000], "trial": 5, "serialpos": 18, "trial_type": "single-stim", "trial_index": 203, "time_elapsed": 1235711, "internal_node_id": "0.0-149.0"}}, {"uniqueid": "MTK0656:351SEKWQS1OVI2TDAFAX9ZB1YB8DMY", "current_trial": 204, "dateTime": 1512582744896, "trialdata": {"rt": -1, "stimulus": "<p id=\"stim\">TRACTOR</p>", "key_press": -1, "type": "PRES_VIS", "word": "tractor", "wordID": 1492, "conditions": [24, 800, "v", 12000], "trial": 5, "serialpos": 19, "trial_type": "single-stim", "trial_index": 204, "time_elapsed": 1237661, "internal_node_id": "0.0-150.0"}}, {"uniqueid": "MTK0656:351SEKWQS1OVI2TDAFAX9ZB1YB8DMY", "current_trial": 205, "dateTime": 1512582746590, "trialdata": {"rt": -1, "stimulus": "<p id=\"stim\">PICTURE</p>", "key_press": -1, "type": "PRES_VIS", "word": "picture", "wordID": 1060, "conditions": [24, 800, "v", 12000], "trial": 5, "serialpos": 20, "trial_type": "single-stim", "trial_index": 205, "time_elapsed": 1239355, "internal_node_id": "0.0-151.0"}}, {"uniqueid": "MTK0656:351SEKWQS1OVI2TDAFAX9ZB1YB8DMY", "current_trial": 206, "dateTime": 1512582748297, "trialdata": {"rt": -1, "stimulus": "<p id=\"stim\">EYELASH</p>", "key_press": -1, "type": "PRES_VIS", "word": "eyelash", "wordID": 545, "conditions": [24, 800, "v", 12000], "trial": 5, "serialpos": 21, "trial_type": "single-stim", "trial_index": 206, "time_elapsed": 1241062, "internal_node_id": "0.0-152.0"}}, {"uniqueid": "MTK0656:351SEKWQS1OVI2TDAFAX9ZB1YB8DMY", "current_trial": 207, "dateTime": 1512582750224, "trialdata": {"rt": -1, "stimulus": "<p id=\"stim\">LAMP</p>", "key_press": -1, "type": "PRES_VIS", "word": "lamp", "wordID": 797, "conditions": [24, 800, "v", 12000], "trial": 5, "serialpos": 22, "trial_type": "single-stim", "trial_index": 207, "time_elapsed": 1242989, "internal_node_id": "0.0-153.0"}}, {"uniqueid": "MTK0656:351SEKWQS1OVI2TDAFAX9ZB1YB8DMY", "current_trial": 208, "dateTime": 1512582751866, "trialdata": {"rt": -1, "stimulus": "<p id=\"stim\">DINER</p>", "key_press": -1, "type": "PRES_VIS", "word": "diner", "wordID": 466, "conditions": [24, 800, "v", 12000], "trial": 5, "serialpos": 23, "trial_type": "single-stim", "trial_index": 208, "time_elapsed": 1244631, "internal_node_id": "0.0-154.0"}}, {"uniqueid": "MTK0656:351SEKWQS1OVI2TDAFAX9ZB1YB8DMY", "current_trial": 209, "dateTime": 1512582754124, "trialdata": {"rt": -1, "stimulus": "", "key_press": -1, "type": "PRE_RECALL_DELAY", "trial_type": "single-stim", "trial_index": 209, "time_elapsed": 1246889, "internal_node_id": "0.0-155.0-0.0"}}, {"uniqueid": "MTK0656:351SEKWQS1OVI2TDAFAX9ZB1YB8DMY", "current_trial": 210, "dateTime": 1512582754626, "trialdata": {"rt": -1000, "stimulus": "/static/audio/400Hz.wav", "key_press": -1, "type": "PRE_RECALL_ALERT", "trial_type": "single-audio", "trial_index": 210, "time_elapsed": 1247391, "internal_node_id": "0.0-156.0"}}, {"uniqueid": "MTK0656:351SEKWQS1OVI2TDAFAX9ZB1YB8DMY", "current_trial": 211, "dateTime": 1512582814628, "trialdata": {"rt": [29299, 58100], "recwords": ["flashlight", "blackboard"], "type": "FREE_RECALL", "conditions": [24, 800, "v", 12000], "trial": 5, "trial_type": "free-recall", "trial_index": 211, "time_elapsed": 1307391, "internal_node_id": "0.0-157.0-0.0"}}, {"uniqueid": "MTK0656:351SEKWQS1OVI2TDAFAX9ZB1YB8DMY", "current_trial": 212, "dateTime": 1512582818521, "trialdata": {"rt": 1892, "key_press": 32, "type": "INSTRUCTIONS", "trial_type": "text", "trial_index": 212, "time_elapsed": 1311286, "internal_node_id": "0.0-158.0"}}, {"uniqueid": "MTK0656:351SEKWQS1OVI2TDAFAX9ZB1YB8DMY", "current_trial": 213, "dateTime": 1512582832524, "trialdata": {"rt": [], "responses": [], "num1": [6], "num2": [9], "num3": [5], "type": "DISTRACTOR", "conditions": [24, 1600, "a", 12000], "trial": 6, "trial_type": "math-distractor", "trial_index": 213, "time_elapsed": 1325289, "internal_node_id": "0.0-159.0"}}, {"uniqueid": "MTK0656:351SEKWQS1OVI2TDAFAX9ZB1YB8DMY", "current_trial": 214, "dateTime": 1512582835531, "trialdata": {"rt": -1, "stimulus": "<p id=\"stim\">10</p>", "key_press": -1, "trial_type": "single-stim", "trial_index": 214, "time_elapsed": 1328296, "internal_node_id": "0.0-160.0-0.0"}}, {"uniqueid": "MTK0656:351SEKWQS1OVI2TDAFAX9ZB1YB8DMY", "current_trial": 215, "dateTime": 1512582836534, "trialdata": {"rt": -1, "stimulus": "<p id=\"stim\">9</p>", "key_press": -1, "trial_type": "single-stim", "trial_index": 215, "time_elapsed": 1329299, "internal_node_id": "0.0-160.0-1.0"}}, {"uniqueid": "MTK0656:351SEKWQS1OVI2TDAFAX9ZB1YB8DMY", "current_trial": 216, "dateTime": 1512582837540, "trialdata": {"rt": -1, "stimulus": "<p id=\"stim\">8</p>", "key_press": -1, "trial_type": "single-stim", "trial_index": 216, "time_elapsed": 1330304, "internal_node_id": "0.0-160.0-2.0"}}, {"uniqueid": "MTK0656:351SEKWQS1OVI2TDAFAX9ZB1YB8DMY", "current_trial": 217, "dateTime": 1512582838543, "trialdata": {"rt": -1, "stimulus": "<p id=\"stim\">7</p>", "key_press": -1, "trial_type": "single-stim", "trial_index": 217, "time_elapsed": 1331308, "internal_node_id": "0.0-160.0-3.0"}}, {"uniqueid": "MTK0656:351SEKWQS1OVI2TDAFAX9ZB1YB8DMY", "current_trial": 218, "dateTime": 1512582839547, "trialdata": {"rt": -1, "stimulus": "<p id=\"stim\">6</p>", "key_press": -1, "trial_type": "single-stim", "trial_index": 218, "time_elapsed": 1332312, "internal_node_id": "0.0-160.0-4.0"}}, {"uniqueid": "MTK0656:351SEKWQS1OVI2TDAFAX9ZB1YB8DMY", "current_trial": 219, "dateTime": 1512582840551, "trialdata": {"rt": -1, "stimulus": "<p id=\"stim\">5</p>", "key_press": -1, "trial_type": "single-stim", "trial_index": 219, "time_elapsed": 1333316, "internal_node_id": "0.0-160.0-5.0"}}, {"uniqueid": "MTK0656:351SEKWQS1OVI2TDAFAX9ZB1YB8DMY", "current_trial": 220, "dateTime": 1512582841555, "trialdata": {"rt": -1, "stimulus": "<p id=\"stim\">4</p>", "key_press": -1, "trial_type": "single-stim", "trial_index": 220, "time_elapsed": 1334320, "internal_node_id": "0.0-160.0-6.0"}}, {"uniqueid": "MTK0656:351SEKWQS1OVI2TDAFAX9ZB1YB8DMY", "current_trial": 221, "dateTime": 1512582842559, "trialdata": {"rt": -1, "stimulus": "<p id=\"stim\">3</p>", "key_press": -1, "trial_type": "single-stim", "trial_index": 221, "time_elapsed": 1335324, "internal_node_id": "0.0-160.0-7.0"}}, {"uniqueid": "MTK0656:351SEKWQS1OVI2TDAFAX9ZB1YB8DMY", "current_trial": 222, "dateTime": 1512582843563, "trialdata": {"rt": -1, "stimulus": "<p id=\"stim\">2</p>", "key_press": -1, "trial_type": "single-stim", "trial_index": 222, "time_elapsed": 1336328, "internal_node_id": "0.0-160.0-8.0"}}, {"uniqueid": "MTK0656:351SEKWQS1OVI2TDAFAX9ZB1YB8DMY", "current_trial": 223, "dateTime": 1512582844567, "trialdata": {"rt": -1, "stimulus": "<p id=\"stim\">1</p>", "key_press": -1, "trial_type": "single-stim", "trial_index": 223, "time_elapsed": 1337332, "internal_node_id": "0.0-160.0-9.0"}}, {"uniqueid": "MTK0656:351SEKWQS1OVI2TDAFAX9ZB1YB8DMY", "current_trial": 224, "dateTime": 1512582846070, "trialdata": {"rt": -1, "stimulus": "<p id=\"stim\">+</p>", "key_press": -1, "type": "FIXATION", "trial_type": "single-stim", "trial_index": 224, "time_elapsed": 1338835, "internal_node_id": "0.0-161.0-0.0"}}, {"uniqueid": "MTK0656:351SEKWQS1OVI2TDAFAX9ZB1YB8DMY", "current_trial": 225, "dateTime": 1512582848740, "trialdata": {"rt": -1000, "stimulus": "/static/audio/wordpool/SMOG.wav", "key_press": -1, "type": "PRES_AUD", "word": "smog", "wordID": 1329, "conditions": [24, 1600, "a", 12000], "trial": 6, "serialpos": 0, "trial_type": "single-audio", "trial_index": 225, "time_elapsed": 1341505, "internal_node_id": "0.0-162.0"}}, {"uniqueid": "MTK0656:351SEKWQS1OVI2TDAFAX9ZB1YB8DMY", "current_trial": 226, "dateTime": 1512582851476, "trialdata": {"rt": -1000, "stimulus": "/static/audio/wordpool/PORTRAIT.wav", "key_press": -1, "type": "PRES_AUD", "word": "portrait", "wordID": 1110, "conditions": [24, 1600, "a", 12000], "trial": 6, "serialpos": 1, "trial_type": "single-audio", "trial_index": 226, "time_elapsed": 1344241, "internal_node_id": "0.0-163.0"}}, {"uniqueid": "MTK0656:351SEKWQS1OVI2TDAFAX9ZB1YB8DMY", "current_trial": 227, "dateTime": 1512582854244, "trialdata": {"rt": -1000, "stimulus": "/static/audio/wordpool/MATTRESS.wav", "key_press": -1, "type": "PRES_AUD", "word": "mattress", "wordID": 878, "conditions": [24, 1600, "a", 12000], "trial": 6, "serialpos": 2, "trial_type": "single-audio", "trial_index": 227, "time_elapsed": 1347009, "internal_node_id": "0.0-164.0"}}, {"uniqueid": "MTK0656:351SEKWQS1OVI2TDAFAX9ZB1YB8DMY", "current_trial": 228, "dateTime": 1512582856983, "trialdata": {"rt": -1000, "stimulus": "/static/audio/wordpool/NOMAD.wav", "key_press": -1, "type": "PRES_AUD", "word": "nomad", "wordID": 954, "conditions": [24, 1600, "a", 12000], "trial": 6, "serialpos": 3, "trial_type": "single-audio", "trial_index": 228, "time_elapsed": 1349748, "internal_node_id": "0.0-165.0"}}, {"uniqueid": "MTK0656:351SEKWQS1OVI2TDAFAX9ZB1YB8DMY", "current_trial": 229, "dateTime": 1512582859729, "trialdata": {"rt": -1000, "stimulus": "/static/audio/wordpool/TURKEY.wav", "key_press": -1, "type": "PRES_AUD", "word": "turkey", "wordID": 1519, "conditions": [24, 1600, "a", 12000], "trial": 6, "serialpos": 4, "trial_type": "single-audio", "trial_index": 229, "time_elapsed": 1352494, "internal_node_id": "0.0-166.0"}}, {"uniqueid": "MTK0656:351SEKWQS1OVI2TDAFAX9ZB1YB8DMY", "current_trial": 230, "dateTime": 1512582862289, "trialdata": {"rt": -1000, "stimulus": "/static/audio/wordpool/SCOTCH.wav", "key_press": -1, "type": "PRES_AUD", "word": "scotch", "wordID": 1250, "conditions": [24, 1600, "a", 12000], "trial": 6, "serialpos": 5, "trial_type": "single-audio", "trial_index": 230, "time_elapsed": 1355054, "internal_node_id": "0.0-167.0"}}, {"uniqueid": "MTK0656:351SEKWQS1OVI2TDAFAX9ZB1YB8DMY", "current_trial": 231, "dateTime": 1512582864710, "trialdata": {"rt": -1000, "stimulus": "/static/audio/wordpool/BEAKER.wav", "key_press": -1, "type": "PRES_AUD", "word": "beaker", "wordID": 103, "conditions": [24, 1600, "a", 12000], "trial": 6, "serialpos": 6, "trial_type": "single-audio", "trial_index": 231, "time_elapsed": 1357475, "internal_node_id": "0.0-168.0"}}, {"uniqueid": "MTK0656:351SEKWQS1OVI2TDAFAX9ZB1YB8DMY", "current_trial": 232, "dateTime": 1512582867310, "trialdata": {"rt": -1000, "stimulus": "/static/audio/wordpool/LIZARD.wav", "key_press": -1, "type": "PRES_AUD", "word": "lizard", "wordID": 833, "conditions": [24, 1600, "a", 12000], "trial": 6, "serialpos": 7, "trial_type": "single-audio", "trial_index": 232, "time_elapsed": 1360075, "internal_node_id": "0.0-169.0"}}, {"uniqueid": "MTK0656:351SEKWQS1OVI2TDAFAX9ZB1YB8DMY", "current_trial": 233, "dateTime": 1512582869974, "trialdata": {"rt": -1000, "stimulus": "/static/audio/wordpool/PARROT.wav", "key_press": -1, "type": "PRES_AUD", "word": "parrot", "wordID": 1014, "conditions": [24, 1600, "a", 12000], "trial": 6, "serialpos": 8, "trial_type": "single-audio", "trial_index": 233, "time_elapsed": 1362739, "internal_node_id": "0.0-170.0"}}, {"uniqueid": "MTK0656:351SEKWQS1OVI2TDAFAX9ZB1YB8DMY", "current_trial": 234, "dateTime": 1512582872668, "trialdata": {"rt": -1000, "stimulus": "/static/audio/wordpool/FLASK.wav", "key_press": -1, "type": "PRES_AUD", "word": "flask", "wordID": 575, "conditions": [24, 1600, "a", 12000], "trial": 6, "serialpos": 9, "trial_type": "single-audio", "trial_index": 234, "time_elapsed": 1365432, "internal_node_id": "0.0-171.0"}}, {"uniqueid": "MTK0656:351SEKWQS1OVI2TDAFAX9ZB1YB8DMY", "current_trial": 235, "dateTime": 1512582875152, "trialdata": {"rt": -1000, "stimulus": "/static/audio/wordpool/SERVANT.wav", "key_press": -1, "type": "PRES_AUD", "word": "servant", "wordID": 1270, "conditions": [24, 1600, "a", 12000], "trial": 6, "serialpos": 10, "trial_type": "single-audio", "trial_index": 235, "time_elapsed": 1367917, "internal_node_id": "0.0-172.0"}}, {"uniqueid": "MTK0656:351SEKWQS1OVI2TDAFAX9ZB1YB8DMY", "current_trial": 236, "dateTime": 1512582877741, "trialdata": {"rt": -1000, "stimulus": "/static/audio/wordpool/RIVER.wav", "key_press": -1, "type": "PRES_AUD", "word": "river", "wordID": 1193, "conditions": [24, 1600, "a", 12000], "trial": 6, "serialpos": 11, "trial_type": "single-audio", "trial_index": 236, "time_elapsed": 1370506, "internal_node_id": "0.0-173.0"}}, {"uniqueid": "MTK0656:351SEKWQS1OVI2TDAFAX9ZB1YB8DMY", "current_trial": 237, "dateTime": 1512582880527, "trialdata": {"rt": -1000, "stimulus": "/static/audio/wordpool/SPIDER.wav", "key_press": -1, "type": "PRES_AUD", "word": "spider", "wordID": 1350, "conditions": [24, 1600, "a", 12000], "trial": 6, "serialpos": 12, "trial_type": "single-audio", "trial_index": 237, "time_elapsed": 1373292, "internal_node_id": "0.0-174.0"}}, {"uniqueid": "MTK0656:351SEKWQS1OVI2TDAFAX9ZB1YB8DMY", "current_trial": 238, "dateTime": 1512582883018, "trialdata": {"rt": -1000, "stimulus": "/static/audio/wordpool/WASP.wav", "key_press": -1, "type": "PRES_AUD", "word": "wasp", "wordID": 1592, "conditions": [24, 1600, "a", 12000], "trial": 6, "serialpos": 13, "trial_type": "single-audio", "trial_index": 238, "time_elapsed": 1375782, "internal_node_id": "0.0-175.0"}}, {"uniqueid": "MTK0656:351SEKWQS1OVI2TDAFAX9ZB1YB8DMY", "current_trial": 239, "dateTime": 1512582885700, "trialdata": {"rt": -1000, "stimulus": "/static/audio/wordpool/OFFICE.wav", "key_press": -1, "type": "PRES_AUD", "word": "office", "wordID": 971, "conditions": [24, 1600, "a", 12000], "trial": 6, "serialpos": 14, "trial_type": "single-audio", "trial_index": 239, "time_elapsed": 1378465, "internal_node_id": "0.0-176.0"}}, {"uniqueid": "MTK0656:351SEKWQS1OVI2TDAFAX9ZB1YB8DMY", "current_trial": 240, "dateTime": 1512582888248, "trialdata": {"rt": -1000, "stimulus": "/static/audio/wordpool/BUREAU.wav", "key_press": -1, "type": "PRES_AUD", "word": "bureau", "wordID": 198, "conditions": [24, 1600, "a", 12000], "trial": 6, "serialpos": 15, "trial_type": "single-audio", "trial_index": 240, "time_elapsed": 1381013, "internal_node_id": "0.0-177.0"}}, {"uniqueid": "MTK0656:351SEKWQS1OVI2TDAFAX9ZB1YB8DMY", "current_trial": 241, "dateTime": 1512582890676, "trialdata": {"rt": -1000, "stimulus": "/static/audio/wordpool/LILY.wav", "key_press": -1, "type": "PRES_AUD", "word": "lily", "wordID": 820, "conditions": [24, 1600, "a", 12000], "trial": 6, "serialpos": 16, "trial_type": "single-audio", "trial_index": 241, "time_elapsed": 1383441, "internal_node_id": "0.0-178.0"}}, {"uniqueid": "MTK0656:351SEKWQS1OVI2TDAFAX9ZB1YB8DMY", "current_trial": 242, "dateTime": 1512582893356, "trialdata": {"rt": -1000, "stimulus": "/static/audio/wordpool/SKILLET.wav", "key_press": -1, "type": "PRES_AUD", "word": "skillet", "wordID": 1316, "conditions": [24, 1600, "a", 12000], "trial": 6, "serialpos": 17, "trial_type": "single-audio", "trial_index": 242, "time_elapsed": 1386121, "internal_node_id": "0.0-179.0"}}, {"uniqueid": "MTK0656:351SEKWQS1OVI2TDAFAX9ZB1YB8DMY", "current_trial": 243, "dateTime": 1512582896097, "trialdata": {"rt": -1000, "stimulus": "/static/audio/wordpool/APPLE.wav", "key_press": -1, "type": "PRES_AUD", "word": "apple", "wordID": 32, "conditions": [24, 1600, "a", 12000], "trial": 6, "serialpos": 18, "trial_type": "single-audio", "trial_index": 243, "time_elapsed": 1388862, "internal_node_id": "0.0-180.0"}}, {"uniqueid": "MTK0656:351SEKWQS1OVI2TDAFAX9ZB1YB8DMY", "current_trial": 244, "dateTime": 1512582898592, "trialdata": {"rt": -1000, "stimulus": "/static/audio/wordpool/TORTOISE.wav", "key_press": -1, "type": "PRES_AUD", "word": "tortoise", "wordID": 1485, "conditions": [24, 1600, "a", 12000], "trial": 6, "serialpos": 19, "trial_type": "single-audio", "trial_index": 244, "time_elapsed": 1391357, "internal_node_id": "0.0-181.0"}}, {"uniqueid": "MTK0656:351SEKWQS1OVI2TDAFAX9ZB1YB8DMY", "current_trial": 245, "dateTime": 1512582901176, "trialdata": {"rt": -1000, "stimulus": "/static/audio/wordpool/RAZOR.wav", "key_press": -1, "type": "PRES_AUD", "word": "razor", "wordID": 1170, "conditions": [24, 1600, "a", 12000], "trial": 6, "serialpos": 20, "trial_type": "single-audio", "trial_index": 245, "time_elapsed": 1393940, "internal_node_id": "0.0-182.0"}}, {"uniqueid": "MTK0656:351SEKWQS1OVI2TDAFAX9ZB1YB8DMY", "current_trial": 246, "dateTime": 1512582903961, "trialdata": {"rt": -1000, "stimulus": "/static/audio/wordpool/BACON.wav", "key_press": -1, "type": "PRES_AUD", "word": "bacon", "wordID": 66, "conditions": [24, 1600, "a", 12000], "trial": 6, "serialpos": 21, "trial_type": "single-audio", "trial_index": 246, "time_elapsed": 1396726, "internal_node_id": "0.0-183.0"}}, {"uniqueid": "MTK0656:351SEKWQS1OVI2TDAFAX9ZB1YB8DMY", "current_trial": 247, "dateTime": 1512582906751, "trialdata": {"rt": -1000, "stimulus": "/static/audio/wordpool/CAMEL.wav", "key_press": -1, "type": "PRES_AUD", "word": "camel", "wordID": 222, "conditions": [24, 1600, "a", 12000], "trial": 6, "serialpos": 22, "trial_type": "single-audio", "trial_index": 247, "time_elapsed": 1399516, "internal_node_id": "0.0-184.0"}}, {"uniqueid": "MTK0656:351SEKWQS1OVI2TDAFAX9ZB1YB8DMY", "current_trial": 248, "dateTime": 1512582909516, "trialdata": {"rt": -1000, "stimulus": "/static/audio/wordpool/GRILL.wav", "key_press": -1, "type": "PRES_AUD", "word": "grill", "wordID": 660, "conditions": [24, 1600, "a", 12000], "trial": 6, "serialpos": 23, "trial_type": "single-audio", "trial_index": 248, "time_elapsed": 1402281, "internal_node_id": "0.0-185.0"}}, {"uniqueid": "MTK0656:351SEKWQS1OVI2TDAFAX9ZB1YB8DMY", "current_trial": 249, "dateTime": 1512582910881, "trialdata": {"rt": -1, "stimulus": "", "key_press": -1, "type": "PRE_RECALL_DELAY", "trial_type": "single-stim", "trial_index": 249, "time_elapsed": 1403646, "internal_node_id": "0.0-186.0-0.0"}}, {"uniqueid": "MTK0656:351SEKWQS1OVI2TDAFAX9ZB1YB8DMY", "current_trial": 250, "dateTime": 1512582911382, "trialdata": {"rt": -1000, "stimulus": "/static/audio/400Hz.wav", "key_press": -1, "type": "PRE_RECALL_ALERT", "trial_type": "single-audio", "trial_index": 250, "time_elapsed": 1404147, "internal_node_id": "0.0-187.0"}}, {"uniqueid": "MTK0656:351SEKWQS1OVI2TDAFAX9ZB1YB8DMY", "current_trial": 251, "dateTime": 1512582971387, "trialdata": {"rt": [13249, 21281, 28504, 34556, 41520, 48349, 53378, 59160], "recwords": ["smog", "portrait", "mattress", "nomad", "turkey", "scotch", "beaker", "lizzard"], "type": "FREE_RECALL", "conditions": [24, 1600, "a", 12000], "trial": 6, "trial_type": "free-recall", "trial_index": 251, "time_elapsed": 1464150, "internal_node_id": "0.0-188.0-0.0"}}, {"uniqueid": "MTK0656:351SEKWQS1OVI2TDAFAX9ZB1YB8DMY", "current_trial": 252, "dateTime": 1512582975257, "trialdata": {"rt": 1868, "key_press": 32, "type": "INSTRUCTIONS", "trial_type": "text", "trial_index": 252, "time_elapsed": 1468022, "internal_node_id": "0.0-189.0"}}, {"uniqueid": "MTK0656:351SEKWQS1OVI2TDAFAX9ZB1YB8DMY", "current_trial": 253, "dateTime": 1512582989261, "trialdata": {"rt": [], "responses": [], "num1": [8], "num2": [1], "num3": [1], "type": "DISTRACTOR", "conditions": [24, 800, "a", 12000], "trial": 7, "trial_type": "math-distractor", "trial_index": 253, "time_elapsed": 1482026, "internal_node_id": "0.0-190.0"}}, {"uniqueid": "MTK0656:351SEKWQS1OVI2TDAFAX9ZB1YB8DMY", "current_trial": 254, "dateTime": 1512582992267, "trialdata": {"rt": -1, "stimulus": "<p id=\"stim\">10</p>", "key_press": -1, "trial_type": "single-stim", "trial_index": 254, "time_elapsed": 1485032, "internal_node_id": "0.0-191.0-0.0"}}, {"uniqueid": "MTK0656:351SEKWQS1OVI2TDAFAX9ZB1YB8DMY", "current_trial": 255, "dateTime": 1512582993271, "trialdata": {"rt": -1, "stimulus": "<p id=\"stim\">9</p>", "key_press": -1, "trial_type": "single-stim", "trial_index": 255, "time_elapsed": 1486036, "internal_node_id": "0.0-191.0-1.0"}}, {"uniqueid": "MTK0656:351SEKWQS1OVI2TDAFAX9ZB1YB8DMY", "current_trial": 256, "dateTime": 1512582994275, "trialdata": {"rt": -1, "stimulus": "<p id=\"stim\">8</p>", "key_press": -1, "trial_type": "single-stim", "trial_index": 256, "time_elapsed": 1487040, "internal_node_id": "0.0-191.0-2.0"}}, {"uniqueid": "MTK0656:351SEKWQS1OVI2TDAFAX9ZB1YB8DMY", "current_trial": 257, "dateTime": 1512582995279, "trialdata": {"rt": -1, "stimulus": "<p id=\"stim\">7</p>", "key_press": -1, "trial_type": "single-stim", "trial_index": 257, "time_elapsed": 1488044, "internal_node_id": "0.0-191.0-3.0"}}, {"uniqueid": "MTK0656:351SEKWQS1OVI2TDAFAX9ZB1YB8DMY", "current_trial": 258, "dateTime": 1512582996284, "trialdata": {"rt": -1, "stimulus": "<p id=\"stim\">6</p>", "key_press": -1, "trial_type": "single-stim", "trial_index": 258, "time_elapsed": 1489048, "internal_node_id": "0.0-191.0-4.0"}}, {"uniqueid": "MTK0656:351SEKWQS1OVI2TDAFAX9ZB1YB8DMY", "current_trial": 259, "dateTime": 1512582997287, "trialdata": {"rt": -1, "stimulus": "<p id=\"stim\">5</p>", "key_press": -1, "trial_type": "single-stim", "trial_index": 259, "time_elapsed": 1490052, "internal_node_id": "0.0-191.0-5.0"}}, {"uniqueid": "MTK0656:351SEKWQS1OVI2TDAFAX9ZB1YB8DMY", "current_trial": 260, "dateTime": 1512582998292, "trialdata": {"rt": -1, "stimulus": "<p id=\"stim\">4</p>", "key_press": -1, "trial_type": "single-stim", "trial_index": 260, "time_elapsed": 1491056, "internal_node_id": "0.0-191.0-6.0"}}, {"uniqueid": "MTK0656:351SEKWQS1OVI2TDAFAX9ZB1YB8DMY", "current_trial": 261, "dateTime": 1512582999295, "trialdata": {"rt": -1, "stimulus": "<p id=\"stim\">3</p>", "key_press": -1, "trial_type": "single-stim", "trial_index": 261, "time_elapsed": 1492060, "internal_node_id": "0.0-191.0-7.0"}}, {"uniqueid": "MTK0656:351SEKWQS1OVI2TDAFAX9ZB1YB8DMY", "current_trial": 262, "dateTime": 1512583000299, "trialdata": {"rt": -1, "stimulus": "<p id=\"stim\">2</p>", "key_press": -1, "trial_type": "single-stim", "trial_index": 262, "time_elapsed": 1493064, "internal_node_id": "0.0-191.0-8.0"}}, {"uniqueid": "MTK0656:351SEKWQS1OVI2TDAFAX9ZB1YB8DMY", "current_trial": 263, "dateTime": 1512583001304, "trialdata": {"rt": -1, "stimulus": "<p id=\"stim\">1</p>", "key_press": -1, "trial_type": "single-stim", "trial_index": 263, "time_elapsed": 1494068, "internal_node_id": "0.0-191.0-9.0"}}, {"uniqueid": "MTK0656:351SEKWQS1OVI2TDAFAX9ZB1YB8DMY", "current_trial": 264, "dateTime": 1512583002807, "trialdata": {"rt": -1, "stimulus": "<p id=\"stim\">+</p>", "key_press": -1, "type": "FIXATION", "trial_type": "single-stim", "trial_index": 264, "time_elapsed": 1495572, "internal_node_id": "0.0-192.0-0.0"}}, {"uniqueid": "MTK0656:351SEKWQS1OVI2TDAFAX9ZB1YB8DMY", "current_trial": 265, "dateTime": 1512583004482, "trialdata": {"rt": -1000, "stimulus": "/static/audio/wordpool/DAISY.wav", "key_press": -1, "type": "PRES_AUD", "word": "daisy", "wordID": 434, "conditions": [24, 800, "a", 12000], "trial": 7, "serialpos": 0, "trial_type": "single-audio", "trial_index": 265, "time_elapsed": 1497247, "internal_node_id": "0.0-193.0"}}, {"uniqueid": "MTK0656:351SEKWQS1OVI2TDAFAX9ZB1YB8DMY", "current_trial": 266, "dateTime": 1512583006459, "trialdata": {"rt": -1000, "stimulus": "/static/audio/wordpool/SCARECROW.wav", "key_press": -1, "type": "PRES_AUD", "word": "scarecrow", "wordID": 1244, "conditions": [24, 800, "a", 12000], "trial": 7, "serialpos": 1, "trial_type": "single-audio", "trial_index": 266, "time_elapsed": 1499223, "internal_node_id": "0.0-194.0"}}, {"uniqueid": "MTK0656:351SEKWQS1OVI2TDAFAX9ZB1YB8DMY", "current_trial": 267, "dateTime": 1512583008258, "trialdata": {"rt": -1000, "stimulus": "/static/audio/wordpool/HEADBAND.wav", "key_press": -1, "type": "PRES_AUD", "word": "headband", "wordID": 695, "conditions": [24, 800, "a", 12000], "trial": 7, "serialpos": 2, "trial_type": "single-audio", "trial_index": 267, "time_elapsed": 1501023, "internal_node_id": "0.0-195.0"}}, {"uniqueid": "MTK0656:351SEKWQS1OVI2TDAFAX9ZB1YB8DMY", "current_trial": 268, "dateTime": 1512583010150, "trialdata": {"rt": -1000, "stimulus": "/static/audio/wordpool/HOOD.wav", "key_press": -1, "type": "PRES_AUD", "word": "hood", "wordID": 713, "conditions": [24, 800, "a", 12000], "trial": 7, "serialpos": 3, "trial_type": "single-audio", "trial_index": 268, "time_elapsed": 1502914, "internal_node_id": "0.0-196.0"}}, {"uniqueid": "MTK0656:351SEKWQS1OVI2TDAFAX9ZB1YB8DMY", "current_trial": 269, "dateTime": 1512583012066, "trialdata": {"rt": -1000, "stimulus": "/static/audio/wordpool/TURTLE.wav", "key_press": -1, "type": "PRES_AUD", "word": "turtle", "wordID": 1521, "conditions": [24, 800, "a", 12000], "trial": 7, "serialpos": 4, "trial_type": "single-audio", "trial_index": 269, "time_elapsed": 1504830, "internal_node_id": "0.0-197.0"}}, {"uniqueid": "MTK0656:351SEKWQS1OVI2TDAFAX9ZB1YB8DMY", "current_trial": 270, "dateTime": 1512583013941, "trialdata": {"rt": -1000, "stimulus": "/static/audio/wordpool/CREATURE.wav", "key_press": -1, "type": "PRES_AUD", "word": "creature", "wordID": 402, "conditions": [24, 800, "a", 12000], "trial": 7, "serialpos": 5, "trial_type": "single-audio", "trial_index": 270, "time_elapsed": 1506705, "internal_node_id": "0.0-198.0"}}, {"uniqueid": "MTK0656:351SEKWQS1OVI2TDAFAX9ZB1YB8DMY", "current_trial": 271, "dateTime": 1512583015739, "trialdata": {"rt": -1000, "stimulus": "/static/audio/wordpool/TROUT.wav", "key_press": -1, "type": "PRES_AUD", "word": "trout", "wordID": 1510, "conditions": [24, 800, "a", 12000], "trial": 7, "serialpos": 6, "trial_type": "single-audio", "trial_index": 271, "time_elapsed": 1508504, "internal_node_id": "0.0-199.0"}}, {"uniqueid": "MTK0656:351SEKWQS1OVI2TDAFAX9ZB1YB8DMY", "current_trial": 272, "dateTime": 1512583017609, "trialdata": {"rt": -1000, "stimulus": "/static/audio/wordpool/DRAG