{"condition": 0, "counterbalance": 179, "assignmentId": "3UOUJI6MTELSTG33AH2VUGVNQVXXUH", "workerId": "MTK0449", "hitId": "385MDVINFCM23GPPYBXTWBCLMHHJWL", "currenttrial": 626, "bonus": 0, "data": [{"uniqueid": "MTK0449:3UOUJI6MTELSTG33AH2VUGVNQVXXUH", "current_trial": 0, "dateTime": 1510930310928, "trialdata": {"rt": 4319, "key_press": 13, "type": "INSTRUCTIONS", "trial_type": "text", "trial_index": 0, "time_elapsed": 4323, "internal_node_id": "0.0-0.0"}}, {"uniqueid": "MTK0449:3UOUJI6MTELSTG33AH2VUGVNQVXXUH", "current_trial": 1, "dateTime": 1510930314025, "trialdata": {"rt": 3093, "key_press": 17, "type": "INSTRUCTIONS", "trial_type": "text", "trial_index": 1, "time_elapsed": 7421, "internal_node_id": "0.0-1.0"}}, {"uniqueid": "MTK0449:3UOUJI6MTELSTG33AH2VUGVNQVXXUH", "current_trial": 2, "dateTime": 1510930402072, "trialdata": {"rt": [88000], "responses": ["ocean"], "type": "AUDIO_TEST", "trial_type": "audio-test", "trial_index": 2, "time_elapsed": 95469, "internal_node_id": "0.0-2.0"}}, {"uniqueid": "MTK0449:3UOUJI6MTELSTG33AH2VUGVNQVXXUH", "current_trial": 3, "dateTime": 1510930432330, "trialdata": {"rt": [30242], "responses": ["crystal"], "type": "AUDIO_TEST", "trial_type": "audio-test", "trial_index": 3, "time_elapsed": 125727, "internal_node_id": "0.0-3.0"}}, {"uniqueid": "MTK0449:3UOUJI6MTELSTG33AH2VUGVNQVXXUH", "current_trial": 4, "dateTime": 1510930452741, "trialdata": {"rt": [20398], "responses": ["spice"], "type": "AUDIO_TEST", "trial_type": "audio-test", "trial_index": 4, "time_elapsed": 146137, "internal_node_id": "0.0-4.0"}}, {"uniqueid": "MTK0449:3UOUJI6MTELSTG33AH2VUGVNQVXXUH", "current_trial": 5, "dateTime": 1510930505470, "trialdata": {"rt": 51974, "responses": "{\"Q0\":\"4\",\"Q1\":\"8\",\"Q2\":\"5\"}", "type": "SLEEP_SURVEY", "trial_type": "survey-text", "trial_index": 5, "time_elapsed": 198866, "internal_node_id": "0.0-5.0"}}, {"uniqueid": "MTK0449:3UOUJI6MTELSTG33AH2VUGVNQVXXUH", "current_trial": 6, "dateTime": 1510930576409, "trialdata": {"rt": 69938, "key_press": 13, "type": "INSTRUCTIONS", "trial_type": "text", "trial_index": 6, "time_elapsed": 269806, "internal_node_id": "0.0-6.0"}}, {"uniqueid": "MTK0449:3UOUJI6MTELSTG33AH2VUGVNQVXXUH", "current_trial": 7, "dateTime": 1510930607706, "trialdata": {"rt": 30796, "key_press": 13, "type": "INSTRUCTIONS", "trial_type": "text", "trial_index": 7, "time_elapsed": 301103, "internal_node_id": "0.0-7.0"}}, {"uniqueid": "MTK0449:3UOUJI6MTELSTG33AH2VUGVNQVXXUH", "current_trial": 8, "dateTime": 1510930635295, "trialdata": {"rt": 27087, "key_press": 13, "type": "INSTRUCTIONS", "trial_type": "text", "trial_index": 8, "time_elapsed": 328692, "internal_node_id": "0.0-8.0"}}, {"uniqueid": "MTK0449:3UOUJI6MTELSTG33AH2VUGVNQVXXUH", "current_trial": 9, "dateTime": 1510930654313, "trialdata": {"rt": [12016], "responses": ["12"], "num1": [4, 9], "num2": [4, 8], "num3": [4, 7], "type": "DISTRACTOR", "conditions": [18, 1200, "a", 18000], "trial": 0, "trial_type": "math-distractor", "trial_index": 9, "time_elapsed": 347710, "internal_node_id": "0.0-9.0"}}, {"uniqueid": "MTK0449:3UOUJI6MTELSTG33AH2VUGVNQVXXUH", "current_trial": 10, "dateTime": 1510930657333, "trialdata": {"rt": -1, "stimulus": "<p id=\"stim\">10</p>", "key_press": -1, "trial_type": "single-stim", "trial_index": 10, "time_elapsed": 350730, "internal_node_id": "0.0-10.0-0.0"}}, {"uniqueid": "MTK0449:3UOUJI6MTELSTG33AH2VUGVNQVXXUH", "current_trial": 11, "dateTime": 1510930658335, "trialdata": {"rt": -1, "stimulus": "<p id=\"stim\">9</p>", "key_press": -1, "trial_type": "single-stim", "trial_index": 11, "time_elapsed": 351732, "internal_node_id": "0.0-10.0-1.0"}}, {"uniqueid": "MTK0449:3UOUJI6MTELSTG33AH2VUGVNQVXXUH", "current_trial": 12, "dateTime": 1510930659336, "trialdata": {"rt": -1, "stimulus": "<p id=\"stim\">8</p>", "key_press": -1, "trial_type": "single-stim", "trial_index": 12, "time_elapsed": 352733, "internal_node_id": "0.0-10.0-2.0"}}, {"uniqueid": "MTK0449:3UOUJI6MTELSTG33AH2VUGVNQVXXUH", "current_trial": 13, "dateTime": 1510930660346, "trialdata": {"rt": -1, "stimulus": "<p id=\"stim\">7</p>", "key_press": -1, "trial_type": "single-stim", "trial_index": 13, "time_elapsed": 353743, "internal_node_id": "0.0-10.0-3.0"}}, {"uniqueid": "MTK0449:3UOUJI6MTELSTG33AH2VUGVNQVXXUH", "current_trial": 14, "dateTime": 1510930661347, "trialdata": {"rt": -1, "stimulus": "<p id=\"stim\">6</p>", "key_press": -1, "trial_type": "single-stim", "trial_index": 14, "time_elapsed": 354744, "internal_node_id": "0.0-10.0-4.0"}}, {"uniqueid": "MTK0449:3UOUJI6MTELSTG33AH2VUGVNQVXXUH", "current_trial": 15, "dateTime": 1510930662348, "trialdata": {"rt": 799, "stimulus": "<p id=\"stim\">5</p>", "key_press": 17, "trial_type": "single-stim", "trial_index": 15, "time_elapsed": 355745, "internal_node_id": "0.0-10.0-5.0"}}, {"uniqueid": "MTK0449:3UOUJI6MTELSTG33AH2VUGVNQVXXUH", "current_trial": 16, "dateTime": 1510930663349, "trialdata": {"rt": -1, "stimulus": "<p id=\"stim\">4</p>", "key_press": -1, "trial_type": "single-stim", "trial_index": 16, "time_elapsed": 356746, "internal_node_id": "0.0-10.0-6.0"}}, {"uniqueid": "MTK0449:3UOUJI6MTELSTG33AH2VUGVNQVXXUH", "current_trial": 17, "dateTime": 1510930664351, "trialdata": {"rt": -1, "stimulus": "<p id=\"stim\">3</p>", "key_press": -1, "trial_type": "single-stim", "trial_index": 17, "time_elapsed": 357748, "internal_node_id": "0.0-10.0-7.0"}}, {"uniqueid": "MTK0449:3UOUJI6MTELSTG33AH2VUGVNQVXXUH", "current_trial": 18, "dateTime": 1510930665352, "trialdata": {"rt": -1, "stimulus": "<p id=\"stim\">2</p>", "key_press": -1, "trial_type": "single-stim", "trial_index": 18, "time_elapsed": 358748, "internal_node_id": "0.0-10.0-8.0"}}, {"uniqueid": "MTK0449:3UOUJI6MTELSTG33AH2VUGVNQVXXUH", "current_trial": 19, "dateTime": 1510930666353, "trialdata": {"rt": -1, "stimulus": "<p id=\"stim\">1</p>", "key_press": -1, "trial_type": "single-stim", "trial_index": 19, "time_elapsed": 359750, "internal_node_id": "0.0-10.0-9.0"}}, {"uniqueid": "MTK0449:3UOUJI6MTELSTG33AH2VUGVNQVXXUH", "current_trial": 20, "dateTime": 1510930667856, "trialdata": {"rt": -1, "stimulus": "<p id=\"stim\">+</p>", "key_press": -1, "type": "FIXATION", "trial_type": "single-stim", "trial_index": 20, "time_elapsed": 361252, "internal_node_id": "0.0-11.0-0.0"}}, {"uniqueid": "MTK0449:3UOUJI6MTELSTG33AH2VUGVNQVXXUH", "current_trial": 21, "dateTime": 1510930669949, "trialdata": {"rt": -1000, "stimulus": "/static/audio/wordpool/PEANUT.wav", "key_press": -1, "type": "PRES_AUD", "word": "peanut", "wordID": 1031, "conditions": [18, 1200, "a", 18000], "trial": 0, "serialpos": 0, "trial_type": "single-audio", "trial_index": 21, "time_elapsed": 363346, "internal_node_id": "0.0-12.0"}}, {"uniqueid": "MTK0449:3UOUJI6MTELSTG33AH2VUGVNQVXXUH", "current_trial": 22, "dateTime": 1510930672336, "trialdata": {"rt": -1000, "stimulus": "/static/audio/wordpool/SUBWAY.wav", "key_press": -1, "type": "PRES_AUD", "word": "subway", "wordID": 1399, "conditions": [18, 1200, "a", 18000], "trial": 0, "serialpos": 1, "trial_type": "single-audio", "trial_index": 22, "time_elapsed": 365733, "internal_node_id": "0.0-13.0"}}, {"uniqueid": "MTK0449:3UOUJI6MTELSTG33AH2VUGVNQVXXUH", "current_trial": 23, "dateTime": 1510930674362, "trialdata": {"rt": -1000, "stimulus": "/static/audio/wordpool/CRAYON.wav", "key_press": -1, "type": "PRES_AUD", "word": "crayon", "wordID": 400, "conditions": [18, 1200, "a", 18000], "trial": 0, "serialpos": 2, "trial_type": "single-audio", "trial_index": 23, "time_elapsed": 367759, "internal_node_id": "0.0-14.0"}}, {"uniqueid": "MTK0449:3UOUJI6MTELSTG33AH2VUGVNQVXXUH", "current_trial": 24, "dateTime": 1510930676385, "trialdata": {"rt": -1000, "stimulus": "/static/audio/wordpool/VIRUS.wav", "key_press": -1, "type": "PRES_AUD", "word": "virus", "wordID": 1571, "conditions": [18, 1200, "a", 18000], "trial": 0, "serialpos": 3, "trial_type": "single-audio", "trial_index": 24, "time_elapsed": 369782, "internal_node_id": "0.0-15.0"}}, {"uniqueid": "MTK0449:3UOUJI6MTELSTG33AH2VUGVNQVXXUH", "current_trial": 25, "dateTime": 1510930678585, "trialdata": {"rt": -1000, "stimulus": "/static/audio/wordpool/BARLEY.wav", "key_press": -1, "type": "PRES_AUD", "word": "barley", "wordID": 87, "conditions": [18, 1200, "a", 18000], "trial": 0, "serialpos": 4, "trial_type": "single-audio", "trial_index": 25, "time_elapsed": 371982, "internal_node_id": "0.0-16.0"}}, {"uniqueid": "MTK0449:3UOUJI6MTELSTG33AH2VUGVNQVXXUH", "current_trial": 26, "dateTime": 1510930680663, "trialdata": {"rt": -1000, "stimulus": "/static/audio/wordpool/TRACTOR.wav", "key_press": -1, "type": "PRES_AUD", "word": "tractor", "wordID": 1492, "conditions": [18, 1200, "a", 18000], "trial": 0, "serialpos": 5, "trial_type": "single-audio", "trial_index": 26, "time_elapsed": 374060, "internal_node_id": "0.0-17.0"}}, {"uniqueid": "MTK0449:3UOUJI6MTELSTG33AH2VUGVNQVXXUH", "current_trial": 27, "dateTime": 1510930682893, "trialdata": {"rt": -1000, "stimulus": "/static/audio/wordpool/LACE.wav", "key_press": -1, "type": "PRES_AUD", "word": "lace", "wordID": 791, "conditions": [18, 1200, "a", 18000], "trial": 0, "serialpos": 6, "trial_type": "single-audio", "trial_index": 27, "time_elapsed": 376290, "internal_node_id": "0.0-18.0"}}, {"uniqueid": "MTK0449:3UOUJI6MTELSTG33AH2VUGVNQVXXUH", "current_trial": 28, "dateTime": 1510930685044, "trialdata": {"rt": -1000, "stimulus": "/static/audio/wordpool/SALAD.wav", "key_press": -1, "type": "PRES_AUD", "word": "salad", "wordID": 1223, "conditions": [18, 1200, "a", 18000], "trial": 0, "serialpos": 7, "trial_type": "single-audio", "trial_index": 28, "time_elapsed": 378441, "internal_node_id": "0.0-19.0"}}, {"uniqueid": "MTK0449:3UOUJI6MTELSTG33AH2VUGVNQVXXUH", "current_trial": 29, "dateTime": 1510930687200, "trialdata": {"rt": -1000, "stimulus": "/static/audio/wordpool/COBRA.wav", "key_press": -1, "type": "PRES_AUD", "word": "cobra", "wordID": 335, "conditions": [18, 1200, "a", 18000], "trial": 0, "serialpos": 8, "trial_type": "single-audio", "trial_index": 29, "time_elapsed": 380596, "internal_node_id": "0.0-20.0"}}, {"uniqueid": "MTK0449:3UOUJI6MTELSTG33AH2VUGVNQVXXUH", "current_trial": 30, "dateTime": 1510930689337, "trialdata": {"rt": -1000, "stimulus": "/static/audio/wordpool/MOP.wav", "key_press": -1, "type": "PRES_AUD", "word": "mop", "wordID": 915, "conditions": [18, 1200, "a", 18000], "trial": 0, "serialpos": 9, "trial_type": "single-audio", "trial_index": 30, "time_elapsed": 382734, "internal_node_id": "0.0-21.0"}}, {"uniqueid": "MTK0449:3UOUJI6MTELSTG33AH2VUGVNQVXXUH", "current_trial": 31, "dateTime": 1510930691349, "trialdata": {"rt": -1000, "stimulus": "/static/audio/wordpool/GARLIC.wav", "key_press": -1, "type": "PRES_AUD", "word": "garlic", "wordID": 623, "conditions": [18, 1200, "a", 18000], "trial": 0, "serialpos": 10, "trial_type": "single-audio", "trial_index": 31, "time_elapsed": 384746, "internal_node_id": "0.0-22.0"}}, {"uniqueid": "MTK0449:3UOUJI6MTELSTG33AH2VUGVNQVXXUH", "current_trial": 32, "dateTime": 1510930693463, "trialdata": {"rt": -1000, "stimulus": "/static/audio/wordpool/ATOM.wav", "key_press": -1, "type": "PRES_AUD", "word": "atom", "wordID": 54, "conditions": [18, 1200, "a", 18000], "trial": 0, "serialpos": 11, "trial_type": "single-audio", "trial_index": 32, "time_elapsed": 386859, "internal_node_id": "0.0-23.0"}}, {"uniqueid": "MTK0449:3UOUJI6MTELSTG33AH2VUGVNQVXXUH", "current_trial": 33, "dateTime": 1510930695809, "trialdata": {"rt": -1000, "stimulus": "/static/audio/wordpool/LETTUCE.wav", "key_press": -1, "type": "PRES_AUD", "word": "lettuce", "wordID": 813, "conditions": [18, 1200, "a", 18000], "trial": 0, "serialpos": 12, "trial_type": "single-audio", "trial_index": 33, "time_elapsed": 389206, "internal_node_id": "0.0-24.0"}}, {"uniqueid": "MTK0449:3UOUJI6MTELSTG33AH2VUGVNQVXXUH", "current_trial": 34, "dateTime": 1510930697864, "trialdata": {"rt": -1000, "stimulus": "/static/audio/wordpool/SHARK.wav", "key_press": -1, "type": "PRES_AUD", "word": "shark", "wordID": 1274, "conditions": [18, 1200, "a", 18000], "trial": 0, "serialpos": 13, "trial_type": "single-audio", "trial_index": 34, "time_elapsed": 391261, "internal_node_id": "0.0-25.0"}}, {"uniqueid": "MTK0449:3UOUJI6MTELSTG33AH2VUGVNQVXXUH", "current_trial": 35, "dateTime": 1510930700012, "trialdata": {"rt": -1000, "stimulus": "/static/audio/wordpool/DRIVER.wav", "key_press": -1, "type": "PRES_AUD", "word": "driver", "wordID": 498, "conditions": [18, 1200, "a", 18000], "trial": 0, "serialpos": 14, "trial_type": "single-audio", "trial_index": 35, "time_elapsed": 393409, "internal_node_id": "0.0-26.0"}}, {"uniqueid": "MTK0449:3UOUJI6MTELSTG33AH2VUGVNQVXXUH", "current_trial": 36, "dateTime": 1510930702348, "trialdata": {"rt": -1000, "stimulus": "/static/audio/wordpool/SKIRT.wav", "key_press": -1, "type": "PRES_AUD", "word": "skirt", "wordID": 1318, "conditions": [18, 1200, "a", 18000], "trial": 0, "serialpos": 15, "trial_type": "single-audio", "trial_index": 36, "time_elapsed": 395745, "internal_node_id": "0.0-27.0"}}, {"uniqueid": "MTK0449:3UOUJI6MTELSTG33AH2VUGVNQVXXUH", "current_trial": 37, "dateTime": 1510930704633, "trialdata": {"rt": -1000, "stimulus": "/static/audio/wordpool/SADDLE.wav", "key_press": -1, "type": "PRES_AUD", "word": "saddle", "wordID": 1220, "conditions": [18, 1200, "a", 18000], "trial": 0, "serialpos": 16, "trial_type": "single-audio", "trial_index": 37, "time_elapsed": 398030, "internal_node_id": "0.0-28.0"}}, {"uniqueid": "MTK0449:3UOUJI6MTELSTG33AH2VUGVNQVXXUH", "current_trial": 38, "dateTime": 1510930706894, "trialdata": {"rt": -1000, "stimulus": "/static/audio/wordpool/SLUG.wav", "key_press": -1, "type": "PRES_AUD", "word": "slug", "wordID": 1328, "conditions": [18, 1200, "a", 18000], "trial": 0, "serialpos": 17, "trial_type": "single-audio", "trial_index": 38, "time_elapsed": 400291, "internal_node_id": "0.0-29.0"}}, {"uniqueid": "MTK0449:3UOUJI6MTELSTG33AH2VUGVNQVXXUH", "current_trial": 39, "dateTime": 1510930708124, "trialdata": {"rt": -1, "stimulus": "", "key_press": -1, "type": "PRE_RECALL_DELAY", "trial_type": "single-stim", "trial_index": 39, "time_elapsed": 401521, "internal_node_id": "0.0-30.0-0.0"}}, {"uniqueid": "MTK0449:3UOUJI6MTELSTG33AH2VUGVNQVXXUH", "current_trial": 40, "dateTime": 1510930708633, "trialdata": {"rt": -1000, "stimulus": "/static/audio/400Hz.wav", "key_press": -1, "type": "PRE_RECALL_ALERT", "trial_type": "single-audio", "trial_index": 40, "time_elapsed": 402030, "internal_node_id": "0.0-31.0"}}, {"uniqueid": "MTK0449:3UOUJI6MTELSTG33AH2VUGVNQVXXUH", "current_trial": 41, "dateTime": 1510930768647, "trialdata": {"rt": [9070, 24888, 43439], "recwords": ["mop", "driver", "peanut"], "type": "FREE_RECALL", "conditions": [18, 1200, "a", 18000], "trial": 0, "trial_type": "free-recall", "trial_index": 41, "time_elapsed": 462037, "internal_node_id": "0.0-32.0-0.0"}}, {"uniqueid": "MTK0449:3UOUJI6MTELSTG33AH2VUGVNQVXXUH", "current_trial": 42, "dateTime": 1510930773394, "trialdata": {"rt": 2746, "key_press": 13, "type": "INSTRUCTIONS", "trial_type": "text", "trial_index": 42, "time_elapsed": 466790, "internal_node_id": "0.0-33.0"}}, {"uniqueid": "MTK0449:3UOUJI6MTELSTG33AH2VUGVNQVXXUH", "current_trial": 43, "dateTime": 1510930793400, "trialdata": {"rt": [7280, 15231], "responses": ["16", "7"], "num1": [6, 2, 3], "num2": [2, 1, 6], "num3": [8, 4, 5], "type": "DISTRACTOR", "conditions": [18, 1200, "v", 18000], "trial": 1, "trial_type": "math-distractor", "trial_index": 43, "time_elapsed": 486796, "internal_node_id": "0.0-34.0"}}, {"uniqueid": "MTK0449:3UOUJI6MTELSTG33AH2VUGVNQVXXUH", "current_trial": 44, "dateTime": 1510930796402, "trialdata": {"rt": -1, "stimulus": "<p id=\"stim\">10</p>", "key_press": -1, "trial_type": "single-stim", "trial_index": 44, "time_elapsed": 489799, "internal_node_id": "0.0-35.0-0.0"}}, {"uniqueid": "MTK0449:3UOUJI6MTELSTG33AH2VUGVNQVXXUH", "current_trial": 45, "dateTime": 1510930797404, "trialdata": {"rt": -1, "stimulus": "<p id=\"stim\">9</p>", "key_press": -1, "trial_type": "single-stim", "trial_index": 45, "time_elapsed": 490800, "internal_node_id": "0.0-35.0-1.0"}}, {"uniqueid": "MTK0449:3UOUJI6MTELSTG33AH2VUGVNQVXXUH", "current_trial": 46, "dateTime": 1510930798405, "trialdata": {"rt": -1, "stimulus": "<p id=\"stim\">8</p>", "key_press": -1, "trial_type": "single-stim", "trial_index": 46, "time_elapsed": 491801, "internal_node_id": "0.0-35.0-2.0"}}, {"uniqueid": "MTK0449:3UOUJI6MTELSTG33AH2VUGVNQVXXUH", "current_trial": 47, "dateTime": 1510930799406, "trialdata": {"rt": -1, "stimulus": "<p id=\"stim\">7</p>", "key_press": -1, "trial_type": "single-stim", "trial_index": 47, "time_elapsed": 492803, "internal_node_id": "0.0-35.0-3.0"}}, {"uniqueid": "MTK0449:3UOUJI6MTELSTG33AH2VUGVNQVXXUH", "current_trial": 48, "dateTime": 1510930800407, "trialdata": {"rt": -1, "stimulus": "<p id=\"stim\">6</p>", "key_press": -1, "trial_type": "single-stim", "trial_index": 48, "time_elapsed": 493803, "internal_node_id": "0.0-35.0-4.0"}}, {"uniqueid": "MTK0449:3UOUJI6MTELSTG33AH2VUGVNQVXXUH", "current_trial": 49, "dateTime": 1510930801408, "trialdata": {"rt": -1, "stimulus": "<p id=\"stim\">5</p>", "key_press": -1, "trial_type": "single-stim", "trial_index": 49, "time_elapsed": 494804, "internal_node_id": "0.0-35.0-5.0"}}, {"uniqueid": "MTK0449:3UOUJI6MTELSTG33AH2VUGVNQVXXUH", "current_trial": 50, "dateTime": 1510930802409, "trialdata": {"rt": -1, "stimulus": "<p id=\"stim\">4</p>", "key_press": -1, "trial_type": "single-stim", "trial_index": 50, "time_elapsed": 495805, "internal_node_id": "0.0-35.0-6.0"}}, {"uniqueid": "MTK0449:3UOUJI6MTELSTG33AH2VUGVNQVXXUH", "current_trial": 51, "dateTime": 1510930803410, "trialdata": {"rt": -1, "stimulus": "<p id=\"stim\">3</p>", "key_press": -1, "trial_type": "single-stim", "trial_index": 51, "time_elapsed": 496806, "internal_node_id": "0.0-35.0-7.0"}}, {"uniqueid": "MTK0449:3UOUJI6MTELSTG33AH2VUGVNQVXXUH", "current_trial": 52, "dateTime": 1510930804411, "trialdata": {"rt": -1, "stimulus": "<p id=\"stim\">2</p>", "key_press": -1, "trial_type": "single-stim", "trial_index": 52, "time_elapsed": 497807, "internal_node_id": "0.0-35.0-8.0"}}, {"uniqueid": "MTK0449:3UOUJI6MTELSTG33AH2VUGVNQVXXUH", "current_trial": 53, "dateTime": 1510930805412, "trialdata": {"rt": -1, "stimulus": "<p id=\"stim\">1</p>", "key_press": -1, "trial_type": "single-stim", "trial_index": 53, "time_elapsed": 498808, "internal_node_id": "0.0-35.0-9.0"}}, {"uniqueid": "MTK0449:3UOUJI6MTELSTG33AH2VUGVNQVXXUH", "current_trial": 54, "dateTime": 1510930806913, "trialdata": {"rt": -1, "stimulus": "<p id=\"stim\">+</p>", "key_press": -1, "type": "FIXATION", "trial_type": "single-stim", "trial_index": 54, "time_elapsed": 500310, "internal_node_id": "0.0-36.0-0.0"}}, {"uniqueid": "MTK0449:3UOUJI6MTELSTG33AH2VUGVNQVXXUH", "current_trial": 55, "dateTime": 1510930808114, "trialdata": {"rt": -1, "stimulus": "<p id=\"stim\">SPOOL</p>", "key_press": -1, "type": "PRES_VIS", "word": "spool", "wordID": 1355, "conditions": [18, 1200, "v", 18000], "trial": 1, "serialpos": 0, "trial_type": "single-stim", "trial_index": 55, "time_elapsed": 501511, "internal_node_id": "0.0-37.0"}}, {"uniqueid": "MTK0449:3UOUJI6MTELSTG33AH2VUGVNQVXXUH", "current_trial": 56, "dateTime": 1510930810340, "trialdata": {"rt": -1, "stimulus": "<p id=\"stim\">SANDWICH</p>", "key_press": -1, "type": "PRES_VIS", "word": "sandwich", "wordID": 1231, "conditions": [18, 1200, "v", 18000], "trial": 1, "serialpos": 1, "trial_type": "single-stim", "trial_index": 56, "time_elapsed": 503736, "internal_node_id": "0.0-38.0"}}, {"uniqueid": "MTK0449:3UOUJI6MTELSTG33AH2VUGVNQVXXUH", "current_trial": 57, "dateTime": 1510930812584, "trialdata": {"rt": -1, "stimulus": "<p id=\"stim\">FLESH</p>", "key_press": -1, "type": "PRES_VIS", "word": "flesh", "wordID": 578, "conditions": [18, 1200, "v", 18000], "trial": 1, "serialpos": 2, "trial_type": "single-stim", "trial_index": 57, "time_elapsed": 505980, "internal_node_id": "0.0-39.0"}}, {"uniqueid": "MTK0449:3UOUJI6MTELSTG33AH2VUGVNQVXXUH", "current_trial": 58, "dateTime": 1510930814963, "trialdata": {"rt": -1, "stimulus": "<p id=\"stim\">COCKTAIL</p>", "key_press": -1, "type": "PRES_VIS", "word": "cocktail", "wordID": 337, "conditions": [18, 1200, "v", 18000], "trial": 1, "serialpos": 3, "trial_type": "single-stim", "trial_index": 58, "time_elapsed": 508360, "internal_node_id": "0.0-40.0"}}, {"uniqueid": "MTK0449:3UOUJI6MTELSTG33AH2VUGVNQVXXUH", "current_trial": 59, "dateTime": 1510930817023, "trialdata": {"rt": -1, "stimulus": "<p id=\"stim\">PREACHER</p>", "key_press": -1, "type": "PRES_VIS", "word": "preacher", "wordID": 1118, "conditions": [18, 1200, "v", 18000], "trial": 1, "serialpos": 4, "trial_type": "single-stim", "trial_index": 59, "time_elapsed": 510419, "internal_node_id": "0.0-41.0"}}, {"uniqueid": "MTK0449:3UOUJI6MTELSTG33AH2VUGVNQVXXUH", "current_trial": 60, "dateTime": 1510930819360, "trialdata": {"rt": -1, "stimulus": "<p id=\"stim\">TABLET</p>", "key_press": -1, "type": "PRES_VIS", "word": "tablet", "wordID": 1426, "conditions": [18, 1200, "v", 18000], "trial": 1, "serialpos": 5, "trial_type": "single-stim", "trial_index": 60, "time_elapsed": 512757, "internal_node_id": "0.0-42.0"}}, {"uniqueid": "MTK0449:3UOUJI6MTELSTG33AH2VUGVNQVXXUH", "current_trial": 61, "dateTime": 1510930821434, "trialdata": {"rt": -1, "stimulus": "<p id=\"stim\">COFFEE</p>", "key_press": -1, "type": "PRES_VIS", "word": "coffee", "wordID": 340, "conditions": [18, 1200, "v", 18000], "trial": 1, "serialpos": 6, "trial_type": "single-stim", "trial_index": 61, "time_elapsed": 514830, "internal_node_id": "0.0-43.0"}}, {"uniqueid": "MTK0449:3UOUJI6MTELSTG33AH2VUGVNQVXXUH", "current_trial": 62, "dateTime": 1510930823529, "trialdata": {"rt": -1, "stimulus": "<p id=\"stim\">JAPAN</p>", "key_press": -1, "type": "PRES_VIS", "word": "japan", "wordID": 748, "conditions": [18, 1200, "v", 18000], "trial": 1, "serialpos": 7, "trial_type": "single-stim", "trial_index": 62, "time_elapsed": 516925, "internal_node_id": "0.0-44.0"}}, {"uniqueid": "MTK0449:3UOUJI6MTELSTG33AH2VUGVNQVXXUH", "current_trial": 63, "dateTime": 1510930825867, "trialdata": {"rt": -1, "stimulus": "<p id=\"stim\">FOOTBALL</p>", "key_press": -1, "type": "PRES_VIS", "word": "football", "wordID": 590, "conditions": [18, 1200, "v", 18000], "trial": 1, "serialpos": 8, "trial_type": "single-stim", "trial_index": 63, "time_elapsed": 519263, "internal_node_id": "0.0-45.0"}}, {"uniqueid": "MTK0449:3UOUJI6MTELSTG33AH2VUGVNQVXXUH", "current_trial": 64, "dateTime": 1510930827895, "trialdata": {"rt": -1, "stimulus": "<p id=\"stim\">TEACHER</p>", "key_press": -1, "type": "PRES_VIS", "word": "teacher", "wordID": 1439, "conditions": [18, 1200, "v", 18000], "trial": 1, "serialpos": 9, "trial_type": "single-stim", "trial_index": 64, "time_elapsed": 521292, "internal_node_id": "0.0-46.0"}}, {"uniqueid": "MTK0449:3UOUJI6MTELSTG33AH2VUGVNQVXXUH", "current_trial": 65, "dateTime": 1510930829943, "trialdata": {"rt": -1, "stimulus": "<p id=\"stim\">BISON</p>", "key_press": -1, "type": "PRES_VIS", "word": "bison", "wordID": 130, "conditions": [18, 1200, "v", 18000], "trial": 1, "serialpos": 10, "trial_type": "single-stim", "trial_index": 65, "time_elapsed": 523339, "internal_node_id": "0.0-47.0"}}, {"uniqueid": "MTK0449:3UOUJI6MTELSTG33AH2VUGVNQVXXUH", "current_trial": 66, "dateTime": 1510930832267, "trialdata": {"rt": -1, "stimulus": "<p id=\"stim\">XEROX</p>", "key_press": -1, "type": "PRES_VIS", "word": "xerox", "wordID": 1627, "conditions": [18, 1200, "v", 18000], "trial": 1, "serialpos": 11, "trial_type": "single-stim", "trial_index": 66, "time_elapsed": 525663, "internal_node_id": "0.0-48.0"}}, {"uniqueid": "MTK0449:3UOUJI6MTELSTG33AH2VUGVNQVXXUH", "current_trial": 67, "dateTime": 1510930834580, "trialdata": {"rt": -1, "stimulus": "<p id=\"stim\">BUTCHER</p>", "key_press": -1, "type": "PRES_VIS", "word": "butcher", "wordID": 202, "conditions": [18, 1200, "v", 18000], "trial": 1, "serialpos": 12, "trial_type": "single-stim", "trial_index": 67, "time_elapsed": 527976, "internal_node_id": "0.0-49.0"}}, {"uniqueid": "MTK0449:3UOUJI6MTELSTG33AH2VUGVNQVXXUH", "current_trial": 68, "dateTime": 1510930836957, "trialdata": {"rt": -1, "stimulus": "<p id=\"stim\">JELLO</p>", "key_press": -1, "type": "PRES_VIS", "word": "jello", "wordID": 753, "conditions": [18, 1200, "v", 18000], "trial": 1, "serialpos": 13, "trial_type": "single-stim", "trial_index": 68, "time_elapsed": 530350, "internal_node_id": "0.0-50.0"}}, {"uniqueid": "MTK0449:3UOUJI6MTELSTG33AH2VUGVNQVXXUH", "current_trial": 69, "dateTime": 1510930839148, "trialdata": {"rt": -1, "stimulus": "<p id=\"stim\">STOMACH</p>", "key_press": -1, "type": "PRES_VIS", "word": "stomach", "wordID": 1383, "conditions": [18, 1200, "v", 18000], "trial": 1, "serialpos": 14, "trial_type": "single-stim", "trial_index": 69, "time_elapsed": 532544, "internal_node_id": "0.0-51.0"}}, {"uniqueid": "MTK0449:3UOUJI6MTELSTG33AH2VUGVNQVXXUH", "current_trial": 70, "dateTime": 1510930841347, "trialdata": {"rt": -1, "stimulus": "<p id=\"stim\">ORANGE</p>", "key_press": -1, "type": "PRES_VIS", "word": "orange", "wordID": 979, "conditions": [18, 1200, "v", 18000], "trial": 1, "serialpos": 15, "trial_type": "single-stim", "trial_index": 70, "time_elapsed": 534744, "internal_node_id": "0.0-52.0"}}, {"uniqueid": "MTK0449:3UOUJI6MTELSTG33AH2VUGVNQVXXUH", "current_trial": 71, "dateTime": 1510930843534, "trialdata": {"rt": -1, "stimulus": "<p id=\"stim\">SKILLET</p>", "key_press": -1, "type": "PRES_VIS", "word": "skillet", "wordID": 1316, "conditions": [18, 1200, "v", 18000], "trial": 1, "serialpos": 16, "trial_type": "single-stim", "trial_index": 71, "time_elapsed": 536930, "internal_node_id": "0.0-53.0"}}, {"uniqueid": "MTK0449:3UOUJI6MTELSTG33AH2VUGVNQVXXUH", "current_trial": 72, "dateTime": 1510930845578, "trialdata": {"rt": -1, "stimulus": "<p id=\"stim\">ROBOT</p>", "key_press": -1, "type": "PRES_VIS", "word": "robot", "wordID": 1199, "conditions": [18, 1200, "v", 18000], "trial": 1, "serialpos": 17, "trial_type": "single-stim", "trial_index": 72, "time_elapsed": 538975, "internal_node_id": "0.0-54.0"}}, {"uniqueid": "MTK0449:3UOUJI6MTELSTG33AH2VUGVNQVXXUH", "current_trial": 73, "dateTime": 1510930847810, "trialdata": {"rt": -1, "stimulus": "", "key_press": -1, "type": "PRE_RECALL_DELAY", "trial_type": "single-stim", "trial_index": 73, "time_elapsed": 541207, "internal_node_id": "0.0-55.0-0.0"}}, {"uniqueid": "MTK0449:3UOUJI6MTELSTG33AH2VUGVNQVXXUH", "current_trial": 74, "dateTime": 1510930848313, "trialdata": {"rt": -1000, "stimulus": "/static/audio/400Hz.wav", "key_press": -1, "type": "PRE_RECALL_ALERT", "trial_type": "single-audio", "trial_index": 74, "time_elapsed": 541709, "internal_node_id": "0.0-56.0"}}, {"uniqueid": "MTK0449:3UOUJI6MTELSTG33AH2VUGVNQVXXUH", "current_trial": 75, "dateTime": 1510930908324, "trialdata": {"rt": [10024], "recwords": ["robot"], "type": "FREE_RECALL", "conditions": [18, 1200, "v", 18000], "trial": 1, "trial_type": "free-recall", "trial_index": 75, "time_elapsed": 601716, "internal_node_id": "0.0-57.0-0.0"}}, {"uniqueid": "MTK0449:3UOUJI6MTELSTG33AH2VUGVNQVXXUH", "current_trial": 76, "dateTime": 1510930913486, "trialdata": {"rt": 3151, "key_press": 17, "type": "INSTRUCTIONS", "trial_type": "text", "trial_index": 76, "time_elapsed": 606873, "internal_node_id": "0.0-58.0"}}, {"uniqueid": "MTK0449:3UOUJI6MTELSTG33AH2VUGVNQVXXUH", "current_trial": 77, "dateTime": 1510930926494, "trialdata": {"rt": [9391], "responses": ["10"], "num1": [4, 7], "num2": [5, 5], "num3": [1, 7], "type": "DISTRACTOR", "conditions": [24, 1600, "a", 12000], "trial": 2, "trial_type": "math-distractor", "trial_index": 77, "time_elapsed": 619890, "internal_node_id": "0.0-59.0"}}, {"uniqueid": "MTK0449:3UOUJI6MTELSTG33AH2VUGVNQVXXUH", "current_trial": 78, "dateTime": 1510930929495, "trialdata": {"rt": -1, "stimulus": "<p id=\"stim\">10</p>", "key_press": -1, "trial_type": "single-stim", "trial_index": 78, "time_elapsed": 622892, "internal_node_id": "0.0-60.0-0.0"}}, {"uniqueid": "MTK0449:3UOUJI6MTELSTG33AH2VUGVNQVXXUH", "current_trial": 79, "dateTime": 1510930930496, "trialdata": {"rt": -1, "stimulus": "<p id=\"stim\">9</p>", "key_press": -1, "trial_type": "single-stim", "trial_index": 79, "time_elapsed": 623892, "internal_node_id": "0.0-60.0-1.0"}}, {"uniqueid": "MTK0449:3UOUJI6MTELSTG33AH2VUGVNQVXXUH", "current_trial": 80, "dateTime": 1510930931497, "trialdata": {"rt": -1, "stimulus": "<p id=\"stim\">8</p>", "key_press": -1, "trial_type": "single-stim", "trial_index": 80, "time_elapsed": 624893, "internal_node_id": "0.0-60.0-2.0"}}, {"uniqueid": "MTK0449:3UOUJI6MTELSTG33AH2VUGVNQVXXUH", "current_trial": 81, "dateTime": 1510930932498, "trialdata": {"rt": -1, "stimulus": "<p id=\"stim\">7</p>", "key_press": -1, "trial_type": "single-stim", "trial_index": 81, "time_elapsed": 625895, "internal_node_id": "0.0-60.0-3.0"}}, {"uniqueid": "MTK0449:3UOUJI6MTELSTG33AH2VUGVNQVXXUH", "current_trial": 82, "dateTime": 1510930933499, "trialdata": {"rt": -1, "stimulus": "<p id=\"stim\">6</p>", "key_press": -1, "trial_type": "single-stim", "trial_index": 82, "time_elapsed": 626896, "internal_node_id": "0.0-60.0-4.0"}}, {"uniqueid": "MTK0449:3UOUJI6MTELSTG33AH2VUGVNQVXXUH", "current_trial": 83, "dateTime": 1510930934500, "trialdata": {"rt": -1, "stimulus": "<p id=\"stim\">5</p>", "key_press": -1, "trial_type": "single-stim", "trial_index": 83, "time_elapsed": 627897, "internal_node_id": "0.0-60.0-5.0"}}, {"uniqueid": "MTK0449:3UOUJI6MTELSTG33AH2VUGVNQVXXUH", "current_trial": 84, "dateTime": 1510930935502, "trialdata": {"rt": -1, "stimulus": "<p id=\"stim\">4</p>", "key_press": -1, "trial_type": "single-stim", "trial_index": 84, "time_elapsed": 628899, "internal_node_id": "0.0-60.0-6.0"}}, {"uniqueid": "MTK0449:3UOUJI6MTELSTG33AH2VUGVNQVXXUH", "current_trial": 85, "dateTime": 1510930936503, "trialdata": {"rt": -1, "stimulus": "<p id=\"stim\">3</p>", "key_press": -1, "trial_type": "single-stim", "trial_index": 85, "time_elapsed": 629900, "internal_node_id": "0.0-60.0-7.0"}}, {"uniqueid": "MTK0449:3UOUJI6MTELSTG33AH2VUGVNQVXXUH", "current_trial": 86, "dateTime": 1510930937504, "trialdata": {"rt": -1, "stimulus": "<p id=\"stim\">2</p>", "key_press": -1, "trial_type": "single-stim", "trial_index": 86, "time_elapsed": 630900, "internal_node_id": "0.0-60.0-8.0"}}, {"uniqueid": "MTK0449:3UOUJI6MTELSTG33AH2VUGVNQVXXUH", "current_trial": 87, "dateTime": 1510930938505, "trialdata": {"rt": -1, "stimulus": "<p id=\"stim\">1</p>", "key_press": -1, "trial_type": "single-stim", "trial_index": 87, "time_elapsed": 631902, "internal_node_id": "0.0-60.0-9.0"}}, {"uniqueid": "MTK0449:3UOUJI6MTELSTG33AH2VUGVNQVXXUH", "current_trial": 88, "dateTime": 1510930940007, "trialdata": {"rt": -1, "stimulus": "<p id=\"stim\">+</p>", "key_press": -1, "type": "FIXATION", "trial_type": "single-stim", "trial_index": 88, "time_elapsed": 633404, "internal_node_id": "0.0-61.0-0.0"}}, {"uniqueid": "MTK0449:3UOUJI6MTELSTG33AH2VUGVNQVXXUH", "current_trial": 89, "dateTime": 1510930942445, "trialdata": {"rt": -1000, "stimulus": "/static/audio/wordpool/FINGER.wav", "key_press": -1, "type": "PRES_AUD", "word": "finger", "wordID": 566, "conditions": [24, 1600, "a", 12000], "trial": 2, "serialpos": 0, "trial_type": "single-audio", "trial_index": 89, "time_elapsed": 635842, "internal_node_id": "0.0-62.0"}}, {"uniqueid": "MTK0449:3UOUJI6MTELSTG33AH2VUGVNQVXXUH", "current_trial": 90, "dateTime": 1510930945051, "trialdata": {"rt": -1000, "stimulus": "/static/audio/wordpool/FIREMAN.wav", "key_press": -1, "type": "PRES_AUD", "word": "fireman", "wordID": 568, "conditions": [24, 1600, "a", 12000], "trial": 2, "serialpos": 1, "trial_type": "single-audio", "trial_index": 90, "time_elapsed": 638448, "internal_node_id": "0.0-63.0"}}, {"uniqueid": "MTK0449:3UOUJI6MTELSTG33AH2VUGVNQVXXUH", "current_trial": 91, "dateTime": 1510930947677, "trialdata": {"rt": -1000, "stimulus": "/static/audio/wordpool/DANDRUFF.wav", "key_press": -1, "type": "PRES_AUD", "word": "dandruff", "wordID": 438, "conditions": [24, 1600, "a", 12000], "trial": 2, "serialpos": 2, "trial_type": "single-audio", "trial_index": 91, "time_elapsed": 641074, "internal_node_id": "0.0-64.0"}}, {"uniqueid": "MTK0449:3UOUJI6MTELSTG33AH2VUGVNQVXXUH", "current_trial": 92, "dateTime": 1510930950248, "trialdata": {"rt": -1000, "stimulus": "/static/audio/wordpool/PISTON.wav", "key_press": -1, "type": "PRES_AUD", "word": "piston", "wordID": 1075, "conditions": [24, 1600, "a", 12000], "trial": 2, "serialpos": 3, "trial_type": "single-audio", "trial_index": 92, "time_elapsed": 643645, "internal_node_id": "0.0-65.0"}}, {"uniqueid": "MTK0449:3UOUJI6MTELSTG33AH2VUGVNQVXXUH", "current_trial": 93, "dateTime": 1510930953039, "trialdata": {"rt": -1000, "stimulus": "/static/audio/wordpool/VALVE.wav", "key_press": -1, "type": "PRES_AUD", "word": "valve", "wordID": 1545, "conditions": [24, 1600, "a", 12000], "trial": 2, "serialpos": 4, "trial_type": "single-audio", "trial_index": 93, "time_elapsed": 646436, "internal_node_id": "0.0-66.0"}}, {"uniqueid": "MTK0449:3UOUJI6MTELSTG33AH2VUGVNQVXXUH", "current_trial": 94, "dateTime": 1510930955716, "trialdata": {"rt": -1000, "stimulus": "/static/audio/wordpool/BATHTUB.wav", "key_press": -1, "type": "PRES_AUD", "word": "bathtub", "wordID": 99, "conditions": [24, 1600, "a", 12000], "trial": 2, "serialpos": 5, "trial_type": "single-audio", "trial_index": 94, "time_elapsed": 649112, "internal_node_id": "0.0-67.0"}}, {"uniqueid": "MTK0449:3UOUJI6MTELSTG33AH2VUGVNQVXXUH", "current_trial": 95, "dateTime": 1510930958489, "trialdata": {"rt": -1000, "stimulus": "/static/audio/wordpool/WRIST.wav", "key_press": -1, "type": "PRES_AUD", "word": "wrist", "wordID": 1625, "conditions": [24, 1600, "a", 12000], "trial": 2, "serialpos": 6, "trial_type": "single-audio", "trial_index": 95, "time_elapsed": 651885, "internal_node_id": "0.0-68.0"}}, {"uniqueid": "MTK0449:3UOUJI6MTELSTG33AH2VUGVNQVXXUH", "current_trial": 96, "dateTime": 1510930960999, "trialdata": {"rt": -1000, "stimulus": "/static/audio/wordpool/FUNGUS.wav", "key_press": -1, "type": "PRES_AUD", "word": "fungus", "wordID": 613, "conditions": [24, 1600, "a", 12000], "trial": 2, "serialpos": 7, "trial_type": "single-audio", "trial_index": 96, "time_elapsed": 654396, "internal_node_id": "0.0-69.0"}}, {"uniqueid": "MTK0449:3UOUJI6MTELSTG33AH2VUGVNQVXXUH", "current_trial": 97, "dateTime": 1510930963581, "trialdata": {"rt": -1000, "stimulus": "/static/audio/wordpool/RADISH.wav", "key_press": -1, "type": "PRES_AUD", "word": "radish", "wordID": 1157, "conditions": [24, 1600, "a", 12000], "trial": 2, "serialpos": 8, "trial_type": "single-audio", "trial_index": 97, "time_elapsed": 656978, "internal_node_id": "0.0-70.0"}}, {"uniqueid": "MTK0449:3UOUJI6MTELSTG33AH2VUGVNQVXXUH", "current_trial": 98, "dateTime": 1510930966310, "trialdata": {"rt": -1000, "stimulus": "/static/audio/wordpool/DINER.wav", "key_press": -1, "type": "PRES_AUD", "word": "diner", "wordID": 466, "conditions": [24, 1600, "a", 12000], "trial": 2, "serialpos": 9, "trial_type": "single-audio", "trial_index": 98, "time_elapsed": 659706, "internal_node_id": "0.0-71.0"}}, {"uniqueid": "MTK0449:3UOUJI6MTELSTG33AH2VUGVNQVXXUH", "current_trial": 99, "dateTime": 1510930968864, "trialdata": {"rt": -1000, "stimulus": "/static/audio/wordpool/SHOVEL.wav", "key_press": -1, "type": "PRES_AUD", "word": "shovel", "wordID": 1294, "conditions": [24, 1600, "a", 12000], "trial": 2, "serialpos": 10, "trial_type": "single-audio", "trial_index": 99, "time_elapsed": 662261, "internal_node_id": "0.0-72.0"}}, {"uniqueid": "MTK0449:3UOUJI6MTELSTG33AH2VUGVNQVXXUH", "current_trial": 100, "dateTime": 1510930971476, "trialdata": {"rt": -1000, "stimulus": "/static/audio/wordpool/MUSTARD.wav", "key_press": -1, "type": "PRES_AUD", "word": "mustard", "wordID": 934, "conditions": [24, 1600, "a", 12000], "trial": 2, "serialpos": 11, "trial_type": "single-audio", "trial_index": 100, "time_elapsed": 664873, "internal_node_id": "0.0-73.0"}}, {"uniqueid": "MTK0449:3UOUJI6MTELSTG33AH2VUGVNQVXXUH", "current_trial": 101, "dateTime": 1510930974268, "trialdata": {"rt": -1000, "stimulus": "/static/audio/wordpool/FRAME.wav", "key_press": -1, "type": "PRES_AUD", "word": "frame", "wordID": 599, "conditions": [24, 1600, "a", 12000], "trial": 2, "serialpos": 12, "trial_type": "single-audio", "trial_index": 101, "time_elapsed": 667665, "internal_node_id": "0.0-74.0"}}, {"uniqueid": "MTK0449:3UOUJI6MTELSTG33AH2VUGVNQVXXUH", "current_trial": 102, "dateTime": 1510930977035, "trialdata": {"rt": -1000, "stimulus": "/static/audio/wordpool/DENTIST.wav", "key_press": -1, "type": "PRES_AUD", "word": "dentist", "wordID": 446, "conditions": [24, 1600, "a", 12000], "trial": 2, "serialpos": 13, "trial_type": "single-audio", "trial_index": 102, "time_elapsed": 670432, "internal_node_id": "0.0-75.0"}}, {"uniqueid": "MTK0449:3UOUJI6MTELSTG33AH2VUGVNQVXXUH", "current_trial": 103, "dateTime": 1510930979570, "trialdata": {"rt": -1000, "stimulus": "/static/audio/wordpool/NECKLACE.wav", "key_press": -1, "type": "PRES_AUD", "word": "necklace", "wordID": 939, "conditions": [24, 1600, "a", 12000], "trial": 2, "serialpos": 14, "trial_type": "single-audio", "trial_index": 103, "time_elapsed": 672967, "internal_node_id": "0.0-76.0"}}, {"uniqueid": "MTK0449:3UOUJI6MTELSTG33AH2VUGVNQVXXUH", "current_trial": 104, "dateTime": 1510930982052, "trialdata": {"rt": -1000, "stimulus": "/static/audio/wordpool/CRIB.wav", "key_press": -1, "type": "PRES_AUD", "word": "crib", "wordID": 406, "conditions": [24, 1600, "a", 12000], "trial": 2, "serialpos": 15, "trial_type": "single-audio", "trial_index": 104, "time_elapsed": 675449, "internal_node_id": "0.0-77.0"}}, {"uniqueid": "MTK0449:3UOUJI6MTELSTG33AH2VUGVNQVXXUH", "current_trial": 105, "dateTime": 1510930984680, "trialdata": {"rt": -1000, "stimulus": "/static/audio/wordpool/LUGGAGE.wav", "key_press": -1, "type": "PRES_AUD", "word": "luggage", "wordID": 846, "conditions": [24, 1600, "a", 12000], "trial": 2, "serialpos": 16, "trial_type": "single-audio", "trial_index": 105, "time_elapsed": 678077, "internal_node_id": "0.0-78.0"}}, {"uniqueid": "MTK0449:3UOUJI6MTELSTG33AH2VUGVNQVXXUH", "current_trial": 106, "dateTime": 1510930987443, "trialdata": {"rt": -1000, "stimulus": "/static/audio/wordpool/DAISY.wav", "key_press": -1, "type": "PRES_AUD", "word": "daisy", "wordID": 434, "conditions": [24, 1600, "a", 12000], "trial": 2, "serialpos": 17, "trial_type": "single-audio", "trial_index": 106, "time_elapsed": 680840, "internal_node_id": "0.0-79.0"}}, {"uniqueid": "MTK0449:3UOUJI6MTELSTG33AH2VUGVNQVXXUH", "current_trial": 107, "dateTime": 1510930990041, "trialdata": {"rt": -1000, "stimulus": "/static/audio/wordpool/CANYON.wav", "key_press": -1, "type": "PRES_AUD", "word": "canyon", "wordID": 234, "conditions": [24, 1600, "a", 12000], "trial": 2, "serialpos": 18, "trial_type": "single-audio", "trial_index": 107, "time_elapsed": 683438, "internal_node_id": "0.0-80.0"}}, {"uniqueid": "MTK0449:3UOUJI6MTELSTG33AH2VUGVNQVXXUH", "current_trial": 108, "dateTime": 1510930992493, "trialdata": {"rt": -1000, "stimulus": "/static/audio/wordpool/VALLEY.wav", "key_press": -1, "type": "PRES_AUD", "word": "valley", "wordID": 1544, "conditions": [24, 1600, "a", 12000], "trial": 2, "serialpos": 19, "trial_type": "single-audio", "trial_index": 108, "time_elapsed": 685890, "internal_node_id": "0.0-81.0"}}, {"uniqueid": "MTK0449:3UOUJI6MTELSTG33AH2VUGVNQVXXUH", "current_trial": 109, "dateTime": 1510930994902, "trialdata": {"rt": -1000, "stimulus": "/static/audio/wordpool/GRAVE.wav", "key_press": -1, "type": "PRES_AUD", "word": "grave", "wordID": 657, "conditions": [24, 1600, "a", 12000], "trial": 2, "serialpos": 20, "trial_type": "single-audio", "trial_index": 109, "time_elapsed": 688299, "internal_node_id": "0.0-82.0"}}, {"uniqueid": "MTK0449:3UOUJI6MTELSTG33AH2VUGVNQVXXUH", "current_trial": 110, "dateTime": 1510930997321, "trialdata": {"rt": -1000, "stimulus": "/static/audio/wordpool/SIBLING.wav", "key_press": -1, "type": "PRES_AUD", "word": "sibling", "wordID": 1300, "conditions": [24, 1600, "a", 12000], "trial": 2, "serialpos": 21, "trial_type": "single-audio", "trial_index": 110, "time_elapsed": 690718, "internal_node_id": "0.0-83.0"}}, {"uniqueid": "MTK0449:3UOUJI6MTELSTG33AH2VUGVNQVXXUH", "current_trial": 111, "dateTime": 1510930999758, "trialdata": {"rt": -1000, "stimulus": "/static/audio/wordpool/FRIEND.wav", "key_press": -1, "type": "PRES_AUD", "word": "friend", "wordID": 605, "conditions": [24, 1600, "a", 12000], "trial": 2, "serialpos": 22, "trial_type": "single-audio", "trial_index": 111, "time_elapsed": 693155, "internal_node_id": "0.0-84.0"}}, {"uniqueid": "MTK0449:3UOUJI6MTELSTG33AH2VUGVNQVXXUH", "current_trial": 112, "dateTime": 1510931002337, "trialdata": {"rt": -1000, "stimulus": "/static/audio/wordpool/FLOWER.wav", "key_press": -1, "type": "PRES_AUD", "word": "flower", "wordID": 583, "conditions": [24, 1600, "a", 12000], "trial": 2, "serialpos": 23, "trial_type": "single-audio", "trial_index": 112, "time_elapsed": 695734, "internal_node_id": "0.0-85.0"}}, {"uniqueid": "MTK0449:3UOUJI6MTELSTG33AH2VUGVNQVXXUH", "current_trial": 113, "dateTime": 1510931003685, "trialdata": {"rt": -1, "stimulus": "", "key_press": -1, "type": "PRE_RECALL_DELAY", "trial_type": "single-stim", "trial_index": 113, "time_elapsed": 697081, "internal_node_id": "0.0-86.0-0.0"}}, {"uniqueid": "MTK0449:3UOUJI6MTELSTG33AH2VUGVNQVXXUH", "current_trial": 114, "dateTime": 1510931004187, "trialdata": {"rt": -1000, "stimulus": "/static/audio/400Hz.wav", "key_press": -1, "type": "PRE_RECALL_ALERT", "trial_type": "single-audio", "trial_index": 114, "time_elapsed": 697584, "internal_node_id": "0.0-87.0"}}, {"uniqueid": "MTK0449:3UOUJI6MTELSTG33AH2VUGVNQVXXUH", "current_trial": 115, "dateTime": 1510931064200, "trialdata": {"rt": [6789, 14853, 26505, 42637], "recwords": ["flower", "crib", "vally", "cannion"], "type": "FREE_RECALL", "conditions": [24, 1600, "a", 12000], "trial": 2, "trial_type": "free-recall", "trial_index": 115, "time_elapsed": 757590, "internal_node_id": "0.0-88.0-0.0"}}, {"uniqueid": "MTK0449:3UOUJI6MTELSTG33AH2VUGVNQVXXUH", "current_trial": 116, "dateTime": 1510931069265, "trialdata": {"rt": 3037, "key_press": 13, "type": "INSTRUCTIONS", "trial_type": "text", "trial_index": 116, "time_elapsed": 762662, "internal_node_id": "0.0-89.0"}}, {"uniqueid": "MTK0449:3UOUJI6MTELSTG33AH2VUGVNQVXXUH", "current_trial": 117, "dateTime": 1510931083275, "trialdata": {"rt": [8059], "responses": ["21"], "num1": [4, 6], "num2": [9, 9], "num3": [8, 9], "type": "DISTRACTOR", "conditions": [24, 800, "a", 12000], "trial": 3, "trial_type": "math-distractor", "trial_index": 117, "time_elapsed": 776672, "internal_node_id": "0.0-90.0"}}, {"uniqueid": "MTK0449:3UOUJI6MTELSTG33AH2VUGVNQVXXUH", "current_trial": 118, "dateTime": 1510931086275, "trialdata": {"rt": -1, "stimulus": "<p id=\"stim\">10</p>", "key_press": -1, "trial_type": "single-stim", "trial_index": 118, "time_elapsed": 779672, "internal_node_id": "0.0-91.0-0.0"}}, {"uniqueid": "MTK0449:3UOUJI6MTELSTG33AH2VUGVNQVXXUH", "current_trial": 119, "dateTime": 1510931087277, "trialdata": {"rt": -1, "stimulus": "<p id=\"stim\">9</p>", "key_press": -1, "trial_type": "single-stim", "trial_index": 119, "time_elapsed": 780673, "internal_node_id": "0.0-91.0-1.0"}}, {"uniqueid": "MTK0449:3UOUJI6MTELSTG33AH2VUGVNQVXXUH", "current_trial": 120, "dateTime": 1510931088301, "trialdata": {"rt": -1, "stimulus": "<p id=\"stim\">8</p>", "key_press": -1, "trial_type": "single-stim", "trial_index": 120, "time_elapsed": 781698, "internal_node_id": "0.0-91.0-2.0"}}, {"uniqueid": "MTK0449:3UOUJI6MTELSTG33AH2VUGVNQVXXUH", "current_trial": 121, "dateTime": 1510931089303, "trialdata": {"rt": -1, "stimulus": "<p id=\"stim\">7</p>", "key_press": -1, "trial_type": "single-stim", "trial_index": 121, "time_elapsed": 782699, "internal_node_id": "0.0-91.0-3.0"}}, {"uniqueid": "MTK0449:3UOUJI6MTELSTG33AH2VUGVNQVXXUH", "current_trial": 122, "dateTime": 1510931090304, "trialdata": {"rt": -1, "stimulus": "<p id=\"stim\">6</p>", "key_press": -1, "trial_type": "single-stim", "trial_index": 122, "time_elapsed": 783701, "internal_node_id": "0.0-91.0-4.0"}}, {"uniqueid": "MTK0449:3UOUJI6MTELSTG33AH2VUGVNQVXXUH", "current_trial": 123, "dateTime": 1510931091306, "trialdata": {"rt": -1, "stimulus": "<p id=\"stim\">5</p>", "key_press": -1, "trial_type": "single-stim", "trial_index": 123, "time_elapsed": 784703, "internal_node_id": "0.0-91.0-5.0"}}, {"uniqueid": "MTK0449:3UOUJI6MTELSTG33AH2VUGVNQVXXUH", "current_trial": 124, "dateTime": 1510931092308, "trialdata": {"rt": -1, "stimulus": "<p id=\"stim\">4</p>", "key_press": -1, "trial_type": "single-stim", "trial_index": 124, "time_elapsed": 785705, "internal_node_id": "0.0-91.0-6.0"}}, {"uniqueid": "MTK0449:3UOUJI6MTELSTG33AH2VUGVNQVXXUH", "current_trial": 125, "dateTime": 1510931093310, "trialdata": {"rt": -1, "stimulus": "<p id=\"stim\">3</p>", "key_press": -1, "trial_type": "single-stim", "trial_index": 125, "time_elapsed": 786707, "internal_node_id": "0.0-91.0-7.0"}}, {"uniqueid": "MTK0449:3UOUJI6MTELSTG33AH2VUGVNQVXXUH", "current_trial": 126, "dateTime": 1510931094311, "trialdata": {"rt": -1, "stimulus": "<p id=\"stim\">2</p>", "key_press": -1, "trial_type": "single-stim", "trial_index": 126, "time_elapsed": 787708, "internal_node_id": "0.0-91.0-8.0"}}, {"uniqueid": "MTK0449:3UOUJI6MTELSTG33AH2VUGVNQVXXUH", "current_trial": 127, "dateTime": 1510931095313, "trialdata": {"rt": -1, "stimulus": "<p id=\"stim\">1</p>", "key_press": -1, "trial_type": "single-stim", "trial_index": 127, "time_elapsed": 788709, "internal_node_id": "0.0-91.0-9.0"}}, {"uniqueid": "MTK0449:3UOUJI6MTELSTG33AH2VUGVNQVXXUH", "current_trial": 128, "dateTime": 1510931096814, "trialdata": {"rt": -1, "stimulus": "<p id=\"stim\">+</p>", "key_press": -1, "type": "FIXATION", "trial_type": "single-stim", "trial_index": 128, "time_elapsed": 790211, "internal_node_id": "0.0-92.0-0.0"}}, {"uniqueid": "MTK0449:3UOUJI6MTELSTG33AH2VUGVNQVXXUH", "current_trial": 129, "dateTime": 1510931098617, "trialdata": {"rt": -1000, "stimulus": "/static/audio/wordpool/DAUGHTER.wav", "key_press": -1, "type": "PRES_AUD", "word": "daughter", "wordID": 441, "conditions": [24, 800, "a", 12000], "trial": 3, "serialpos": 0, "trial_type": "single-audio", "trial_index": 129, "time_elapsed": 792014, "internal_node_id": "0.0-93.0"}}, {"uniqueid": "MTK0449:3UOUJI6MTELSTG33AH2VUGVNQVXXUH", "current_trial": 130, "dateTime": 1510931100308, "trialdata": {"rt": -1000, "stimulus": "/static/audio/wordpool/DUSTPAN.wav", "key_press": -1, "type": "PRES_AUD", "word": "dustpan", "wordID": 508, "conditions": [24, 800, "a", 12000], "trial": 3, "serialpos": 1, "trial_type": "single-audio", "trial_index": 130, "time_elapsed": 793705, "internal_node_id": "0.0-94.0"}}, {"uniqueid": "MTK0449:3UOUJI6MTELSTG33AH2VUGVNQVXXUH", "current_trial": 131, "dateTime": 1510931102069, "trialdata": {"rt": -1000, "stimulus": "/static/audio/wordpool/BOUQUET.wav", "key_press": -1, "type": "PRES_AUD", "word": "bouquet", "wordID": 156, "conditions": [24, 800, "a", 12000], "trial": 3, "serialpos": 2, "trial_type": "single-audio", "trial_index": 131, "time_elapsed": 795466, "internal_node_id": "0.0-95.0"}}, {"uniqueid": "MTK0449:3UOUJI6MTELSTG33AH2VUGVNQVXXUH", "current_trial": 132, "dateTime": 1510931103998, "trialdata": {"rt": -1000, "stimulus": "/static/audio/wordpool/GUARD.wav", "key_press": -1, "type": "PRES_AUD", "word": "guard", "wordID": 666, "conditions": [24, 800, "a", 12000], "trial": 3, "serialpos": 3, "trial_type": "single-audio", "trial_index": 132, "time_elapsed": 797395, "internal_node_id": "0.0-96.0"}}, {"uniqueid": "MTK0449:3UOUJI6MTELSTG33AH2VUGVNQVXXUH", "current_trial": 133, "dateTime": 1510931106028, "trialdata": {"rt": -1000, "stimulus": "/static/audio/wordpool/ORCHID.wav", "key_press": -1, "type": "PRES_AUD", "word": "orchid", "wordID": 981, "conditions": [24, 800, "a", 12000], "trial": 3, "serialpos": 4, "trial_type": "single-audio", "trial_index": 133, "time_elapsed": 799425, "internal_node_id": "0.0-97.0"}}, {"uniqueid": "MTK0449:3UOUJI6MTELSTG33AH2VUGVNQVXXUH", "current_trial": 134, "dateTime": 1510931107678, "trialdata": {"rt": -1000, "stimulus": "/static/audio/wordpool/SUSPECT.wav", "key_press": -1, "type": "PRES_AUD", "word": "suspect", "wordID": 1414, "conditions": [24, 800, "a", 12000], "trial": 3, "serialpos": 5, "trial_type": "single-audio", "trial_index": 134, "time_elapsed": 801075, "internal_node_id": "0.0-98.0"}}, {"uniqueid": "MTK0449:3UOUJI6MTELSTG33AH2VUGVNQVXXUH", "current_trial": 135, "dateTime": 1510931109554, "trialdata": {"rt": -1000, "stimulus": "/static/audio/wordpool/ROBBER.wav", "key_press": -1, "type": "PRES_AUD", "word": "robber", "wordID": 1196, "conditions": [24, 800, "a", 12000], "trial": 3, "serialpos": 6, "trial_type": "single-audio", "trial_index": 135, "time_elapsed": 802951, "internal_node_id": "0.0-99.0"}}, {"uniqueid": "MTK0449:3UOUJI6MTELSTG33AH2VUGVNQVXXUH", "current_trial": 136, "dateTime": 1510931111295, "trialdata": {"rt": -1000, "stimulus": "/static/audio/wordpool/KEEPER.wav", "key_press": -1, "type": "PRES_AUD", "word": "keeper", "wordID": 768, "conditions": [24, 800, "a", 12000], "trial": 3, "serialpos": 7, "trial_type": "single-audio", "trial_index": 136, "time_elapsed": 804692, "internal_node_id": "0.0-100.0"}}, {"uniqueid": "MTK0449:3UOUJI6MTELSTG33AH2VUGVNQVXXUH", "current_trial": 137, "dateTime": 1510931113036, "trialdata": {"rt": -1000, "stimulus": "/static/audio/wordpool/TORTOISE.wav", "key_press": -1, "type": "PRES_AUD", "word": "tortoise", "wordID": 1485, "conditions": [24, 800, "a", 12000], "trial": 3, "serialpos": 8, "trial_type": "single-audio", "trial_index": 137, "time_elapsed": 806432, "internal_node_id": "0.0-101.0"}}, {"uniqueid": "MTK0449:3UOUJI6MTELSTG33AH2VUGVNQVXXUH", "current_trial": 138, "dateTime": 1510931114648, "trialdata": {"rt": -1000, "stimulus": "/static/audio/wordpool/MUFFIN.wav", "key_press": -1, "type": "PRES_AUD", "word": "muffin", "wordID": 928, "conditions": [24, 800, "a", 12000], "trial": 3, "serialpos": 9, "trial_type": "single-audio", "trial_index": 138, "time_elapsed": 808045, "internal_node_id": "0.0-102.0"}}, {"uniqueid": "MTK0449:3UOUJI6MTELSTG33AH2VUGVNQVXXUH", "current_trial": 139, "dateTime": 1510931116295, "trialdata": {"rt": -1000, "stimulus": "/static/audio/wordpool/WIDOW.wav", "key_press": -1, "type": "PRES_AUD", "word": "widow", "wordID": 1607, "conditions": [24, 800, "a", 12000], "trial": 3, "serialpos": 10, "trial_type": "single-audio", "trial_index": 139, "time_elapsed": 809692, "internal_node_id": "0.0-103.0"}}, {"uniqueid": "MTK0449:3UOUJI6MTELSTG33AH2VUGVNQVXXUH", "current_trial": 140, "dateTime": 1510931118216, "trialdata": {"rt": -1000, "stimulus": "/static/audio/wordpool/SUMMIT.wav", "key_press": -1, "type": "PRES_AUD", "word": "summit", "wordID": 1404, "conditions": [24, 800, "a", 12000], "trial": 3, "serialpos": 11, "trial_type": "single-audio", "trial_index": 140, "time_elapsed": 811612, "internal_node_id": "0.0-104.0"}}, {"uniqueid": "MTK0449:3UOUJI6MTELSTG33AH2VUGVNQVXXUH", "current_trial": 141, "dateTime": 1510931119884, "trialdata": {"rt": -1000, "stimulus": "/static/audio/wordpool/CANDY.wav", "key_press": -1, "type": "PRES_AUD", "word": "candy", "wordID": 229, "conditions": [24, 800, "a", 12000], "trial": 3, "serialpos": 12, "trial_type": "single-audio", "trial_index": 141, "time_elapsed": 813281, "internal_node_id": "0.0-105.0"}}, {"uniqueid": "MTK0449:3UOUJI6MTELSTG33AH2VUGVNQVXXUH", "current_trial": 142, "dateTime": 1510931121869, "trialdata": {"rt": -1000, "stimulus": "/static/audio/wordpool/BANK.wav", "key_press": -1, "type": "PRES_AUD", "word": "bank", "wordID": 82, "conditions": [24, 800, "a", 12000], "trial": 3, "serialpos": 13, "trial_type": "single-audio", "trial_index": 142, "time_elapsed": 815266, "internal_node_id": "0.0-106.0"}}, {"uniqueid": "MTK0449:3UOUJI6MTELSTG33AH2VUGVNQVXXUH", "current_trial": 143, "dateTime": 1510931123669, "trialdata": {"rt": -1000, "stimulus": "/static/audio/wordpool/FOREST.wav", "key_press": -1, "type": "PRES_AUD", "word": "forest", "wordID": 592, "conditions": [24, 800, "a", 12000], "trial": 3, "serialpos": 14, "trial_type": "single-audio", "trial_index": 143, "time_elapsed": 817066, "internal_node_id": "0.0-107.0"}}, {"uniqueid": "MTK0449:3UOUJI6MTELSTG33AH2VUGVNQVXXUH", "current_trial": 144, "dateTime": 1510931125668, "trialdata": {"rt": -1000, "stimulus": "/static/audio/wordpool/INFANT.wav", "key_press": -1, "type": "PRES_AUD", "word": "infant", "wordID": 736, "conditions": [24, 800, "a", 12000], "trial": 3, "serialpos": 15, "trial_type": "single-audio", "trial_index": 144, "time_elapsed": 819065, "internal_node_id": "0.0-108.0"}}, {"uniqueid": "MTK0449:3UOUJI6MTELSTG33AH2VUGVNQVXXUH", "current_trial": 145, "dateTime": 1510931127315, "trialdata": {"rt": -1000, "stimulus": "/static/audio/wordpool/CHILD.wav", "key_press": -1, "type": "PRES_AUD", "word": "child", "wordID": 298, "conditions": [24, 800, "a", 12000], "trial": 3, "serialpos": 16, "trial_type": "single-audio", "trial_index": 145, "time_elapsed": 820712, "internal_node_id": "0.0-109.0"}}, {"uniqueid": "MTK0449:3UOUJI6MTELSTG33AH2VUGVNQVXXUH", "current_trial": 146, "dateTime": 1510931129006, "trialdata": {"rt": -1000, "stimulus": "/static/audio/wordpool/LAVA.wav", "key_press": -1, "type": "PRES_AUD", "word": "lava", "wordID": 803, "conditions": [24, 800, "a", 12000], "trial": 3, "serialpos": 17, "trial_type": "single-audio", "trial_index": 146, "time_elapsed": 822402, "internal_node_id": "0.0-110.0"}}, {"uniqueid": "MTK0449:3UOUJI6MTELSTG33AH2VUGVNQVXXUH", "current_trial": 147, "dateTime": 1510931130803, "trialdata": {"rt": -1000, "stimulus": "/static/audio/wordpool/BRANCH.wav", "key_press": -1, "type": "PRES_AUD", "word": "branch", "wordID": 167, "conditions": [24, 800, "a", 12000], "trial": 3, "serialpos": 18, "trial_type": "single-audio", "trial_index": 147, "time_elapsed": 824200, "internal_node_id": "0.0-111.0"}}, {"uniqueid": "MTK0449:3UOUJI6MTELSTG33AH2VUGVNQVXXUH", "current_trial": 148, "dateTime": 1510931132673, "trialdata": {"rt": -1000, "stimulus": "/static/audio/wordpool/VENUS.wav", "key_press": -1, "type": "PRES_AUD", "word": "venus", "wordID": 1556, "conditions": [24, 800, "a", 12000], "trial": 3, "serialpos": 19, "trial_type": "single-audio", "trial_index": 148, "time_elapsed": 826070, "internal_node_id": "0.0-112.0"}}, {"uniqueid": "MTK0449:3UOUJI6MTELSTG33AH2VUGVNQVXXUH", "current_trial": 149, "dateTime": 1510931134319, "trialdata": {"rt": -1000, "stimulus": "/static/audio/wordpool/HONEY.wav", "key_press": -1, "type": "PRES_AUD", "word": "honey", "wordID": 712, "conditions": [24, 800, "a", 12000], "trial": 3, "serialpos": 20, "trial_type": "single-audio", "trial_index": 149, "time_elapsed": 827715, "internal_node_id": "0.0-113.0"}}, {"uniqueid": "MTK0449:3UOUJI6MTELSTG33AH2VUGVNQVXXUH", "current_trial": 150, "dateTime": 1510931136124, "trialdata": {"rt": -1000, "stimulus": "/static/audio/wordpool/KETCHUP.wav", "key_press": -1, "type": "PRES_AUD", "word": "ketchup", "wordID": 770, "conditions": [24, 800, "a", 12000], "trial": 3, "serialpos": 21, "trial_type": "single-audio", "trial_index": 150, "time_elapsed": 829521, "internal_node_id": "0.0-114.0"}}, {"uniqueid": "MTK0449:3UOUJI6MTELSTG33AH2VUGVNQVXXUH", "current_trial": 151, "dateTime": 1510931137802, "trialdata": {"rt": -1000, "stimulus": "/static/audio/wordpool/COD.wav", "key_press": -1, "type": "PRES_AUD", "word": "cod", "wordID": 339, "conditions": [24, 800, "a", 12000], "trial": 3, "serialpos": 22, "trial_type": "single-audio", "trial_index": 151, "time_elapsed": 831198, "internal_node_id": "0.0-115.0"}}, {"uniqueid": "MTK0449:3UOUJI6MTELSTG33AH2VUGVNQVXXUH", "current_trial": 152, "dateTime": 1510931139565, "trialdata": {"rt": -1000, "stimulus": "/static/audio/wordpool/BOYFRIEND.wav", "key_press": -1, "type": "PRES_AUD", "word": "boyfriend", "wordID": 161, "conditions": [24, 800, "a", 12000], "trial": 3, "serialpos": 23, "trial_type": "single-audio", "trial_index": 152, "time_elapsed": 832962, "internal_node_id": "0.0-116.0"}}, {"uniqueid": "MTK0449:3UOUJI6MTELSTG33AH2VUGVNQVXXUH", "current_trial": 153, "dateTime": 1510931140891, "trialdata": {"rt": -1, "stimulus": "", "key_press": -1, "type": "PRE_RECALL_DELAY", "trial_type": "single-stim", "trial_index": 153, "time_elapsed": 834288, "internal_node_id": "0.0-117.0-0.0"}}, {"uniqueid": "MTK0449:3UOUJI6MTELSTG33AH2VUGVNQVXXUH", "current_trial": 154, "dateTime": 1510931141395, "trialdata": {"rt": -1000, "stimulus": "/static/audio/400Hz.wav", "key_press": -1, "type": "PRE_RECALL_ALERT", "trial_type": "single-audio", "trial_index": 154, "time_elapsed": 834792, "internal_node_id": "0.0-118.0"}}, {"uniqueid": "MTK0449:3UOUJI6MTELSTG33AH2VUGVNQVXXUH", "current_trial": 155, "dateTime": 1510931201409, "trialdata": {"rt": [19803, 24057, 28192], "recwords": ["boyfriend", "cod", "child"], "type": "FREE_RECALL", "conditions": [24, 800, "a", 12000], "trial": 3, "trial_type": "free-recall", "trial_index": 155, "time_elapsed": 894799, "internal_node_id": "0.0-119.0-0.0"}}, {"uniqueid": "MTK0449:3UOUJI6MTELSTG33AH2VUGVNQVXXUH", "current_trial": 156, "dateTime": 1510931207829, "trialdata": {"rt": 4419, "key_press": 13, "type": "INSTRUCTIONS", "trial_type": "text", "trial_index": 156, "time_elapsed": 901226, "internal_node_id": "0.0-120.0"}}, {"uniqueid": "MTK0449:3UOUJI6MTELSTG33AH2VUGVNQVXXUH", "current_trial": 157, "dateTime": 1510931233833, "trialdata": {"rt": [5331, 9239, 16331, 22007], "responses": ["12", "13", "10", "13"], "num1": [1, 2, 5, 6, 3], "num2": [8, 3, 2, 5, 2], "num3": [3, 8, 3, 2, 8], "type": "DISTRACTOR", "conditions": [12, 1600, "v", 24000], "trial": 4, "trial_type": "math-distractor", "trial_index": 157, "time_elapsed": 927230, "internal_node_id": "0.0-121.0"}}, {"uniqueid": "MTK0449:3UOUJI6MTELSTG33AH2VUGVNQVXXUH", "current_trial": 158, "dateTime": 1510931236835, "trialdata": {"rt": -1, "stimulus": "<p id=\"stim\">10</p>", "key_press": -1, "trial_type": "single-stim", "trial_index": 158, "time_elapsed": 930231, "internal_node_id": "0.0-122.0-0.0"}}, {"uniqueid": "MTK0449:3UOUJI6MTELSTG33AH2VUGVNQVXXUH", "current_trial": 159, "dateTime": 1510931237836, "trialdata": {"rt": -1, "stimulus": "<p id=\"stim\">9</p>", "key_press": -1, "trial_type": "single-stim", "trial_index": 159, "time_elapsed": 931232, "internal_node_id": "0.0-122.0-1.0"}}, {"uniqueid": "MTK0449:3UOUJI6MTELSTG33AH2VUGVNQVXXUH", "current_trial": 160, "dateTime": 1510931238837, "trialdata": {"rt": -1, "stimulus": "<p id=\"stim\">8</p>", "key_press": -1, "trial_type": "single-stim", "trial_index": 160, "time_elapsed": 932233, "internal_node_id": "0.0-122.0-2.0"}}, {"uniqueid": "MTK0449:3UOUJI6MTELSTG33AH2VUGVNQVXXUH", "current_trial": 161, "dateTime": 1510931239838, "trialdata": {"rt": -1, "stimulus": "<p id=\"stim\">7</p>", "key_press": -1, "trial_type": "single-stim", "trial_index": 161, "time_elapsed": 933234, "internal_node_id": "0.0-122.0-3.0"}}, {"uniqueid": "MTK0449:3UOUJI6MTELSTG33AH2VUGVNQVXXUH", "current_trial": 162, "dateTime": 1510931240839, "trialdata": {"rt": -1, "stimulus": "<p id=\"stim\">6</p>", "key_press": -1, "trial_type": "single-stim", "trial_index": 162, "time_elapsed": 934235, "internal_node_id": "0.0-122.0-4.0"}}, {"uniqueid": "MTK0449:3UOUJI6MTELSTG33AH2VUGVNQVXXUH", "current_trial": 163, "dateTime": 1510931241840, "trialdata": {"rt": -1, "stimulus": "<p id=\"stim\">5</p>", "key_press": -1, "trial_type": "single-stim", "trial_index": 163, "time_elapsed": 935236, "internal_node_id": "0.0-122.0-5.0"}}, {"uniqueid": "MTK0449:3UOUJI6MTELSTG33AH2VUGVNQVXXUH", "current_trial": 164, "dateTime": 1510931242841, "trialdata": {"rt": -1, "stimulus": "<p id=\"stim\">4</p>", "key_press": -1, "trial_type": "single-stim", "trial_index": 164, "time_elapsed": 936237, "internal_node_id": "0.0-122.0-6.0"}}, {"uniqueid": "MTK0449:3UOUJI6MTELSTG33AH2VUGVNQVXXUH", "current_trial": 165, "dateTime": 1510931243842, "trialdata": {"rt": -1, "stimulus": "<p id=\"stim\">3</p>", "key_press": -1, "trial_type": "single-stim", "trial_index": 165, "time_elapsed": 937239, "internal_node_id": "0.0-122.0-7.0"}}, {"uniqueid": "MTK0449:3UOUJI6MTELSTG33AH2VUGVNQVXXUH", "current_trial": 166, "dateTime": 1510931244843, "trialdata": {"rt": -1, "stimulus": "<p id=\"stim\">2</p>", "key_press": -1, "trial_type": "single-stim", "trial_index": 166, "time_elapsed": 938239, "internal_node_id": "0.0-122.0-8.0"}}, {"uniqueid": "MTK0449:3UOUJI6MTELSTG33AH2VUGVNQVXXUH", "current_trial": 167, "dateTime": 1510931245844, "trialdata": {"rt": -1, "stimulus": "<p id=\"stim\">1</p>", "key_press": -1, "trial_type": "single-stim", "trial_index": 167, "time_elapsed": 939241, "internal_node_id": "0.0-122.0-9.0"}}, {"uniqueid": "MTK0449:3UOUJI6MTELSTG33AH2VUGVNQVXXUH", "current_trial": 168, "dateTime": 1510931247346, "trialdata": {"rt": -1, "stimulus": "<p id=\"stim\">+</p>", "key_press": -1, "type": "FIXATION", "trial_type": "single-stim", "trial_index": 168, "time_elapsed": 940742, "internal_node_id": "0.0-123.0-0.0"}}, {"uniqueid": "MTK0449:3UOUJI6MTELSTG33AH2VUGVNQVXXUH", "current_trial": 169, "dateTime": 1510931248947, "trialdata": {"rt": -1, "stimulus": "<p id=\"stim\">FLIPPER</p>", "key_press": -1, "type": "PRES_VIS", "word": "flipper", "wordID": 579, "conditions": [12, 1600, "v", 24000], "trial": 4, "serialpos": 0, "trial_type": "single-stim", "trial_index": 169, "time_elapsed": 942344, "internal_node_id": "0.0-124.0"}}, {"uniqueid": "MTK0449:3UOUJI6MTELSTG33AH2VUGVNQVXXUH", "current_trial": 170, "dateTime": 1510931251658, "trialdata": {"rt": -1, "stimulus": "<p id=\"stim\">BINDER</p>", "key_press": -1, "type": "PRES_VIS", "word": "binder", "wordID": 126, "conditions": [12, 1600, "v", 24000], "trial": 4, "serialpos": 1, "trial_type": "single-stim", "trial_index": 170, "time_elapsed": 945054, "internal_node_id": "0.0-125.0"}}, {"uniqueid": "MTK0449:3UOUJI6MTELSTG33AH2VUGVNQVXXUH", "current_trial": 171, "dateTime": 1510931254301, "trialdata": {"rt": -1, "stimulus": "<p id=\"stim\">RIFLE</p>", "key_press": -1, "type": "PRES_VIS", "word": "rifle", "wordID": 1191, "conditions": [12, 1600, "v", 24000], "trial": 4, "serialpos": 2, "trial_type": "single-stim", "trial_index": 171, "time_elapsed": 947698, "internal_node_id": "0.0-126.0"}}, {"uniqueid": "MTK0449:3UOUJI6MTELSTG33AH2VUGVNQVXXUH", "current_trial": 172, "dateTime": 1510931256881, "trialdata": {"rt": -1, "stimulus": "<p id=\"stim\">CREATURE</p>", "key_press": -1, "type": "PRES_VIS", "word": "creature", "wordID": 402, "conditions": [12, 1600, "v", 24000], "trial": 4, "serialpos": 3, "trial_type": "single-stim", "trial_index": 172, "time_elapsed": 950278, "internal_node_id": "0.0-127.0"}}, {"uniqueid": "MTK0449:3UOUJI6MTELSTG33AH2VUGVNQVXXUH", "current_trial": 173, "dateTime": 1510931259590, "trialdata": {"rt": -1, "stimulus": "<p id=\"stim\">PRINCESS</p>", "key_press": -1, "type": "PRES_VIS", "word": "princess", "wordID": 1124, "conditions": [12, 1600, "v", 24000], "trial": 4, "serialpos": 4, "trial_type": "single-stim", "trial_index": 173, "time_elapsed": 952986, "internal_node_id": "0.0-128.0"}}, {"uniqueid": "MTK0449:3UOUJI6MTELSTG33AH2VUGVNQVXXUH", "current_trial": 174, "dateTime": 1510931262037, "trialdata": {"rt": -1, "stimulus": "<p id=\"stim\">WARDROBE</p>", "key_press": -1, "type": "PRES_VIS", "word": "wardrobe", "wordID": 1586, "conditions": [12, 1600, "v", 24000], "trial": 4, "serialpos": 5, "trial_type": "single-stim", "trial_index": 174, "time_elapsed": 955433, "internal_node_id": "0.0-129.0"}}, {"uniqueid": "MTK0449:3UOUJI6MTELSTG33AH2VUGVNQVXXUH", "current_trial": 175, "dateTime": 1510931264473, "trialdata": {"rt": -1, "stimulus": "<p id=\"stim\">COSTUME</p>", "key_press": -1, "type": "PRES_VIS", "word": "costume", "wordID": 382, "conditions": [12, 1600, "v", 24000], "trial": 4, "serialpos": 6, "trial_type": "single-stim", "trial_index": 175, "time_elapsed": 957870, "internal_node_id": "0.0-130.0"}}, {"uniqueid": "MTK0449:3UOUJI6MTELSTG33AH2VUGVNQVXXUH", "current_trial": 176, "dateTime": 1510931266913, "trialdata": {"rt": -1, "stimulus": "<p id=\"stim\">FRECKLE</p>", "key_press": -1, "type": "PRES_VIS", "word": "freckle", "wordID": 601, "conditions": [12, 1600, "v", 24000], "trial": 4, "serialpos": 7, "trial_type": "single-stim", "trial_index": 176, "time_elapsed": 960309, "internal_node_id": "0.0-131.0"}}, {"uniqueid": "MTK0449:3UOUJI6MTELSTG33AH2VUGVNQVXXUH", "current_trial": 177, "dateTime": 1510931269507, "trialdata": {"rt": -1, "stimulus": "<p id=\"stim\">BLOUSE</p>", "key_press": -1, "type": "PRES_VIS", "word": "blouse", "wordID": 138, "conditions": [12, 1600, "v", 24000], "trial": 4, "serialpos": 8, "trial_type": "single-stim", "trial_index": 177, "time_elapsed": 962903, "internal_node_id": "0.0-132.0"}}, {"uniqueid": "MTK0449:3UOUJI6MTELSTG33AH2VUGVNQVXXUH", "current_trial": 178, "dateTime": 1510931272095, "trialdata": {"rt": -1, "stimulus": "<p id=\"stim\">WAITER</p>", "key_press": -1, "type": "PRES_VIS", "word": "waiter", "wordID": 1579, "conditions": [12, 1600, "v", 24000], "trial": 4, "serialpos": 9, "trial_type": "single-stim", "trial_index": 178, "time_elapsed": 965492, "internal_node_id": "0.0-133.0"}}, {"uniqueid": "MTK0449:3UOUJI6MTELSTG33AH2VUGVNQVXXUH", "current_trial": 179, "dateTime": 1510931274527, "trialdata": {"rt": -1, "stimulus": "<p id=\"stim\">DRAGON</p>", "key_press": -1, "type": "PRES_VIS", "word": "dragon", "wordID": 491, "conditions": [12, 1600, "v", 24000], "trial": 4, "serialpos": 10, "trial_type": "single-stim", "trial_index": 179, "time_elapsed": 967924, "internal_node_id": "0.0-134.0"}}, {"uniqueid": "MTK0449:3UOUJI6MTELSTG33AH2VUGVNQVXXUH", "current_trial": 180, "dateTime": 1510931276989, "trialdata": {"rt": -1, "stimulus": "<p id=\"stim\">SCALPEL</p>", "key_press": -1, "type": "PRES_VIS", "word": "scalpel", "wordID": 1242, "conditions": [12, 1600, "v", 24000], "trial": 4, "serialpos": 11, "trial_type": "single-stim", "trial_index": 180, "time_elapsed": 970385, "internal_node_id": "0.0-135.0"}}, {"uniqueid": "MTK0449:3UOUJI6MTELSTG33AH2VUGVNQVXXUH", "current_trial": 181, "dateTime": 1510931279324, "trialdata": {"rt": -1, "stimulus": "", "key_press": -1, "type": "PRE_RECALL_DELAY", "trial_type": "single-stim", "trial_index": 181, "time_elapsed": 972720, "internal_node_id": "0.0-136.0-0.0"}}, {"uniqueid": "MTK0449:3UOUJI6MTELSTG33AH2VUGVNQVXXUH", "current_trial": 182, "dateTime": 1510931279830, "trialdata": {"rt": -1000, "stimulus": "/static/audio/400Hz.wav", "key_press": -1, "type": "PRE_RECALL_ALERT", "trial_type": "single-audio", "trial_index": 182, "time_elapsed": 973227, "internal_node_id": "0.0-137.0"}}, {"uniqueid": "MTK0449:3UOUJI6MTELSTG33AH2VUGVNQVXXUH", "current_trial": 183, "dateTime": 1510931339843, "trialdata": {"rt": [11887], "recwords": ["dragon"], "type": "FREE_RECALL", "conditions": [12, 1600, "v", 24000], "trial": 4, "trial_type": "free-recall", "trial_index": 183, "time_elapsed": 1033231, "internal_node_id": "0.0-138.0-0.0"}}, {"uniqueid": "MTK0449:3UOUJI6MTELSTG33AH2VUGVNQVXXUH", "current_trial": 184, "dateTime": 1510931343403, "trialdata": {"rt": 1548, "key_press": 13, "type": "INSTRUCTIONS", "trial_type": "text", "trial_index": 184, "time_elapsed": 1036800, "internal_node_id": "0.0-139.0"}}, {"uniqueid": "MTK0449:3UOUJI6MTELSTG33AH2VUGVNQVXXUH", "current_trial": 185, "dateTime": 1510931369409, "trialdata": {"rt": [8404, 14132, 20419], "responses": ["15", "9", "15"], "num1": [4, 3, 8, 9], "num2": [6, 5, 6, 4], "num3": [5, 1, 3, 5], "type": "DISTRACTOR", "conditions": [12, 800, "a", 24000], "trial": 5, "trial_type": "math-distractor", "trial_index": 185, "time_elapsed": 1062806, "internal_node_id": "0.0-140.0"}}, {"uniqueid": "MTK0449:3UOUJI6MTELSTG33AH2VUGVNQVXXUH", "current_trial": 186, "dateTime": 1510931372411, "trialdata": {"rt": -1, "stimulus": "<p id=\"stim\">10</p>", "key_press": -1, "trial_type": "single-stim", "trial_index": 186, "time_elapsed": 1065808, "internal_node_id": "0.0-141.0-0.0"}}, {"uniqueid": "MTK0449:3UOUJI6MTELSTG33AH2VUGVNQVXXUH", "current_trial": 187, "dateTime": 1510931373413, "trialdata": {"rt": -1, "stimulus": "<p id=\"stim\">9</p>", "key_press": -1, "trial_type": "single-stim", "trial_index": 187, "time_elapsed": 1066810, "internal_node_id": "0.0-141.0-1.0"}}, {"uniqueid": "MTK0449:3UOUJI6MTELSTG33AH2VUGVNQVXXUH", "current_trial": 188, "dateTime": 1510931374414, "trialdata": {"rt": -1, "stimulus": "<p id=\"stim\">8</p>", "key_press": -1, "trial_type": "single-stim", "trial_index": 188, "time_elapsed": 1067811, "internal_node_id": "0.0-141.0-2.0"}}, {"uniqueid": "MTK0449:3UOUJI6MTELSTG33AH2VUGVNQVXXUH", "current_trial": 189, "dateTime": 1510931375415, "trialdata": {"rt": -1, "stimulus": "<p id=\"stim\">7</p>", "key_press": -1, "trial_type": "single-stim", "trial_index": 189, "time_elapsed": 1068811, "internal_node_id": "0.0-141.0-3.0"}}, {"uniqueid": "MTK0449:3UOUJI6MTELSTG33AH2VUGVNQVXXUH", "current_trial": 190, "dateTime": 1510931376416, "trialdata": {"rt": -1, "stimulus": "<p id=\"stim\">6</p>", "key_press": -1, "trial_type": "single-stim", "trial_index": 190, "time_elapsed": 1069812, "internal_node_id": "0.0-141.0-4.0"}}, {"uniqueid": "MTK0449:3UOUJI6MTELSTG33AH2VUGVNQVXXUH", "current_trial": 191, "dateTime": 1510931377417, "trialdata": {"rt": -1, "stimulus": "<p id=\"stim\">5</p>", "key_press": -1, "trial_type": "single-stim", "trial_index": 191, "time_elapsed": 1070814, "internal_node_id": "0.0-141.0-5.0"}}, {"uniqueid": "MTK0449:3UOUJI6MTELSTG33AH2VUGVNQVXXUH", "current_trial": 192, "dateTime": 1510931378418, "trialdata": {"rt": -1, "stimulus": "<p id=\"stim\">4</p>", "key_press": -1, "trial_type": "single-stim", "trial_index": 192, "time_elapsed": 1071815, "internal_node_id": "0.0-141.0-6.0"}}, {"uniqueid": "MTK0449:3UOUJI6MTELSTG33AH2VUGVNQVXXUH", "current_trial": 193, "dateTime": 1510931379419, "trialdata": {"rt": -1, "stimulus": "<p id=\"stim\">3</p>", "key_press": -1, "trial_type": "single-stim", "trial_index": 193, "time_elapsed": 1072815, "internal_node_id": "0.0-141.0-7.0"}}, {"uniqueid": "MTK0449:3UOUJI6MTELSTG33AH2VUGVNQVXXUH", "current_trial": 194, "dateTime": 1510931380438, "trialdata": {"rt": -1, "stimulus": "<p id=\"stim\">2</p>", "key_press": -1, "trial_type": "single-stim", "trial_index": 194, "time_elapsed": 1073835, "internal_node_id": "0.0-141.0-8.0"}}, {"uniqueid": "MTK0449:3UOUJI6MTELSTG33AH2VUGVNQVXXUH", "current_trial": 195, "dateTime": 1510931381440, "trialdata": {"rt": -1, "stimulus": "<p id=\"stim\">1</p>", "key_press": -1, "trial_type": "single-stim", "trial_index": 195, "time_elapsed": 1074836, "internal_node_id": "0.0-141.0-9.0"}}, {"uniqueid": "MTK0449:3UOUJI6MTELSTG33AH2VUGVNQVXXUH", "current_trial": 196, "dateTime": 1510931382941, "trialdata": {"rt": -1, "stimulus": "<p id=\"stim\">+</p>", "key_press": -1, "type": "FIXATION", "trial_type": "single-stim", "trial_index": 196, "time_elapsed": 1076337, "internal_node_id": "0.0-142.0-0.0"}}, {"uniqueid": "MTK0449:3UOUJI6MTELSTG33AH2VUGVNQVXXUH", "current_trial": 197, "dateTime": 1510931384759, "trialdata": {"rt": -1000, "stimulus": "/static/audio/wordpool/WAGON.wav", "key_press": -1, "type": "PRES_AUD", "word": "wagon", "wordID": 1577, "conditions": [12, 800, "a", 24000], "trial": 5, "serialpos": 0, "trial_type": "single-audio", "trial_index": 197, "time_elapsed": 1078156, "internal_node_id": "0.0-143.0"}}, {"uniqueid": "MTK0449:3UOUJI6MTELSTG33AH2VUGVNQVXXUH", "current_trial": 198, "dateTime": 1510931386552, "trialdata": {"rt": -1000, "stimulus": "/static/audio/wordpool/TRUCK.wav", "key_press": -1, "type": "PRES_AUD", "word": "truck", "wordID": 1511, "conditions": [12, 800, "a", 24000], "trial": 5, "serialpos": 1, "trial_type": "single-audio", "trial_index": 198, "time_elapsed": 1079949, "internal_node_id": "0.0-144.0"}}, {"uniqueid": "MTK0449:3UOUJI6MTELSTG33AH2VUGVNQVXXUH", "current_trial": 199, "dateTime": 1510931388268, "trialdata": {"rt": -1000, "stimulus": "/static/audio/wordpool/VELVET.wav", "key_press": -1, "type": "PRES_AUD", "word": "velvet", "wordID": 1554, "conditions": [12, 800, "a", 24000], "trial": 5, "serialpos": 2, "trial_type": "single-audio", "trial_index": 199, "time_elapsed": 1081665, "internal_node_id": "0.0-145.0"}}, {"uniqueid": "MTK0449:3UOUJI6MTELSTG33AH2VUGVNQVXXUH", "current_trial": 200, "dateTime": 1510931390079, "trialdata": {"rt": -1000, "stimulus": "/static/audio/wordpool/JELLY.wav", "key_press": -1, "type": "PRES_AUD", "word": "jelly", "wordID": 754, "conditions": [12, 800, "a", 24000], "trial": 5, "serialpos": 3, "trial_type": "single-audio", "trial_index": 200, "time_elapsed": 1083476, "internal_node_id": "0.0-146.0"}}, {"uniqueid": "MTK0449:3UOUJI6MTELSTG33AH2VUGVNQVXXUH", "current_trial": 201, "dateTime": 1510931391912, "trialdata": {"rt": -1000, "stimulus": "/static/audio/wordpool/PADDLE.wav", "key_press": -1, "type": "PRES_AUD", "word": "paddle", "wordID": 999, "conditions": [12, 800, "a", 24000], "trial": 5, "serialpos": 4, "trial_type": "single-audio", "trial_index": 201, "time_elapsed": 1085309, "internal_node_id": "0.0-147.0"}}, {"uniqueid": "MTK0449:3UOUJI6MTELSTG33AH2VUGVNQVXXUH", "current_trial": 202, "dateTime": 1510931393856, "trialdata": {"rt": -1000, "stimulus": "/static/audio/wordpool/PANTHER.wav", "key_press": -1, "type": "PRES_AUD", "word": "panther", "wordID": 1008, "conditions": [12, 800, "a", 24000], "trial": 5, "serialpos": 5, "trial_type": "single-audio", "trial_index": 202, "time_elapsed": 1087253, "internal_node_id": "0.0-148.0"}}, {"uniqueid": "MTK0449:3UOUJI6MTELSTG33AH2VUGVNQVXXUH", "current_trial": 203, "dateTime": 1510931395810, "trialdata": {"rt": -1000, "stimulus": "/static/audio/wordpool/FLUTE.wav", "key_press": -1, "type": "PRES_AUD", "word": "flute", "wordID": 584, "conditions": [12, 800, "a", 24000], "trial": 5, "serialpos": 6, "trial_type": "single-audio", "trial_index": 203, "time_elapsed": 1089206, "internal_node_id": "0.0-149.0"}}, {"uniqueid": "MTK0449:3UOUJI6MTELSTG33AH2VUGVNQVXXUH", "current_trial": 204, "dateTime": 1510931397801, "trialdata": {"rt": -1000, "stimulus": "/static/audio/wordpool/STUDENT.wav", "key_press": -1, "type": "PRES_AUD", "word": "student", "wordID": 1394, "conditions": [12, 800, "a", 24000], "trial": 5, "serialpos": 7, "trial_type": "single-audio", "trial_index": 204, "time_elapsed": 1091198, "internal_node_id": "0.0-150.0"}}, {"uniqueid": "MTK0449:3UOUJI6MTELSTG33AH2VUGVNQVXXUH", "current_trial": 205, "dateTime": 1510931399686, "trialdata": {"rt": -1000, "stimulus": "/static/audio/wordpool/SHIRT.wav", "key_press": -1, "type": "PRES_AUD", "word": "shirt", "wordID": 1286, "conditions": [12, 800, "a", 24000], "trial": 5, "serialpos": 8, "trial_type": "single-audio", "trial_index": 205, "time_elapsed": 1093083, "internal_node_id": "0.0-151.0"}}, {"uniqueid": "MTK0449:3UOUJI6MTELSTG33AH2VUGVNQVXXUH", "current_trial": 206, "dateTime": 1510931401504, "trialdata": {"rt": -1000, "stimulus": "/static/audio/wordpool/MARSH.wav", "key_press": -1, "type": "PRES_AUD", "word": "marsh", "wordID": 873, "conditions": [12, 800, "a", 24000], "trial": 5, "serialpos": 9, "trial_type": "single-audio", "trial_index": 206, "time_elapsed": 1094901, "internal_node_id": "0.0-152.0"}}, {"uniqueid": "MTK0449:3UOUJI6MTELSTG33AH2VUGVNQVXXUH", "current_trial": 207, "dateTime": 1510931403137, "trialdata": {"rt": -1000, "stimulus": "/static/audio/wordpool/SERVER.wav", "key_press": -1, "type": "PRES_AUD", "word": "server", "wordID": 1271, "conditions": [12, 800, "a", 24000], "trial": 5, "serialpos": 10, "trial_type": "single-audio", "trial_index": 207, "time_elapsed": 1096533, "internal_node_id": "0.0-153.0"}}, {"uniqueid": "MTK0449:3UOUJI6MTELSTG33AH2VUGVNQVXXUH", "current_trial": 208, "dateTime": 1510931404834, "trialdata": {"rt": -1000, "stimulus": "/static/audio/wordpool/LEOPARD.wav", "key_press": -1, "type": "PRES_AUD", "word": "leopard", "wordID": 811, "conditions": [12, 800, "a", 24000], "trial": 5, "serialpos": 11, "trial_type": "single-audio", "trial_index": 208, "time_elapsed": 1098231, "internal_node_id": "0.0-154.0"}}, {"uniqueid": "MTK0449:3UOUJI6MTELSTG33AH2VUGVNQVXXUH", "current_trial": 209, "dateTime": 1510931406052, "trialdata": {"rt": -1, "stimulus": "", "key_press": -1, "type": "PRE_RECALL_DELAY", "trial_type": "single-stim", "trial_index": 209, "time_elapsed": 1099448, "internal_node_id": "0.0-155.0-0.0"}}, {"uniqueid": "MTK0449:3UOUJI6MTELSTG33AH2VUGVNQVXXUH", "current_trial": 210, "dateTime": 1510931406554, "trialdata": {"rt": -1000, "stimulus": "/static/audio/400Hz.wav", "key_press": -1, "type": "PRE_RECALL_ALERT", "trial_type": "single-audio", "trial_index": 210, "time_elapsed": 1099951, "internal_node_id": "0.0-156.0"}}, {"uniqueid": "MTK0449:3UOUJI6MTELSTG33AH2VUGVNQVXXUH", "current_trial": 211, "dateTime": 1510931466566, "trialdata": {"rt": [16341, 28556, 40518], "recwords": ["shirt", "student", "truck"], "type": "FREE_RECALL", "conditions": [12, 800, "a", 24000], "trial": 5, "trial_type": "free-recall", "trial_index": 211, "time_elapsed": 1159955, "internal_node_id": "0.0-157.0-0.0"}}, {"uniqueid": "MTK0449:3UOUJI6MTELSTG33AH2VUGVNQVXXUH", "current_trial": 212, "dateTime": 1510931470252, "trialdata": {"rt": 1685, "key_press": 13, "type": "INSTRUCTIONS", "trial_type": "text", "trial_index": 212, "time_elapsed": 1163649, "internal_node_id": "0.0-158.0"}}, {"uniqueid": "MTK0449:3UOUJI6MTELSTG33AH2VUGVNQVXXUH", "current_trial": 213, "dateTime": 1510931496256, "trialdata": {"rt": [10521, 17472, 21628], "responses": ["17", "15", "13"], "num1": [7, 6, 8, 4], "num2": [8, 5, 1, 9], "num3": [2, 4, 4, 2], "type": "DISTRACTOR", "conditions": [24, 1600, "a", 24000], "trial": 6, "trial_type": "math-distractor", "trial_index": 213, "time_elapsed": 1189653, "internal_node_id": "0.0-159.0"}}, {"uniqueid": "MTK0449:3UOUJI6MTELSTG33AH2VUGVNQVXXUH", "current_trial": 214, "dateTime": 1510931499269, "trialdata": {"rt": -1, "stimulus": "<p id=\"stim\">10</p>", "key_press": -1, "trial_type": "single-stim", "trial_index": 214, "time_elapsed": 1192666, "internal_node_id": "0.0-160.0-0.0"}}, {"uniqueid": "MTK0449:3UOUJI6MTELSTG33AH2VUGVNQVXXUH", "current_trial": 215, "dateTime": 1510931500270, "trialdata": {"rt": -1, "stimulus": "<p id=\"stim\">9</p>", "key_press": -1, "trial_type": "single-stim", "trial_index": 215, "time_elapsed": 1193666, "internal_node_id": "0.0-160.0-1.0"}}, {"uniqueid": "MTK0449:3UOUJI6MTELSTG33AH2VUGVNQVXXUH", "current_trial": 216, "dateTime": 1510931501272, "trialdata": {"rt": -1, "stimulus": "<p id=\"stim\">8</p>", "key_press": -1, "trial_type": "single-stim", "trial_index": 216, "time_elapsed": 1194667, "internal_node_id": "0.0-160.0-2.0"}}, {"uniqueid": "MTK0449:3UOUJI6MTELSTG33AH2VUGVNQVXXUH", "current_trial": 217, "dateTime": 1510931502274, "trialdata": {"rt": -1, "stimulus": "<p id=\"stim\">7</p>", "key_press": -1, "trial_type": "single-stim", "trial_index": 217, "time_elapsed": 1195670, "internal_node_id": "0.0-160.0-3.0"}}, {"uniqueid": "MTK0449:3UOUJI6MTELSTG33AH2VUGVNQVXXUH", "current_trial": 218, "dateTime": 1510931503275, "trialdata": {"rt": -1, "stimulus": "<p id=\"stim\">6</p>", "key_press": -1, "trial_type": "single-stim", "trial_index": 218, "time_elapsed": 1196671, "internal_node_id": "0.0-160.0-4.0"}}, {"uniqueid": "MTK0449:3UOUJI6MTELSTG33AH2VUGVNQVXXUH", "current_trial": 219, "dateTime": 1510931504275, "trialdata": {"rt": -1, "stimulus": "<p id=\"stim\">5</p>", "key_press": -1, "trial_type": "single-stim", "trial_index": 219, "time_elapsed": 1197672, "internal_node_id": "0.0-160.0-5.0"}}, {"uniqueid": "MTK0449:3UOUJI6MTELSTG33AH2VUGVNQVXXUH", "current_trial": 220, "dateTime": 1510931505277, "trialdata": {"rt": -1, "stimulus": "<p id=\"stim\">4</p>", "key_press": -1, "trial_type": "single-stim", "trial_index": 220, "time_elapsed": 1198674, "internal_node_id": "0.0-160.0-6.0"}}, {"uniqueid": "MTK0449:3UOUJI6MTELSTG33AH2VUGVNQVXXUH", "current_trial": 221, "dateTime": 1510931506279, "trialdata": {"rt": -1, "stimulus": "<p id=\"stim\">3</p>", "key_press": -1, "trial_type": "single-stim", "trial_index": 221, "time_elapsed": 1199675, "internal_node_id": "0.0-160.0-7.0"}}, {"uniqueid": "MTK0449:3UOUJI6MTELSTG33AH2VUGVNQVXXUH", "current_trial": 222, "dateTime": 1510931507315, "trialdata": {"rt": -1, "stimulus": "<p id=\"stim\">2</p>", "key_press": -1, "trial_type": "single-stim", "trial_index": 222, "time_elapsed": 1200712, "internal_node_id": "0.0-160.0-8.0"}}, {"uniqueid": "MTK0449:3UOUJI6MTELSTG33AH2VUGVNQVXXUH", "current_trial": 223, "dateTime": 1510931508316, "trialdata": {"rt": -1, "stimulus": "<p id=\"stim\">1</p>", "key_press": -1, "trial_type": "single-stim", "trial_index": 223, "time_elapsed": 1201713, "internal_node_id": "0.0-160.0-9.0"}}, {"uniqueid": "MTK0449:3UOUJI6MTELSTG33AH2VUGVNQVXXUH", "current_trial": 224, "dateTime": 1510931509818, "trialdata": {"rt": -1, "stimulus": "<p id=\"stim\">+</p>", "key_press": -1, "type": "FIXATION", "trial_type": "single-stim", "trial_index": 224, "time_elapsed": 1203215, "internal_node_id": "0.0-161.0-0.0"}}, {"uniqueid": "MTK0449:3UOUJI6MTELSTG33AH2VUGVNQVXXUH", "current_trial": 225, "dateTime": 1510931512263, "trialdata": {"rt": -1000, "stimulus": "/static/audio/wordpool/PLIERS.wav", "key_press": -1, "type": "PRES_AUD", "word": "pliers", "wordID": 1088, "conditions": [24, 1600, "a", 24000], "trial": 6, "serialpos": 0, "trial_type": "single-audio", "trial_index": 225, "time_elapsed": 1205660, "internal_node_id": "0.0-162.0"}}, {"uniqueid": "MTK0449:3UOUJI6MTELSTG33AH2VUGVNQVXXUH", "current_trial": 226, "dateTime": 1510931514850, "trialdata": {"rt": -1000, "stimulus": "/static/audio/wordpool/POPCORN.wav", "key_press": -1, "type": "PRES_AUD", "word": "popcorn", "wordID": 1103, "conditions": [24, 1600, "a", 24000], "trial": 6, "serialpos": 1, "trial_type": "single-audio", "trial_index": 226, "time_elapsed": 1208247, "internal_node_id": "0.0-163.0"}}, {"uniqueid": "MTK0449:3UOUJI6MTELSTG33AH2VUGVNQVXXUH", "current_trial": 227, "dateTime": 1510931517640, "trialdata": {"rt": -1000, "stimulus": "/static/audio/wordpool/SNAIL.wav", "key_press": -1, "type": "PRES_AUD", "word": "snail", "wordID": 1331, "conditions": [24, 1600, "a", 24000], "trial": 6, "serialpos": 2, "trial_type": "single-audio", "trial_index": 227, "time_elapsed": 1211036, "internal_node_id": "0.0-164.0"}}, {"uniqueid": "MTK0449:3UOUJI6MTELSTG33AH2VUGVNQVXXUH", "current_trial": 228, "dateTime": 1510931520343, "trialdata": {"rt": -1000, "stimulus": "/static/audio/wordpool/LIZARD.wav", "key_press": -1, "type": "PRES_AUD", "word": "lizard", "wordID": 833, "conditions": [24, 1600, "a", 24000], "trial": 6, "serialpos": 3, "trial_type": "single-audio", "trial_index": 228, "time_elapsed": 1213740, "internal_node_id": "0.0-165.0"}}, {"uniqueid": "MTK0449:3UOUJI6MTELSTG33AH2VUGVNQVXXUH", "current_trial": 229, "dateTime": 1510931522922, "trialdata": {"rt": -1000, "stimulus": "/static/audio/wordpool/RUST.wav", "key_press": -1, "type": "PRES_AUD", "word": "rust", "wordID": 1218, "conditions": [24, 1600, "a", 24000], "trial": 6, "serialpos": 4, "trial_type": "single-audio", "trial_index": 229, "time_elapsed": 1216318, "internal_node_id": "0.0-166.0"}}, {"uniqueid": "MTK0449:3UOUJI6MTELSTG33AH2VUGVNQVXXUH", "current_trial": 230, "dateTime": 1510931525674, "trialdata": {"rt": -1000, "stimulus": "/static/audio/wordpool/SNACK.wav", "key_press": -1, "type": "PRES_AUD", "word": "snack", "wordID": 1330, "conditions": [24, 1600, "a", 24000], "trial": 6, "serialpos": 5, "trial_type": "single-audio", "trial_index": 230, "time_elapsed": 1219070, "internal_node_id": "0.0-167.0"}}, {"uniqueid": "MTK0449:3UOUJI6MTELSTG33AH2VUGVNQVXXUH", "current_trial": 231, "dateTime": 1510931528397, "trialdata": {"rt": -1000, "stimulus": "/static/audio/wordpool/PAPER.wav", "key_press": -1, "type": "PRES_AUD", "word": "paper", "wordID": 1010, "conditions": [24, 1600, "a", 24000], "trial": 6, "serialpos": 6, "trial_type": "single-audio", "trial_index": 231, "time_elapsed": 1221793, "internal_node_id": "0.0-168.0"}}, {"uniqueid": "MTK0449:3UOUJI6MTELSTG33AH2VUGVNQVXXUH", "current_trial": 232, "dateTime": 1510931530848, "trialdata": {"rt": -1000, "stimulus": "/static/audio/wordpool/BRANDY.wav", "key_press": -1, "type": "PRES_AUD", "word": "brandy", "wordID": 168, "conditions": [24, 1600, "a", 24000], "trial": 6, "serialpos": 7, "trial_type": "single-audio", "trial_index": 232, "time_elapsed": 1224245, "internal_node_id": "0.0-169.0"}}, {"uniqueid": "MTK0449:3UOUJI6MTELSTG33AH2VUGVNQVXXUH", "current_trial": 233, "dateTime": 1510931533627, "trialdata": {"rt": -1000, "stimulus": "/static/audio/wordpool/BABY.wav", "key_press": -1, "type": "PRES_AUD", "word": "baby", "wordID": 63, "conditions": [24, 1600, "a", 24000], "trial": 6, "serialpos": 8, "trial_type": "single-audio", "trial_index": 233, "time_elapsed": 1227024, "internal_node_id": "0.0-170.0"}}, {"uniqueid": "MTK0449:3UOUJI6MTELSTG33AH2VUGVNQVXXUH", "current_trial": 234, "dateTime": 1510931536243, "trialdata": {"rt": -1000, "stimulus": "/static/audio/wordpool/SPIDER.wav", "key_press": -1, "type": "PRES_AUD", "word": "spider", "wordID": 1350, "conditions": [24, 1600, "a", 24000], "trial": 6, "serialpos": 9, "trial_type": "single-audio", "trial_index": 234, "time_elapsed": 1229640, "internal_node_id": "0.0-171.0"}}, {"uniqueid": "MTK0449:3UOUJI6MTELSTG33AH2VUGVNQVXXUH", "current_trial": 235, "dateTime": 1510931539052, "trialdata": {"rt": -1000, "stimulus": "/static/audio/wordpool/PLUTO.wav", "key_press": -1, "type": "PRES_AUD", "word": "pluto", "wordID": 1091, "conditions": [24, 1600, "a", 24000], "trial": 6, "serialpos": 10, "trial_type": "single-audio", "trial_index": 235, "time_elapsed": 1232448, "internal_node_id": "0.0-172.0"}}, {"uniqueid": "MTK0449:3UOUJI6MTELSTG33AH2VUGVNQVXXUH", "current_trial": 236, "dateTime": 1510931541646, "trialdata": {"rt": -1000, "stimulus": "/static/audio/wordpool/LEG.wav", "key_press": -1, "type": "PRES_AUD", "word": "leg", "wordID": 808, "conditions": [24, 1600, "a", 24000], "trial": 6, "serialpos": 11, "trial_type": "single-audio", "trial_index": 236, "time_elapsed": 1235043, "internal_node_id": "0.0-173.0"}}, {"uniqueid": "MTK0449:3UOUJI6MTELSTG33AH2VUGVNQVXXUH", "current_trial": 237, "dateTime": 1510931544189, "trialdata": {"rt": -1000, "stimulus": "/static/audio/wordpool/MACHINE.wav", "key_press": -1, "type": "PRES_AUD", "word": "machine", "wordID": 851, "conditions": [24, 1600, "a", 24000], "trial": 6, "serialpos": 12, "trial_type": "single-audio", "trial_index": 237, "time_elapsed": 1237586, "internal_node_id": "0.0-174.0"}}, {"uniqueid": "MTK0449:3UOUJI6MTELSTG33AH2VUGVNQVXXUH", "current_trial": 238, "dateTime": 1510931546604, "trialdata": {"rt": -1000, "stimulus": "/static/audio/wordpool/MAMMAL.wav", "key_press": -1, "type": "PRES_AUD", "word": "mammal", "wordID": 860, "conditions": [24, 1600, "a", 24000], "trial": 6, "serialpos": 13, "trial_type": "single-audio", "trial_index": 238, "time_elapsed": 1240001, "internal_node_id": "0.0-175.0"}}, {"uniqueid": "MTK0449:3UOUJI6MTELSTG33AH2VUGVNQVXXUH", "current_trial": 239, "dateTime": 1510931549080, "trialdata": {"rt": -1000, "stimulus": "/static/audio/wordpool/KNIFE.wav", "key_press": -1, "type": "PRES_AUD", "word": "knife", "wordID": 784, "conditions": [24, 1600, "a", 24000], "trial": 6, "serialpos": 14, "trial_type": "single-audio", "trial_index": 239, "time_elapsed": 1242477, "internal_node_id": "0.0-176.0"}}, {"uniqueid": "MTK0449:3UOUJI6MTELSTG33AH2VUGVNQVXXUH", "current_trial": 240, "dateTime": 1510931551633, "trialdata": {"rt": -1000, "stimulus": "/static/audio/wordpool/SCISSORS.wav", "key_press": -1, "type": "PRES_AUD", "word": "scissors", "wordID": 1249, "conditions": [24, 1600, "a", 24000], "trial": 6, "serialpos": 15, "trial_type": "single-audio", "trial_index": 240, "time_elapsed": 1245030, "internal_node_id": "0.0-177.0"}}, {"uniqueid": "MTK0449:3UOUJI6MTELSTG33AH2VUGVNQVXXUH", "current_trial": 241, "dateTime": 1510931554257, "trialdata": {"rt": -1000, "stimulus": "/static/audio/wordpool/TROMBONE.wav", "key_press": -1, "type": "PRES_AUD", "word": "trombone", "wordID": 1507, "conditions": [24, 1600, "a", 24000], "trial": 6, "serialpos": 16, "trial_type": "single-audio", "trial_index": 241, "time_elapsed": 1247654, "internal_node_id": "0.0-178.0"}}, {"uniqueid": "MTK0449:3UOUJI6MTELSTG33AH2VUGVNQVXXUH", "current_trial": 242, "dateTime": 1510931556812, "trialdata": {"rt": -1000, "stimulus": "/static/audio/wordpool/CLOTHES.wav", "key_press": -1, "type": "PRES_AUD", "word": "clothes", "wordID": 326, "conditions": [24, 1600, "a", 24000], "trial": 6, "serialpos": 17, "trial_type": "single-audio", "trial_index": 242, "time_elapsed": 1250208, "internal_node_id": "0.0-179.0"}}, {"uniqueid": "MTK0449:3UOUJI6MTELSTG33AH2VUGVNQVXXUH", "current_trial": 243, "dateTime": 1510931559259, "trialdata": {"rt": -1000, "stimulus": "/static/audio/wordpool/OUTFIT.wav", "key_press": -1, "type": "PRES_AUD", "word": "outfit", "wordID": 987, "conditions": [24, 1600, "a", 24000], "trial": 6, "serialpos": 18, "trial_type": "single-audio", "trial_index": 243, "time_elapsed": 1252655, "internal_node_id": "0.0-180.0"}}, {"uniqueid": "MTK0449:3UOUJI6MTELSTG33AH2VUGVNQVXXUH", "current_trial": 244, "dateTime": 1510931561961, "trialdata": {"rt": -1000, "stimulus": "/static/audio/wordpool/JUGGLER.wav", "key_press": -1, "type": "PRES_AUD", "word": "juggler", "wordID": 762, "conditions": [24, 1600, "a", 24000], "trial": 6, "serialpos": 19, "trial_type": "single-audio", "trial_index": 244, "time_elapsed": 1255358, "internal_node_id": "0.0-181.0"}}, {"uniqueid": "MTK0449:3UOUJI6MTELSTG33AH2VUGVNQVXXUH", "current_trial": 245, "dateTime": 1510931564697, "trialdata": {"rt": -1000, "stimulus": "/static/audio/wordpool/SHORTS.wav", "key_press": -1, "type": "PRES_AUD", "word": "shorts", "wordID": 1292, "conditions": [24, 1600, "a", 24000], "trial": 6, "serialpos": 20, "trial_type": "single-audio", "trial_index": 245, "time_elapsed": 1258094, "internal_node_id": "0.0-182.0"}}, {"uniqueid": "MTK0449:3UOUJI6MTELSTG33AH2VUGVNQVXXUH", "current_trial": 246, "dateTime": 1510931567285, "trialdata": {"rt": -1000, "stimulus": "/static/audio/wordpool/RAFT.wav", "key_press": -1, "type": "PRES_AUD", "word": "raft", "wordID": 1158, "conditions": [24, 1600, "a", 24000], "trial": 6, "serialpos": 21, "trial_type": "single-audio", "trial_index": 246, "time_elapsed": 1260682, "internal_node_id": "0.0-183.0"}}, {"uniqueid": "MTK0449:3UOUJI6MTELSTG33AH2VUGVNQVXXUH", "current_trial": 247, "dateTime": 1510931569791, "trialdata": {"rt": -1000, "stimulus": "/static/audio/wordpool/PENGUIN.wav", "key_press": -1, "type": "PRES_AUD", "word": "penguin", "wordID": 1043, "conditions": [24, 1600, "a", 24000], "trial": 6, "serialpos": 22, "trial_type": "single-audio", "trial_index": 247, "time_elapsed": 1263187, "internal_node_id": "0.0-184.0"}}, {"uniqueid": "MTK0449:3UOUJI6MTELSTG33AH2VUGVNQVXXUH", "current_trial": 248, "dateTime": 1510931572525, "trialdata": {"rt": -1000, "stimulus": "/static/audio/wordpool/PLASTER.wav", "key_press": -1, "type": "PRES_AUD", "word": "plaster", "wordID": 1084, "conditions": [24, 1600, "a", 24000], "trial": 6, "serialpos": 23, "trial_type": "single-audio", "trial_index": 248, "time_elapsed": 1265921, "internal_node_id": "0.0-185.0"}}, {"uniqueid": "MTK0449:3UOUJI6MTELSTG33AH2VUGVNQVXXUH", "current_trial": 249, "dateTime": 1510931573734, "trialdata": {"rt": -1, "stimulus": "", "key_press": -1, "type": "PRE_RECALL_DELAY", "trial_type": "single-stim", "trial_index": 249, "time_elapsed": 1267131, "internal_node_id": "0.0-186.0-0.0"}}, {"uniqueid": "MTK0449:3UOUJI6MTELSTG33AH2VUGVNQVXXUH", "current_trial": 250, "dateTime": 1510931574238, "trialdata": {"rt": -1000, "stimulus": "/static/audio/400Hz.wav", "key_press": -1, "type": "PRE_RECALL_ALERT", "trial_type": "single-audio", "trial_index": 250, "time_elapsed": 1267635, "internal_node_id": "0.0-187.0"}}, {"uniqueid": "MTK0449:3UOUJI6MTELSTG33AH2VUGVNQVXXUH", "current_trial": 251, "dateTime": 1510931634252, "trialdata": {"rt": [8118, 18975, 26867, 30202, 46843], "recwords": ["paper", "popcorn", "rust", "baby", "knife"], "type": "FREE_RECALL", "conditions": [24, 1600, "a", 24000], "trial": 6, "trial_type": "free-recall", "trial_index": 251, "time_elapsed": 1327639, "internal_node_id": "0.0-188.0-0.0"}}, {"uniqueid": "MTK0449:3UOUJI6MTELSTG33AH2VUGVNQVXXUH", "current_trial": 252, "dateTime": 1510931636724, "trialdata": {"rt": 472, "key_press": 13, "type": "INSTRUCTIONS", "trial_type": "text", "trial_index": 252, "time_elapsed": 1330121, "internal_node_id": "0.0-189.0"}}, {"uniqueid": "MTK0449:3UOUJI6MTELSTG33AH2VUGVNQVXXUH", "current_trial": 253, "dateTime": 1510931662745, "trialdata": {"rt": [5551, 8626, 11616, 15802, 19008, 23159], "responses": ["15", "13", "13", "15", "16", "17"], "num1": [5, 1, 9, 4, 9, 6, 3], "num2": [8, 6, 4, 9, 1, 2, 1], "num3": [2, 6, 1, 4, 6, 9, 9], "type": "DISTRACTOR", "conditions": [24, 800, "a", 24000], "trial": 7, "trial_type": "math-distractor", "trial_index": 253, "time_elapsed": 1356142, "internal_node_id": "0.0-190.0"}}, {"uniqueid": "MTK0449:3UOUJI6MTELSTG33AH2VUGVNQVXXUH", "current_trial": 254, "dateTime": 1510931665747, "trialdata": {"rt": -1, "stimulus": "<p id=\"stim\">10</p>", "key_press": -1, "trial_type": "single-stim", "trial_index": 254, "time_elapsed": 1359143, "internal_node_id": "0.0-191.0-0.0"}}, {"uniqueid": "MTK0449:3UOUJI6MTELSTG33AH2VUGVNQVXXUH", "current_trial": 255, "dateTime": 1510931666748, "trialdata": {"rt": -1, "stimulus": "<p id=\"stim\">9</p>", "key_press": -1, "trial_type": "single-stim", "trial_index": 255, "time_elapsed": 1360144, "internal_node_id": "0.0-191.0-1.0"}}, {"uniqueid": "MTK0449:3UOUJI6MTELSTG33AH2VUGVNQVXXUH", "current_trial": 256, "dateTime": 1510931667749, "trialdata": {"rt": -1, "stimulus": "<p id=\"stim\">8</p>", "key_press": -1, "trial_type": "single-stim", "trial_index": 256, "time_elapsed": 1361145, "internal_node_id": "0.0-191.0-2.0"}}, {"uniqueid": "MTK0449:3UOUJI6MTELSTG33AH2VUGVNQVXXUH", "current_trial": 257, "dateTime": 1510931668750, "trialdata": {"rt": -1, "stimulus": "<p id=\"stim\">7</p>", "key_press": -1, "trial_type": "single-stim", "trial_index": 257, "time_elapsed": 1362146, "internal_node_id": "0.0-191.0-3.0"}}, {"uniqueid": "MTK0449:3UOUJI6MTELSTG33AH2VUGVNQVXXUH", "current_trial": 258, "dateTime": 1510931669752, "trialdata": {"rt": -1, "stimulus": "<p id=\"stim\">6</p>", "key_press": -1, "trial_type": "single-stim", "trial_index": 258, "time_elapsed": 1363149, "internal_node_id": "0.0-191.0-4.0"}}, {"uniqueid": "MTK0449:3UOUJI6MTELSTG33AH2VUGVNQVXXUH", "current_trial": 259, "dateTime": 1510931670754, "trialdata": {"rt": -1, "stimulus": "<p id=\"stim\">5</p>", "key_press": -1, "trial_type": "single-stim", "trial_index": 259, "time_elapsed": 1364150, "internal_node_id": "0.0-191.0-5.0"}}, {"uniqueid": "MTK0449:3UOUJI6MTELSTG33AH2VUGVNQVXXUH", "current_trial": 260, "dateTime": 1510931671756, "trialdata": {"rt": -1, "stimulus": "<p id=\"stim\">4</p>", "key_press": -1, "trial_type": "single-stim", "trial_index": 260, "time_elapsed": 1365153, "internal_node_id": "0.0-191.0-6.0"}}, {"uniqueid": "MTK0449:3UOUJI6MTELSTG33AH2VUGVNQVXXUH", "current_trial": 261, "dateTime": 1510931672757, "trialdata": {"rt": -1, "stimulus": "<p id=\"stim\">3</p>", "key_press": -1, "trial_type": "single-stim", "trial_index": 261, "time_elapsed": 1366153, "internal_node_id": "0.0-191.0-7.0"}}, {"uniqueid": "MTK0449:3UOUJI6MTELSTG33AH2VUGVNQVXXUH", "current_trial": 262, "dateTime": 1510931673759, "trialdata": {"rt": -1, "stimulus": "<p id=\"stim\">2</p>", "key_press": -1, "trial_type": "single-stim", "trial_index": 262, "time_elapsed": 1367155, "internal_node_id": "0.0-191.0-8.0"}}, {"uniqueid": "MTK0449:3UOUJI6MTELSTG33AH2VUGVNQVXXUH", "current_trial": 263, "dateTime": 1510931674760, "trialdata": {"rt": -1, "stimulus": "<p id=\"stim\">1</p>", "key_press": -1, "trial_type": "single-stim", "trial_index": 263, "time_elapsed": 1368156, "internal_node_id": "0.0-191.0-9.0"}}, {"uniqueid": "MTK0449:3UOUJI6MTELSTG33AH2VUGVNQVXXUH", "current_trial": 264, "dateTime": 1510931676261, "trialdata": {"rt": -1, "stimulus": "<p id=\"stim\">+</p>", "key_press": -1, "type": "FIXATION", "trial_type": "single-stim", "trial_index": 264, "time_elapsed": 1369658, "internal_node_id": "0.0-192.0-0.0"}}, {"uniqueid": "MTK0449:3UOUJI6MTELSTG33AH2VUGVNQVXXUH", "current_trial": 265, "dateTime": 1510931678111, "trialdata": {"rt": -1000, "stimulus": "/static/audio/wordpool/ARM.wav", "key_press": -1, "type": "PRES_AUD", "word": "arm", "wordID": 37, "conditions": [24, 800, "a", 24000], "trial": 7, "serialpos": 0, "trial_type": "single-audio", "trial_index": 265, "time_elapsed": 1371508, "internal_node_id": "0.0-193.0"}}, {"uniqueid": "MTK0449:3UOUJI6MTELSTG33AH2VUGVNQVXXUH", "current_trial": 266, "dateTime": 1510931680110, "trialdata": {"rt": -1000, "stimulus": "/static/audio/wordpool/SHOULDER.wav", "key_press": -1, "type": "PRES_AUD", "word": "shoulder", "wordID": 1293, "conditions": [24, 800, "a", 24000], "trial": 7, "serialpos": 1, "trial_type": "single-audio", "trial_index": 266, "time_elapsed": 1373507, "internal_node_id": "0.0-194.0"}}, {"uniqueid": "MTK0449:3UOUJI6MTELSTG33AH2VUGVNQVXXUH", "current_trial": 267, "dateTime": 1510931681849, "trialdata": {"rt": -1000, "stimulus": "/static/audio/wordpool/CABIN.wav", "key_press": -1, "type": "PRES_AUD", "word": "cabin", "wordID": 210, "conditions": [24, 800, "a", 24000], "trial": 7, "serialpos": 2, "trial_type": "single-audio", "trial_index": 267, "time_elapsed": 1375246, "internal_node_id": "0.0-195.0"}}, {"uniqueid": "MTK0449:3UOUJI6MTELSTG33AH2VUGVNQVXXUH", "current_trial": 268, "dateTime": 1510931683799, "trialdata": {"rt": -1000, "stimulus": "/static/audio/wordpool/PARROT.wav", "key_press": -1, "type": "PRES_AUD", "word": "parrot", "wordID": 1014, "conditions": [24, 800, "a", 24000], "trial": 7, "serialpos": 3, "trial_type": "single-audio", "trial_index": 268, "time_elapsed": 1377196, "internal_node_id": "0.0-196.0"}}, {"uniqueid": "MTK0449:3UOUJI6MTELSTG33AH2VUGVNQVXXUH", "current_trial": 269, "dateTime": 1510931685546, "trialdata": {"rt": -1000, "stimulus": "/static/audio/wordpool/BACKBONE.wav", "key_press": -1, "type": "PRES_AUD", "word": "backbone", "wordID": 65, "conditions": [24, 800, "a", 24000], "trial": 7, "serialpos": 4, "trial_type": "single-audio", "trial_index": 269, "time_elapsed": 1378943, "internal_node_id": "0.0-197.0"}}, {"uniqueid": "MTK0449:3UOUJI6MTELSTG33AH2VUGVNQVXXUH", "current_trial": 270, "dateTime": 1510931687468, "trialdata": {"rt": -1000, "stimulus": "/static/audio/wordpool/SWORD.wav", "key_press": -1, "type": "PRES_AUD", "word": "sword", "wordID": 1422, "conditions": [24, 800, "a", 24000], "trial": 7, "serialpos": 5, "trial_type": "single-audio", "trial_index": 270, "time_elapsed": 1380865, "internal_node_id": "0.0-198.0"}}, {"uniqueid": "MTK0449:3UOUJI6MTELSTG33AH2VUGVNQVXXUH", "current_trial": 271, "dateTime": 1510931689472, "trialdata": {"rt": -1000, "stimulus": "/static/audio/wordpool/SCULPTURE.wav", "key_press": -1, "type": "PRES_AUD", "word": "sculpture", "wordID": 1257, "conditions": [24, 800, "a", 24000], "trial": 7, "serialpos": 6, "trial_type": "single-audio", "trial_index": 271, "time_elapsed": 1382869, "internal_node_id": "0.0-199.0"}}, {"uniqueid": "MTK0449:3UOUJI6MTELSTG33AH2VUGVNQVXXUH", "current_trial": 272, "dateTime": 1510931691309, "trialdata": {"rt": -1000, "stimulus": "/static/audio/wordpool/LAPEL.wav", "key_press": -1, "type": "PRES_AUD", "word": "lapel", "wordID": 799, "conditions": [24, 800, "a", 24000], "trial": 7, "serialpos": 7, "trial_type": "single-audio", "trial_index": 272, "time_elapsed": 1384706, "internal_node_id": "0.0-200.0"}}, {"uniqueid": "MTK0449:3UOUJI6MTELSTG33AH2VUGVNQVXXUH", "current_trial": 273, "dateTime": 1510931693101, "trialdata": {"rt": -1000, "stimulus": "/st