{"condition": 0, "counterbalance": 236, "assignmentId": "3X73LLYYQ2LIC0JF8C8NDZFZWZXHNA", "workerId": "MTK0813", "hitId": "3AFT28WXLF9Y3WWHP7LJ3GKZ6G8OID", "currenttrial": 626, "bonus": 0, "data": [{"uniqueid": "MTK0813:3X73LLYYQ2LIC0JF8C8NDZFZWZXHNA", "current_trial": 0, "dateTime": 1512759258706, "trialdata": {"rt": 41260, "key_press": 32, "type": "INSTRUCTIONS", "trial_type": "text", "trial_index": 0, "time_elapsed": 41265, "internal_node_id": "0.0-0.0"}}, {"uniqueid": "MTK0813:3X73LLYYQ2LIC0JF8C8NDZFZWZXHNA", "current_trial": 1, "dateTime": 1512759263020, "trialdata": {"rt": 4312, "key_press": 18, "type": "INSTRUCTIONS", "trial_type": "text", "trial_index": 1, "time_elapsed": 45582, "internal_node_id": "0.0-1.0"}}, {"uniqueid": "MTK0813:3X73LLYYQ2LIC0JF8C8NDZFZWZXHNA", "current_trial": 2, "dateTime": 1512759282398, "trialdata": {"rt": [19331], "responses": ["ocean"], "type": "AUDIO_TEST", "trial_type": "audio-test", "trial_index": 2, "time_elapsed": 64960, "internal_node_id": "0.0-2.0"}}, {"uniqueid": "MTK0813:3X73LLYYQ2LIC0JF8C8NDZFZWZXHNA", "current_trial": 3, "dateTime": 1512759294695, "trialdata": {"rt": [12286], "responses": ["crystal"], "type": "AUDIO_TEST", "trial_type": "audio-test", "trial_index": 3, "time_elapsed": 77257, "internal_node_id": "0.0-3.0"}}, {"uniqueid": "MTK0813:3X73LLYYQ2LIC0JF8C8NDZFZWZXHNA", "current_trial": 4, "dateTime": 1512759300021, "trialdata": {"rt": [5313], "responses": ["spice"], "type": "AUDIO_TEST", "trial_type": "audio-test", "trial_index": 4, "time_elapsed": 82583, "internal_node_id": "0.0-4.0"}}, {"uniqueid": "MTK0813:3X73LLYYQ2LIC0JF8C8NDZFZWZXHNA", "current_trial": 5, "dateTime": 1512759311839, "trialdata": {"rt": 11062, "responses": "{\"Q0\":\"10:00\",\"Q1\":\"8:30\",\"Q2\":\"4\"}", "type": "SLEEP_SURVEY", "trial_type": "survey-text", "trial_index": 5, "time_elapsed": 94401, "internal_node_id": "0.0-5.0"}}, {"uniqueid": "MTK0813:3X73LLYYQ2LIC0JF8C8NDZFZWZXHNA", "current_trial": 6, "dateTime": 1512759312915, "trialdata": {"rt": 74, "key_press": 18, "type": "INSTRUCTIONS", "trial_type": "text", "trial_index": 6, "time_elapsed": 95477, "internal_node_id": "0.0-6.0"}}, {"uniqueid": "MTK0813:3X73LLYYQ2LIC0JF8C8NDZFZWZXHNA", "current_trial": 7, "dateTime": 1512759314300, "trialdata": {"rt": 883, "key_press": 32, "type": "INSTRUCTIONS", "trial_type": "text", "trial_index": 7, "time_elapsed": 96862, "internal_node_id": "0.0-7.0"}}, {"uniqueid": "MTK0813:3X73LLYYQ2LIC0JF8C8NDZFZWZXHNA", "current_trial": 8, "dateTime": 1512759315101, "trialdata": {"rt": 298, "key_press": 32, "type": "INSTRUCTIONS", "trial_type": "text", "trial_index": 8, "time_elapsed": 97663, "internal_node_id": "0.0-8.0"}}, {"uniqueid": "MTK0813:3X73LLYYQ2LIC0JF8C8NDZFZWZXHNA", "current_trial": 9, "dateTime": 1512759334130, "trialdata": {"rt": [1780, 3283, 5219, 8092, 9487, 11228, 16347, 17804], "responses": ["12", "16", "16", "16", "11", "11", "21", "15"], "num1": [8, 9, 9, 2, 2, 5, 4, 7, 7], "num2": [3, 4, 2, 9, 1, 2, 8, 1, 5], "num3": [1, 3, 5, 5, 8, 4, 9, 7, 3], "type": "DISTRACTOR", "conditions": [18, 1200, "v", 18000], "trial": 0, "trial_type": "math-distractor", "trial_index": 9, "time_elapsed": 116692, "internal_node_id": "0.0-9.0"}}, {"uniqueid": "MTK0813:3X73LLYYQ2LIC0JF8C8NDZFZWZXHNA", "current_trial": 10, "dateTime": 1512759337134, "trialdata": {"rt": 919, "stimulus": "<p id=\"stim\">10</p>", "key_press": 18, "trial_type": "single-stim", "trial_index": 10, "time_elapsed": 119696, "internal_node_id": "0.0-10.0-0.0"}}, {"uniqueid": "MTK0813:3X73LLYYQ2LIC0JF8C8NDZFZWZXHNA", "current_trial": 11, "dateTime": 1512759338136, "trialdata": {"rt": -1, "stimulus": "<p id=\"stim\">9</p>", "key_press": -1, "trial_type": "single-stim", "trial_index": 11, "time_elapsed": 120698, "internal_node_id": "0.0-10.0-1.0"}}, {"uniqueid": "MTK0813:3X73LLYYQ2LIC0JF8C8NDZFZWZXHNA", "current_trial": 12, "dateTime": 1512759339138, "trialdata": {"rt": -1, "stimulus": "<p id=\"stim\">8</p>", "key_press": -1, "trial_type": "single-stim", "trial_index": 12, "time_elapsed": 121700, "internal_node_id": "0.0-10.0-2.0"}}, {"uniqueid": "MTK0813:3X73LLYYQ2LIC0JF8C8NDZFZWZXHNA", "current_trial": 13, "dateTime": 1512759340141, "trialdata": {"rt": 487, "stimulus": "<p id=\"stim\">7</p>", "key_press": 18, "trial_type": "single-stim", "trial_index": 13, "time_elapsed": 122702, "internal_node_id": "0.0-10.0-3.0"}}, {"uniqueid": "MTK0813:3X73LLYYQ2LIC0JF8C8NDZFZWZXHNA", "current_trial": 14, "dateTime": 1512759341142, "trialdata": {"rt": -1, "stimulus": "<p id=\"stim\">6</p>", "key_press": -1, "trial_type": "single-stim", "trial_index": 14, "time_elapsed": 123704, "internal_node_id": "0.0-10.0-4.0"}}, {"uniqueid": "MTK0813:3X73LLYYQ2LIC0JF8C8NDZFZWZXHNA", "current_trial": 15, "dateTime": 1512759342144, "trialdata": {"rt": -1, "stimulus": "<p id=\"stim\">5</p>", "key_press": -1, "trial_type": "single-stim", "trial_index": 15, "time_elapsed": 124705, "internal_node_id": "0.0-10.0-5.0"}}, {"uniqueid": "MTK0813:3X73LLYYQ2LIC0JF8C8NDZFZWZXHNA", "current_trial": 16, "dateTime": 1512759343145, "trialdata": {"rt": -1, "stimulus": "<p id=\"stim\">4</p>", "key_press": -1, "trial_type": "single-stim", "trial_index": 16, "time_elapsed": 125707, "internal_node_id": "0.0-10.0-6.0"}}, {"uniqueid": "MTK0813:3X73LLYYQ2LIC0JF8C8NDZFZWZXHNA", "current_trial": 17, "dateTime": 1512759344147, "trialdata": {"rt": -1, "stimulus": "<p id=\"stim\">3</p>", "key_press": -1, "trial_type": "single-stim", "trial_index": 17, "time_elapsed": 126708, "internal_node_id": "0.0-10.0-7.0"}}, {"uniqueid": "MTK0813:3X73LLYYQ2LIC0JF8C8NDZFZWZXHNA", "current_trial": 18, "dateTime": 1512759345148, "trialdata": {"rt": -1, "stimulus": "<p id=\"stim\">2</p>", "key_press": -1, "trial_type": "single-stim", "trial_index": 18, "time_elapsed": 127710, "internal_node_id": "0.0-10.0-8.0"}}, {"uniqueid": "MTK0813:3X73LLYYQ2LIC0JF8C8NDZFZWZXHNA", "current_trial": 19, "dateTime": 1512759346149, "trialdata": {"rt": -1, "stimulus": "<p id=\"stim\">1</p>", "key_press": -1, "trial_type": "single-stim", "trial_index": 19, "time_elapsed": 128711, "internal_node_id": "0.0-10.0-9.0"}}, {"uniqueid": "MTK0813:3X73LLYYQ2LIC0JF8C8NDZFZWZXHNA", "current_trial": 20, "dateTime": 1512759347651, "trialdata": {"rt": -1, "stimulus": "<p id=\"stim\">+</p>", "key_press": -1, "type": "FIXATION", "trial_type": "single-stim", "trial_index": 20, "time_elapsed": 130213, "internal_node_id": "0.0-11.0-0.0"}}, {"uniqueid": "MTK0813:3X73LLYYQ2LIC0JF8C8NDZFZWZXHNA", "current_trial": 21, "dateTime": 1512759348854, "trialdata": {"rt": 538, "stimulus": "<p id=\"stim\">POSSUM</p>", "key_press": 18, "type": "PRES_VIS", "word": "possum", "wordID": 1111, "conditions": [18, 1200, "v", 18000], "trial": 0, "serialpos": 0, "trial_type": "single-stim", "trial_index": 21, "time_elapsed": 131415, "internal_node_id": "0.0-12.0"}}, {"uniqueid": "MTK0813:3X73LLYYQ2LIC0JF8C8NDZFZWZXHNA", "current_trial": 22, "dateTime": 1512759351157, "trialdata": {"rt": -1, "stimulus": "<p id=\"stim\">GAZELLE</p>", "key_press": -1, "type": "PRES_VIS", "word": "gazelle", "wordID": 627, "conditions": [18, 1200, "v", 18000], "trial": 0, "serialpos": 1, "trial_type": "single-stim", "trial_index": 22, "time_elapsed": 133719, "internal_node_id": "0.0-13.0"}}, {"uniqueid": "MTK0813:3X73LLYYQ2LIC0JF8C8NDZFZWZXHNA", "current_trial": 23, "dateTime": 1512759353288, "trialdata": {"rt": 732, "stimulus": "<p id=\"stim\">HERO</p>", "key_press": 18, "type": "PRES_VIS", "word": "hero", "wordID": 705, "conditions": [18, 1200, "v", 18000], "trial": 0, "serialpos": 2, "trial_type": "single-stim", "trial_index": 23, "time_elapsed": 135850, "internal_node_id": "0.0-14.0"}}, {"uniqueid": "MTK0813:3X73LLYYQ2LIC0JF8C8NDZFZWZXHNA", "current_trial": 24, "dateTime": 1512759355598, "trialdata": {"rt": -1, "stimulus": "<p id=\"stim\">TRANSPLANT</p>", "key_press": -1, "type": "PRES_VIS", "word": "transplant", "wordID": 1495, "conditions": [18, 1200, "v", 18000], "trial": 0, "serialpos": 3, "trial_type": "single-stim", "trial_index": 24, "time_elapsed": 138160, "internal_node_id": "0.0-15.0"}}, {"uniqueid": "MTK0813:3X73LLYYQ2LIC0JF8C8NDZFZWZXHNA", "current_trial": 25, "dateTime": 1512759357978, "trialdata": {"rt": -1, "stimulus": "<p id=\"stim\">SWAMP</p>", "key_press": -1, "type": "PRES_VIS", "word": "swamp", "wordID": 1415, "conditions": [18, 1200, "v", 18000], "trial": 0, "serialpos": 4, "trial_type": "single-stim", "trial_index": 25, "time_elapsed": 140540, "internal_node_id": "0.0-16.0"}}, {"uniqueid": "MTK0813:3X73LLYYQ2LIC0JF8C8NDZFZWZXHNA", "current_trial": 26, "dateTime": 1512759360072, "trialdata": {"rt": 1172, "stimulus": "<p id=\"stim\">HIGHWAY</p>", "key_press": 18, "type": "PRES_VIS", "word": "highway", "wordID": 706, "conditions": [18, 1200, "v", 18000], "trial": 0, "serialpos": 5, "trial_type": "single-stim", "trial_index": 26, "time_elapsed": 142634, "internal_node_id": "0.0-17.0"}}, {"uniqueid": "MTK0813:3X73LLYYQ2LIC0JF8C8NDZFZWZXHNA", "current_trial": 27, "dateTime": 1512759362184, "trialdata": {"rt": -1, "stimulus": "<p id=\"stim\">SCALPEL</p>", "key_press": -1, "type": "PRES_VIS", "word": "scalpel", "wordID": 1242, "conditions": [18, 1200, "v", 18000], "trial": 0, "serialpos": 6, "trial_type": "single-stim", "trial_index": 27, "time_elapsed": 144745, "internal_node_id": "0.0-18.0"}}, {"uniqueid": "MTK0813:3X73LLYYQ2LIC0JF8C8NDZFZWZXHNA", "current_trial": 28, "dateTime": 1512759364490, "trialdata": {"rt": -1, "stimulus": "<p id=\"stim\">STREAM</p>", "key_press": -1, "type": "PRES_VIS", "word": "stream", "wordID": 1391, "conditions": [18, 1200, "v", 18000], "trial": 0, "serialpos": 7, "trial_type": "single-stim", "trial_index": 28, "time_elapsed": 147051, "internal_node_id": "0.0-19.0"}}, {"uniqueid": "MTK0813:3X73LLYYQ2LIC0JF8C8NDZFZWZXHNA", "current_trial": 29, "dateTime": 1512759366571, "trialdata": {"rt": 755, "stimulus": "<p id=\"stim\">BLENDER</p>", "key_press": 18, "type": "PRES_VIS", "word": "blender", "wordID": 135, "conditions": [18, 1200, "v", 18000], "trial": 0, "serialpos": 8, "trial_type": "single-stim", "trial_index": 29, "time_elapsed": 149133, "internal_node_id": "0.0-20.0"}}, {"uniqueid": "MTK0813:3X73LLYYQ2LIC0JF8C8NDZFZWZXHNA", "current_trial": 30, "dateTime": 1512759368740, "trialdata": {"rt": -1, "stimulus": "<p id=\"stim\">BALLOON</p>", "key_press": -1, "type": "PRES_VIS", "word": "balloon", "wordID": 74, "conditions": [18, 1200, "v", 18000], "trial": 0, "serialpos": 9, "trial_type": "single-stim", "trial_index": 30, "time_elapsed": 151302, "internal_node_id": "0.0-21.0"}}, {"uniqueid": "MTK0813:3X73LLYYQ2LIC0JF8C8NDZFZWZXHNA", "current_trial": 31, "dateTime": 1512759370810, "trialdata": {"rt": 459, "stimulus": "<p id=\"stim\">CLOCK</p>", "key_press": 18, "type": "PRES_VIS", "word": "clock", "wordID": 324, "conditions": [18, 1200, "v", 18000], "trial": 0, "serialpos": 10, "trial_type": "single-stim", "trial_index": 31, "time_elapsed": 153371, "internal_node_id": "0.0-22.0"}}, {"uniqueid": "MTK0813:3X73LLYYQ2LIC0JF8C8NDZFZWZXHNA", "current_trial": 32, "dateTime": 1512759372878, "trialdata": {"rt": -1, "stimulus": "<p id=\"stim\">NIGHTGOWN</p>", "key_press": -1, "type": "PRES_VIS", "word": "nightgown", "wordID": 952, "conditions": [18, 1200, "v", 18000], "trial": 0, "serialpos": 11, "trial_type": "single-stim", "trial_index": 32, "time_elapsed": 155440, "internal_node_id": "0.0-23.0"}}, {"uniqueid": "MTK0813:3X73LLYYQ2LIC0JF8C8NDZFZWZXHNA", "current_trial": 33, "dateTime": 1512759374987, "trialdata": {"rt": -1, "stimulus": "<p id=\"stim\">LUGGAGE</p>", "key_press": -1, "type": "PRES_VIS", "word": "luggage", "wordID": 846, "conditions": [18, 1200, "v", 18000], "trial": 0, "serialpos": 12, "trial_type": "single-stim", "trial_index": 33, "time_elapsed": 157549, "internal_node_id": "0.0-24.0"}}, {"uniqueid": "MTK0813:3X73LLYYQ2LIC0JF8C8NDZFZWZXHNA", "current_trial": 34, "dateTime": 1512759376992, "trialdata": {"rt": -1, "stimulus": "<p id=\"stim\">PLAZA</p>", "key_press": -1, "type": "PRES_VIS", "word": "plaza", "wordID": 1087, "conditions": [18, 1200, "v", 18000], "trial": 0, "serialpos": 13, "trial_type": "single-stim", "trial_index": 34, "time_elapsed": 159554, "internal_node_id": "0.0-25.0"}}, {"uniqueid": "MTK0813:3X73LLYYQ2LIC0JF8C8NDZFZWZXHNA", "current_trial": 35, "dateTime": 1512759379184, "trialdata": {"rt": 476, "stimulus": "<p id=\"stim\">PARROT</p>", "key_press": 18, "type": "PRES_VIS", "word": "parrot", "wordID": 1014, "conditions": [18, 1200, "v", 18000], "trial": 0, "serialpos": 14, "trial_type": "single-stim", "trial_index": 35, "time_elapsed": 161746, "internal_node_id": "0.0-26.0"}}, {"uniqueid": "MTK0813:3X73LLYYQ2LIC0JF8C8NDZFZWZXHNA", "current_trial": 36, "dateTime": 1512759381265, "trialdata": {"rt": -1, "stimulus": "<p id=\"stim\">GRAVE</p>", "key_press": -1, "type": "PRES_VIS", "word": "grave", "wordID": 657, "conditions": [18, 1200, "v", 18000], "trial": 0, "serialpos": 15, "trial_type": "single-stim", "trial_index": 36, "time_elapsed": 163826, "internal_node_id": "0.0-27.0"}}, {"uniqueid": "MTK0813:3X73LLYYQ2LIC0JF8C8NDZFZWZXHNA", "current_trial": 37, "dateTime": 1512759383644, "trialdata": {"rt": -1, "stimulus": "<p id=\"stim\">KETCHUP</p>", "key_press": -1, "type": "PRES_VIS", "word": "ketchup", "wordID": 770, "conditions": [18, 1200, "v", 18000], "trial": 0, "serialpos": 16, "trial_type": "single-stim", "trial_index": 37, "time_elapsed": 166206, "internal_node_id": "0.0-28.0"}}, {"uniqueid": "MTK0813:3X73LLYYQ2LIC0JF8C8NDZFZWZXHNA", "current_trial": 38, "dateTime": 1512759385773, "trialdata": {"rt": -1, "stimulus": "<p id=\"stim\">RUG</p>", "key_press": -1, "type": "PRES_VIS", "word": "rug", "wordID": 1214, "conditions": [18, 1200, "v", 18000], "trial": 0, "serialpos": 17, "trial_type": "single-stim", "trial_index": 38, "time_elapsed": 168335, "internal_node_id": "0.0-29.0"}}, {"uniqueid": "MTK0813:3X73LLYYQ2LIC0JF8C8NDZFZWZXHNA", "current_trial": 39, "dateTime": 1512759387990, "trialdata": {"rt": -1, "stimulus": "", "key_press": -1, "type": "PRE_RECALL_DELAY", "trial_type": "single-stim", "trial_index": 39, "time_elapsed": 170552, "internal_node_id": "0.0-30.0-0.0"}}, {"uniqueid": "MTK0813:3X73LLYYQ2LIC0JF8C8NDZFZWZXHNA", "current_trial": 40, "dateTime": 1512759388494, "trialdata": {"rt": -1000, "stimulus": "/static/audio/400Hz.wav", "key_press": -1, "type": "PRE_RECALL_ALERT", "trial_type": "single-audio", "trial_index": 40, "time_elapsed": 171056, "internal_node_id": "0.0-31.0"}}, {"uniqueid": "MTK0813:3X73LLYYQ2LIC0JF8C8NDZFZWZXHNA", "current_trial": 41, "dateTime": 1512759448505, "trialdata": {"rt": [4233, 4984, 5965, 23904], "recwords": ["possum", "clock", "blender", "hero"], "type": "FREE_RECALL", "conditions": [18, 1200, "v", 18000], "trial": 0, "trial_type": "free-recall", "trial_index": 41, "time_elapsed": 231062, "internal_node_id": "0.0-32.0-0.0"}}, {"uniqueid": "MTK0813:3X73LLYYQ2LIC0JF8C8NDZFZWZXHNA", "current_trial": 42, "dateTime": 1512759452589, "trialdata": {"rt": 2082, "key_press": 18, "type": "INSTRUCTIONS", "trial_type": "text", "trial_index": 42, "time_elapsed": 235151, "internal_node_id": "0.0-33.0"}}, {"uniqueid": "MTK0813:3X73LLYYQ2LIC0JF8C8NDZFZWZXHNA", "current_trial": 43, "dateTime": 1512759472593, "trialdata": {"rt": [11306, 13058, 14886, 16286], "responses": ["14", "15", "18+", "10"], "num1": [8, 2, 9, 1, 3], "num2": [5, 5, 5, 8, 1], "num3": [1, 8, 4, 1, 9], "type": "DISTRACTOR", "conditions": [18, 1200, "a", 18000], "trial": 1, "trial_type": "math-distractor", "trial_index": 43, "time_elapsed": 255155, "internal_node_id": "0.0-34.0"}}, {"uniqueid": "MTK0813:3X73LLYYQ2LIC0JF8C8NDZFZWZXHNA", "current_trial": 44, "dateTime": 1512759475597, "trialdata": {"rt": -1, "stimulus": "<p id=\"stim\">10</p>", "key_press": -1, "trial_type": "single-stim", "trial_index": 44, "time_elapsed": 258159, "internal_node_id": "0.0-35.0-0.0"}}, {"uniqueid": "MTK0813:3X73LLYYQ2LIC0JF8C8NDZFZWZXHNA", "current_trial": 45, "dateTime": 1512759476598, "trialdata": {"rt": -1, "stimulus": "<p id=\"stim\">9</p>", "key_press": -1, "trial_type": "single-stim", "trial_index": 45, "time_elapsed": 259160, "internal_node_id": "0.0-35.0-1.0"}}, {"uniqueid": "MTK0813:3X73LLYYQ2LIC0JF8C8NDZFZWZXHNA", "current_trial": 46, "dateTime": 1512759477600, "trialdata": {"rt": -1, "stimulus": "<p id=\"stim\">8</p>", "key_press": -1, "trial_type": "single-stim", "trial_index": 46, "time_elapsed": 260162, "internal_node_id": "0.0-35.0-2.0"}}, {"uniqueid": "MTK0813:3X73LLYYQ2LIC0JF8C8NDZFZWZXHNA", "current_trial": 47, "dateTime": 1512759478601, "trialdata": {"rt": -1, "stimulus": "<p id=\"stim\">7</p>", "key_press": -1, "trial_type": "single-stim", "trial_index": 47, "time_elapsed": 261163, "internal_node_id": "0.0-35.0-3.0"}}, {"uniqueid": "MTK0813:3X73LLYYQ2LIC0JF8C8NDZFZWZXHNA", "current_trial": 48, "dateTime": 1512759479603, "trialdata": {"rt": -1, "stimulus": "<p id=\"stim\">6</p>", "key_press": -1, "trial_type": "single-stim", "trial_index": 48, "time_elapsed": 262165, "internal_node_id": "0.0-35.0-4.0"}}, {"uniqueid": "MTK0813:3X73LLYYQ2LIC0JF8C8NDZFZWZXHNA", "current_trial": 49, "dateTime": 1512759480604, "trialdata": {"rt": -1, "stimulus": "<p id=\"stim\">5</p>", "key_press": -1, "trial_type": "single-stim", "trial_index": 49, "time_elapsed": 263166, "internal_node_id": "0.0-35.0-5.0"}}, {"uniqueid": "MTK0813:3X73LLYYQ2LIC0JF8C8NDZFZWZXHNA", "current_trial": 50, "dateTime": 1512759481606, "trialdata": {"rt": -1, "stimulus": "<p id=\"stim\">4</p>", "key_press": -1, "trial_type": "single-stim", "trial_index": 50, "time_elapsed": 264168, "internal_node_id": "0.0-35.0-6.0"}}, {"uniqueid": "MTK0813:3X73LLYYQ2LIC0JF8C8NDZFZWZXHNA", "current_trial": 51, "dateTime": 1512759482607, "trialdata": {"rt": -1, "stimulus": "<p id=\"stim\">3</p>", "key_press": -1, "trial_type": "single-stim", "trial_index": 51, "time_elapsed": 265169, "internal_node_id": "0.0-35.0-7.0"}}, {"uniqueid": "MTK0813:3X73LLYYQ2LIC0JF8C8NDZFZWZXHNA", "current_trial": 52, "dateTime": 1512759483609, "trialdata": {"rt": -1, "stimulus": "<p id=\"stim\">2</p>", "key_press": -1, "trial_type": "single-stim", "trial_index": 52, "time_elapsed": 266171, "internal_node_id": "0.0-35.0-8.0"}}, {"uniqueid": "MTK0813:3X73LLYYQ2LIC0JF8C8NDZFZWZXHNA", "current_trial": 53, "dateTime": 1512759484611, "trialdata": {"rt": -1, "stimulus": "<p id=\"stim\">1</p>", "key_press": -1, "trial_type": "single-stim", "trial_index": 53, "time_elapsed": 267173, "internal_node_id": "0.0-35.0-9.0"}}, {"uniqueid": "MTK0813:3X73LLYYQ2LIC0JF8C8NDZFZWZXHNA", "current_trial": 54, "dateTime": 1512759486112, "trialdata": {"rt": -1, "stimulus": "<p id=\"stim\">+</p>", "key_press": -1, "type": "FIXATION", "trial_type": "single-stim", "trial_index": 54, "time_elapsed": 268674, "internal_node_id": "0.0-36.0-0.0"}}, {"uniqueid": "MTK0813:3X73LLYYQ2LIC0JF8C8NDZFZWZXHNA", "current_trial": 55, "dateTime": 1512759488244, "trialdata": {"rt": 507.99999999998136, "stimulus": "/static/audio/wordpool/SERVANT.wav", "key_press": 18, "type": "PRES_AUD", "word": "servant", "wordID": 1270, "conditions": [18, 1200, "a", 18000], "trial": 1, "serialpos": 0, "trial_type": "single-audio", "trial_index": 55, "time_elapsed": 270806, "internal_node_id": "0.0-37.0"}}, {"uniqueid": "MTK0813:3X73LLYYQ2LIC0JF8C8NDZFZWZXHNA", "current_trial": 56, "dateTime": 1512759490395, "trialdata": {"rt": -1000, "stimulus": "/static/audio/wordpool/COLLEGE.wav", "key_press": -1, "type": "PRES_AUD", "word": "college", "wordID": 345, "conditions": [18, 1200, "a", 18000], "trial": 1, "serialpos": 1, "trial_type": "single-audio", "trial_index": 56, "time_elapsed": 272957, "internal_node_id": "0.0-38.0"}}, {"uniqueid": "MTK0813:3X73LLYYQ2LIC0JF8C8NDZFZWZXHNA", "current_trial": 57, "dateTime": 1512759492698, "trialdata": {"rt": -1000, "stimulus": "/static/audio/wordpool/KITCHEN.wav", "key_press": -1, "type": "PRES_AUD", "word": "kitchen", "wordID": 777, "conditions": [18, 1200, "a", 18000], "trial": 1, "serialpos": 2, "trial_type": "single-audio", "trial_index": 57, "time_elapsed": 275259, "internal_node_id": "0.0-39.0"}}, {"uniqueid": "MTK0813:3X73LLYYQ2LIC0JF8C8NDZFZWZXHNA", "current_trial": 58, "dateTime": 1512759494716, "trialdata": {"rt": -1000, "stimulus": "/static/audio/wordpool/COUCH.wav", "key_press": -1, "type": "PRES_AUD", "word": "couch", "wordID": 385, "conditions": [18, 1200, "a", 18000], "trial": 1, "serialpos": 3, "trial_type": "single-audio", "trial_index": 58, "time_elapsed": 277277, "internal_node_id": "0.0-40.0"}}, {"uniqueid": "MTK0813:3X73LLYYQ2LIC0JF8C8NDZFZWZXHNA", "current_trial": 59, "dateTime": 1512759497026, "trialdata": {"rt": -1000, "stimulus": "/static/audio/wordpool/SHERIFF.wav", "key_press": -1, "type": "PRES_AUD", "word": "sheriff", "wordID": 1283, "conditions": [18, 1200, "a", 18000], "trial": 1, "serialpos": 4, "trial_type": "single-audio", "trial_index": 59, "time_elapsed": 279588, "internal_node_id": "0.0-41.0"}}, {"uniqueid": "MTK0813:3X73LLYYQ2LIC0JF8C8NDZFZWZXHNA", "current_trial": 60, "dateTime": 1512759499129, "trialdata": {"rt": -1000, "stimulus": "/static/audio/wordpool/COMPASS.wav", "key_press": -1, "type": "PRES_AUD", "word": "compass", "wordID": 357, "conditions": [18, 1200, "a", 18000], "trial": 1, "serialpos": 5, "trial_type": "single-audio", "trial_index": 60, "time_elapsed": 281691, "internal_node_id": "0.0-42.0"}}, {"uniqueid": "MTK0813:3X73LLYYQ2LIC0JF8C8NDZFZWZXHNA", "current_trial": 61, "dateTime": 1512759501353, "trialdata": {"rt": -1000, "stimulus": "/static/audio/wordpool/CRAB.wav", "key_press": -1, "type": "PRES_AUD", "word": "crab", "wordID": 396, "conditions": [18, 1200, "a", 18000], "trial": 1, "serialpos": 6, "trial_type": "single-audio", "trial_index": 61, "time_elapsed": 283915, "internal_node_id": "0.0-43.0"}}, {"uniqueid": "MTK0813:3X73LLYYQ2LIC0JF8C8NDZFZWZXHNA", "current_trial": 62, "dateTime": 1512759503625, "trialdata": {"rt": -1000, "stimulus": "/static/audio/wordpool/GIFT.wav", "key_press": -1, "type": "PRES_AUD", "word": "gift", "wordID": 634, "conditions": [18, 1200, "a", 18000], "trial": 1, "serialpos": 7, "trial_type": "single-audio", "trial_index": 62, "time_elapsed": 286187, "internal_node_id": "0.0-44.0"}}, {"uniqueid": "MTK0813:3X73LLYYQ2LIC0JF8C8NDZFZWZXHNA", "current_trial": 63, "dateTime": 1512759505912, "trialdata": {"rt": -1000, "stimulus": "/static/audio/wordpool/TILE.wav", "key_press": -1, "type": "PRES_AUD", "word": "tile", "wordID": 1467, "conditions": [18, 1200, "a", 18000], "trial": 1, "serialpos": 8, "trial_type": "single-audio", "trial_index": 63, "time_elapsed": 288474, "internal_node_id": "0.0-45.0"}}, {"uniqueid": "MTK0813:3X73LLYYQ2LIC0JF8C8NDZFZWZXHNA", "current_trial": 64, "dateTime": 1512759508043, "trialdata": {"rt": -1000, "stimulus": "/static/audio/wordpool/COCKTAIL.wav", "key_press": -1, "type": "PRES_AUD", "word": "cocktail", "wordID": 337, "conditions": [18, 1200, "a", 18000], "trial": 1, "serialpos": 9, "trial_type": "single-audio", "trial_index": 64, "time_elapsed": 290605, "internal_node_id": "0.0-46.0"}}, {"uniqueid": "MTK0813:3X73LLYYQ2LIC0JF8C8NDZFZWZXHNA", "current_trial": 65, "dateTime": 1512759510394, "trialdata": {"rt": -1000, "stimulus": "/static/audio/wordpool/CLOTHES.wav", "key_press": -1, "type": "PRES_AUD", "word": "clothes", "wordID": 326, "conditions": [18, 1200, "a", 18000], "trial": 1, "serialpos": 10, "trial_type": "single-audio", "trial_index": 65, "time_elapsed": 292956, "internal_node_id": "0.0-47.0"}}, {"uniqueid": "MTK0813:3X73LLYYQ2LIC0JF8C8NDZFZWZXHNA", "current_trial": 66, "dateTime": 1512759512438, "trialdata": {"rt": -1000, "stimulus": "/static/audio/wordpool/RAZOR.wav", "key_press": -1, "type": "PRES_AUD", "word": "razor", "wordID": 1170, "conditions": [18, 1200, "a", 18000], "trial": 1, "serialpos": 11, "trial_type": "single-audio", "trial_index": 66, "time_elapsed": 294999, "internal_node_id": "0.0-48.0"}}, {"uniqueid": "MTK0813:3X73LLYYQ2LIC0JF8C8NDZFZWZXHNA", "current_trial": 67, "dateTime": 1512759514626, "trialdata": {"rt": -1000, "stimulus": "/static/audio/wordpool/TUNNEL.wav", "key_press": -1, "type": "PRES_AUD", "word": "tunnel", "wordID": 1518, "conditions": [18, 1200, "a", 18000], "trial": 1, "serialpos": 12, "trial_type": "single-audio", "trial_index": 67, "time_elapsed": 297188, "internal_node_id": "0.0-49.0"}}, {"uniqueid": "MTK0813:3X73LLYYQ2LIC0JF8C8NDZFZWZXHNA", "current_trial": 68, "dateTime": 1512759516892, "trialdata": {"rt": -1000, "stimulus": "/static/audio/wordpool/ZIPPER.wav", "key_press": -1, "type": "PRES_AUD", "word": "zipper", "wordID": 1635, "conditions": [18, 1200, "a", 18000], "trial": 1, "serialpos": 13, "trial_type": "single-audio", "trial_index": 68, "time_elapsed": 299438, "internal_node_id": "0.0-50.0"}}, {"uniqueid": "MTK0813:3X73LLYYQ2LIC0JF8C8NDZFZWZXHNA", "current_trial": 69, "dateTime": 1512759519243, "trialdata": {"rt": -1000, "stimulus": "/static/audio/wordpool/POLICE.wav", "key_press": -1, "type": "PRES_AUD", "word": "police", "wordID": 1097, "conditions": [18, 1200, "a", 18000], "trial": 1, "serialpos": 14, "trial_type": "single-audio", "trial_index": 69, "time_elapsed": 301805, "internal_node_id": "0.0-51.0"}}, {"uniqueid": "MTK0813:3X73LLYYQ2LIC0JF8C8NDZFZWZXHNA", "current_trial": 70, "dateTime": 1512759521580, "trialdata": {"rt": -1000, "stimulus": "/static/audio/wordpool/TUBA.wav", "key_press": -1, "type": "PRES_AUD", "word": "tuba", "wordID": 1514, "conditions": [18, 1200, "a", 18000], "trial": 1, "serialpos": 15, "trial_type": "single-audio", "trial_index": 70, "time_elapsed": 304141, "internal_node_id": "0.0-52.0"}}, {"uniqueid": "MTK0813:3X73LLYYQ2LIC0JF8C8NDZFZWZXHNA", "current_trial": 71, "dateTime": 1512759523821, "trialdata": {"rt": -1000, "stimulus": "/static/audio/wordpool/ROD.wav", "key_press": -1, "type": "PRES_AUD", "word": "rod", "wordID": 1202, "conditions": [18, 1200, "a", 18000], "trial": 1, "serialpos": 16, "trial_type": "single-audio", "trial_index": 71, "time_elapsed": 306383, "internal_node_id": "0.0-53.0"}}, {"uniqueid": "MTK0813:3X73LLYYQ2LIC0JF8C8NDZFZWZXHNA", "current_trial": 72, "dateTime": 1512759526187, "trialdata": {"rt": -1000, "stimulus": "/static/audio/wordpool/STOMACH.wav", "key_press": -1, "type": "PRES_AUD", "word": "stomach", "wordID": 1383, "conditions": [18, 1200, "a", 18000], "trial": 1, "serialpos": 17, "trial_type": "single-audio", "trial_index": 72, "time_elapsed": 308749, "internal_node_id": "0.0-54.0"}}, {"uniqueid": "MTK0813:3X73LLYYQ2LIC0JF8C8NDZFZWZXHNA", "current_trial": 73, "dateTime": 1512759527406, "trialdata": {"rt": -1, "stimulus": "", "key_press": -1, "type": "PRE_RECALL_DELAY", "trial_type": "single-stim", "trial_index": 73, "time_elapsed": 309968, "internal_node_id": "0.0-55.0-0.0"}}, {"uniqueid": "MTK0813:3X73LLYYQ2LIC0JF8C8NDZFZWZXHNA", "current_trial": 74, "dateTime": 1512759527908, "trialdata": {"rt": -1000, "stimulus": "/static/audio/400Hz.wav", "key_press": -1, "type": "PRE_RECALL_ALERT", "trial_type": "single-audio", "trial_index": 74, "time_elapsed": 310469, "internal_node_id": "0.0-56.0"}}, {"uniqueid": "MTK0813:3X73LLYYQ2LIC0JF8C8NDZFZWZXHNA", "current_trial": 75, "dateTime": 1512759587916, "trialdata": {"rt": [8642, 9977, 11725, 12606, 14580, 15429, 16733], "recwords": ["tuba", "cocktail", "police", "zipper", "tunnel", "college", "crab"], "type": "FREE_RECALL", "conditions": [18, 1200, "a", 18000], "trial": 1, "trial_type": "free-recall", "trial_index": 75, "time_elapsed": 370473, "internal_node_id": "0.0-57.0-0.0"}}, {"uniqueid": "MTK0813:3X73LLYYQ2LIC0JF8C8NDZFZWZXHNA", "current_trial": 76, "dateTime": 1512759590973, "trialdata": {"rt": 1049, "key_press": 32, "type": "INSTRUCTIONS", "trial_type": "text", "trial_index": 76, "time_elapsed": 373528, "internal_node_id": "0.0-58.0"}}, {"uniqueid": "MTK0813:3X73LLYYQ2LIC0JF8C8NDZFZWZXHNA", "current_trial": 77, "dateTime": 1512759603981, "trialdata": {"rt": [1349, 2732, 4483, 6043, 8452, 10276, 11819], "responses": ["6", "11", "16", "16", "19", "11", "16"], "num1": [2, 3, 9, 4, 9, 7, 2, 1], "num2": [2, 1, 3, 8, 4, 2, 8, 6], "num3": [2, 7, 4, 4, 6, 2, 6, 2], "type": "DISTRACTOR", "conditions": [24, 800, "v", 12000], "trial": 2, "trial_type": "math-distractor", "trial_index": 77, "time_elapsed": 386539, "internal_node_id": "0.0-59.0"}}, {"uniqueid": "MTK0813:3X73LLYYQ2LIC0JF8C8NDZFZWZXHNA", "current_trial": 78, "dateTime": 1512759606984, "trialdata": {"rt": -1, "stimulus": "<p id=\"stim\">10</p>", "key_press": -1, "trial_type": "single-stim", "trial_index": 78, "time_elapsed": 389545, "internal_node_id": "0.0-60.0-0.0"}}, {"uniqueid": "MTK0813:3X73LLYYQ2LIC0JF8C8NDZFZWZXHNA", "current_trial": 79, "dateTime": 1512759607996, "trialdata": {"rt": -1, "stimulus": "<p id=\"stim\">9</p>", "key_press": -1, "trial_type": "single-stim", "trial_index": 79, "time_elapsed": 390558, "internal_node_id": "0.0-60.0-1.0"}}, {"uniqueid": "MTK0813:3X73LLYYQ2LIC0JF8C8NDZFZWZXHNA", "current_trial": 80, "dateTime": 1512759609001, "trialdata": {"rt": -1, "stimulus": "<p id=\"stim\">8</p>", "key_press": -1, "trial_type": "single-stim", "trial_index": 80, "time_elapsed": 391563, "internal_node_id": "0.0-60.0-2.0"}}, {"uniqueid": "MTK0813:3X73LLYYQ2LIC0JF8C8NDZFZWZXHNA", "current_trial": 81, "dateTime": 1512759610003, "trialdata": {"rt": -1, "stimulus": "<p id=\"stim\">7</p>", "key_press": -1, "trial_type": "single-stim", "trial_index": 81, "time_elapsed": 392565, "internal_node_id": "0.0-60.0-3.0"}}, {"uniqueid": "MTK0813:3X73LLYYQ2LIC0JF8C8NDZFZWZXHNA", "current_trial": 82, "dateTime": 1512759611004, "trialdata": {"rt": -1, "stimulus": "<p id=\"stim\">6</p>", "key_press": -1, "trial_type": "single-stim", "trial_index": 82, "time_elapsed": 393566, "internal_node_id": "0.0-60.0-4.0"}}, {"uniqueid": "MTK0813:3X73LLYYQ2LIC0JF8C8NDZFZWZXHNA", "current_trial": 83, "dateTime": 1512759612005, "trialdata": {"rt": -1, "stimulus": "<p id=\"stim\">5</p>", "key_press": -1, "trial_type": "single-stim", "trial_index": 83, "time_elapsed": 394567, "internal_node_id": "0.0-60.0-5.0"}}, {"uniqueid": "MTK0813:3X73LLYYQ2LIC0JF8C8NDZFZWZXHNA", "current_trial": 84, "dateTime": 1512759613007, "trialdata": {"rt": -1, "stimulus": "<p id=\"stim\">4</p>", "key_press": -1, "trial_type": "single-stim", "trial_index": 84, "time_elapsed": 395569, "internal_node_id": "0.0-60.0-6.0"}}, {"uniqueid": "MTK0813:3X73LLYYQ2LIC0JF8C8NDZFZWZXHNA", "current_trial": 85, "dateTime": 1512759614013, "trialdata": {"rt": -1, "stimulus": "<p id=\"stim\">3</p>", "key_press": -1, "trial_type": "single-stim", "trial_index": 85, "time_elapsed": 396575, "internal_node_id": "0.0-60.0-7.0"}}, {"uniqueid": "MTK0813:3X73LLYYQ2LIC0JF8C8NDZFZWZXHNA", "current_trial": 86, "dateTime": 1512759615015, "trialdata": {"rt": 536, "stimulus": "<p id=\"stim\">2</p>", "key_press": 18, "trial_type": "single-stim", "trial_index": 86, "time_elapsed": 397577, "internal_node_id": "0.0-60.0-8.0"}}, {"uniqueid": "MTK0813:3X73LLYYQ2LIC0JF8C8NDZFZWZXHNA", "current_trial": 87, "dateTime": 1512759616016, "trialdata": {"rt": -1, "stimulus": "<p id=\"stim\">1</p>", "key_press": -1, "trial_type": "single-stim", "trial_index": 87, "time_elapsed": 398578, "internal_node_id": "0.0-60.0-9.0"}}, {"uniqueid": "MTK0813:3X73LLYYQ2LIC0JF8C8NDZFZWZXHNA", "current_trial": 88, "dateTime": 1512759617518, "trialdata": {"rt": -1, "stimulus": "<p id=\"stim\">+</p>", "key_press": -1, "type": "FIXATION", "trial_type": "single-stim", "trial_index": 88, "time_elapsed": 400080, "internal_node_id": "0.0-61.0-0.0"}}, {"uniqueid": "MTK0813:3X73LLYYQ2LIC0JF8C8NDZFZWZXHNA", "current_trial": 89, "dateTime": 1512759618320, "trialdata": {"rt": -1, "stimulus": "<p id=\"stim\">DRIVER</p>", "key_press": -1, "type": "PRES_VIS", "word": "driver", "wordID": 498, "conditions": [24, 800, "v", 12000], "trial": 2, "serialpos": 0, "trial_type": "single-stim", "trial_index": 89, "time_elapsed": 400881, "internal_node_id": "0.0-62.0"}}, {"uniqueid": "MTK0813:3X73LLYYQ2LIC0JF8C8NDZFZWZXHNA", "current_trial": 90, "dateTime": 1512759620292, "trialdata": {"rt": -1, "stimulus": "<p id=\"stim\">TEACHER</p>", "key_press": -1, "type": "PRES_VIS", "word": "teacher", "wordID": 1439, "conditions": [24, 800, "v", 12000], "trial": 2, "serialpos": 1, "trial_type": "single-stim", "trial_index": 90, "time_elapsed": 402854, "internal_node_id": "0.0-63.0"}}, {"uniqueid": "MTK0813:3X73LLYYQ2LIC0JF8C8NDZFZWZXHNA", "current_trial": 91, "dateTime": 1512759622152, "trialdata": {"rt": 516, "stimulus": "<p id=\"stim\">FRAGRANCE</p>", "key_press": 18, "type": "PRES_VIS", "word": "fragrance", "wordID": 598, "conditions": [24, 800, "v", 12000], "trial": 2, "serialpos": 2, "trial_type": "single-stim", "trial_index": 91, "time_elapsed": 404713, "internal_node_id": "0.0-64.0"}}, {"uniqueid": "MTK0813:3X73LLYYQ2LIC0JF8C8NDZFZWZXHNA", "current_trial": 92, "dateTime": 1512759624095, "trialdata": {"rt": -1, "stimulus": "<p id=\"stim\">WARDROBE</p>", "key_press": -1, "type": "PRES_VIS", "word": "wardrobe", "wordID": 1586, "conditions": [24, 800, "v", 12000], "trial": 2, "serialpos": 3, "trial_type": "single-stim", "trial_index": 92, "time_elapsed": 406657, "internal_node_id": "0.0-65.0"}}, {"uniqueid": "MTK0813:3X73LLYYQ2LIC0JF8C8NDZFZWZXHNA", "current_trial": 93, "dateTime": 1512759625697, "trialdata": {"rt": 699, "stimulus": "<p id=\"stim\">HAWK</p>", "key_press": 18, "type": "PRES_VIS", "word": "hawk", "wordID": 691, "conditions": [24, 800, "v", 12000], "trial": 2, "serialpos": 4, "trial_type": "single-stim", "trial_index": 93, "time_elapsed": 408258, "internal_node_id": "0.0-66.0"}}, {"uniqueid": "MTK0813:3X73LLYYQ2LIC0JF8C8NDZFZWZXHNA", "current_trial": 94, "dateTime": 1512759627385, "trialdata": {"rt": -1, "stimulus": "<p id=\"stim\">TRUCK</p>", "key_press": -1, "type": "PRES_VIS", "word": "truck", "wordID": 1511, "conditions": [24, 800, "v", 12000], "trial": 2, "serialpos": 5, "trial_type": "single-stim", "trial_index": 94, "time_elapsed": 409947, "internal_node_id": "0.0-67.0"}}, {"uniqueid": "MTK0813:3X73LLYYQ2LIC0JF8C8NDZFZWZXHNA", "current_trial": 95, "dateTime": 1512759629029, "trialdata": {"rt": -1, "stimulus": "<p id=\"stim\">SWORD</p>", "key_press": -1, "type": "PRES_VIS", "word": "sword", "wordID": 1422, "conditions": [24, 800, "v", 12000], "trial": 2, "serialpos": 6, "trial_type": "single-stim", "trial_index": 95, "time_elapsed": 411591, "internal_node_id": "0.0-68.0"}}, {"uniqueid": "MTK0813:3X73LLYYQ2LIC0JF8C8NDZFZWZXHNA", "current_trial": 96, "dateTime": 1512759630646, "trialdata": {"rt": -1, "stimulus": "<p id=\"stim\">SCULPTURE</p>", "key_press": -1, "type": "PRES_VIS", "word": "sculpture", "wordID": 1257, "conditions": [24, 800, "v", 12000], "trial": 2, "serialpos": 7, "trial_type": "single-stim", "trial_index": 96, "time_elapsed": 413208, "internal_node_id": "0.0-69.0"}}, {"uniqueid": "MTK0813:3X73LLYYQ2LIC0JF8C8NDZFZWZXHNA", "current_trial": 97, "dateTime": 1512759632360, "trialdata": {"rt": -1, "stimulus": "<p id=\"stim\">WASP</p>", "key_press": -1, "type": "PRES_VIS", "word": "wasp", "wordID": 1592, "conditions": [24, 800, "v", 12000], "trial": 2, "serialpos": 8, "trial_type": "single-stim", "trial_index": 97, "time_elapsed": 414922, "internal_node_id": "0.0-70.0"}}, {"uniqueid": "MTK0813:3X73LLYYQ2LIC0JF8C8NDZFZWZXHNA", "current_trial": 98, "dateTime": 1512759633980, "trialdata": {"rt": 623, "stimulus": "<p id=\"stim\">LASER</p>", "key_press": 18, "type": "PRES_VIS", "word": "laser", "wordID": 800, "conditions": [24, 800, "v", 12000], "trial": 2, "serialpos": 9, "trial_type": "single-stim", "trial_index": 98, "time_elapsed": 416542, "internal_node_id": "0.0-71.0"}}, {"uniqueid": "MTK0813:3X73LLYYQ2LIC0JF8C8NDZFZWZXHNA", "current_trial": 99, "dateTime": 1512759635659, "trialdata": {"rt": -1, "stimulus": "<p id=\"stim\">BANKER</p>", "key_press": -1, "type": "PRES_VIS", "word": "banker", "wordID": 83, "conditions": [24, 800, "v", 12000], "trial": 2, "serialpos": 10, "trial_type": "single-stim", "trial_index": 99, "time_elapsed": 418221, "internal_node_id": "0.0-72.0"}}, {"uniqueid": "MTK0813:3X73LLYYQ2LIC0JF8C8NDZFZWZXHNA", "current_trial": 100, "dateTime": 1512759637290, "trialdata": {"rt": -1, "stimulus": "<p id=\"stim\">BANK</p>", "key_press": -1, "type": "PRES_VIS", "word": "bank", "wordID": 82, "conditions": [24, 800, "v", 12000], "trial": 2, "serialpos": 11, "trial_type": "single-stim", "trial_index": 100, "time_elapsed": 419852, "internal_node_id": "0.0-73.0"}}, {"uniqueid": "MTK0813:3X73LLYYQ2LIC0JF8C8NDZFZWZXHNA", "current_trial": 101, "dateTime": 1512759638911, "trialdata": {"rt": -1, "stimulus": "<p id=\"stim\">LIPSTICK</p>", "key_press": -1, "type": "PRES_VIS", "word": "lipstick", "wordID": 828, "conditions": [24, 800, "v", 12000], "trial": 2, "serialpos": 12, "trial_type": "single-stim", "trial_index": 101, "time_elapsed": 421472, "internal_node_id": "0.0-74.0"}}, {"uniqueid": "MTK0813:3X73LLYYQ2LIC0JF8C8NDZFZWZXHNA", "current_trial": 102, "dateTime": 1512759640851, "trialdata": {"rt": -1, "stimulus": "<p id=\"stim\">EAGLE</p>", "key_press": -1, "type": "PRES_VIS", "word": "eagle", "wordID": 511, "conditions": [24, 800, "v", 12000], "trial": 2, "serialpos": 13, "trial_type": "single-stim", "trial_index": 102, "time_elapsed": 423413, "internal_node_id": "0.0-75.0"}}, {"uniqueid": "MTK0813:3X73LLYYQ2LIC0JF8C8NDZFZWZXHNA", "current_trial": 103, "dateTime": 1512759642664, "trialdata": {"rt": -1, "stimulus": "<p id=\"stim\">MAMMAL</p>", "key_press": -1, "type": "PRES_VIS", "word": "mammal", "wordID": 860, "conditions": [24, 800, "v", 12000], "trial": 2, "serialpos": 14, "trial_type": "single-stim", "trial_index": 103, "time_elapsed": 425226, "internal_node_id": "0.0-76.0"}}, {"uniqueid": "MTK0813:3X73LLYYQ2LIC0JF8C8NDZFZWZXHNA", "current_trial": 104, "dateTime": 1512759644596, "trialdata": {"rt": -1, "stimulus": "<p id=\"stim\">CANYON</p>", "key_press": -1, "type": "PRES_VIS", "word": "canyon", "wordID": 234, "conditions": [24, 800, "v", 12000], "trial": 2, "serialpos": 15, "trial_type": "single-stim", "trial_index": 104, "time_elapsed": 427157, "internal_node_id": "0.0-77.0"}}, {"uniqueid": "MTK0813:3X73LLYYQ2LIC0JF8C8NDZFZWZXHNA", "current_trial": 105, "dateTime": 1512759646588, "trialdata": {"rt": 513, "stimulus": "<p id=\"stim\">PUDDLE</p>", "key_press": 18, "type": "PRES_VIS", "word": "puddle", "wordID": 1139, "conditions": [24, 800, "v", 12000], "trial": 2, "serialpos": 16, "trial_type": "single-stim", "trial_index": 105, "time_elapsed": 429149, "internal_node_id": "0.0-78.0"}}, {"uniqueid": "MTK0813:3X73LLYYQ2LIC0JF8C8NDZFZWZXHNA", "current_trial": 106, "dateTime": 1512759648403, "trialdata": {"rt": -1, "stimulus": "<p id=\"stim\">NAPKIN</p>", "key_press": -1, "type": "PRES_VIS", "word": "napkin", "wordID": 936, "conditions": [24, 800, "v", 12000], "trial": 2, "serialpos": 17, "trial_type": "single-stim", "trial_index": 106, "time_elapsed": 430964, "internal_node_id": "0.0-79.0"}}, {"uniqueid": "MTK0813:3X73LLYYQ2LIC0JF8C8NDZFZWZXHNA", "current_trial": 107, "dateTime": 1512759650140, "trialdata": {"rt": -1, "stimulus": "<p id=\"stim\">PRIMATE</p>", "key_press": -1, "type": "PRES_VIS", "word": "primate", "wordID": 1122, "conditions": [24, 800, "v", 12000], "trial": 2, "serialpos": 18, "trial_type": "single-stim", "trial_index": 107, "time_elapsed": 432702, "internal_node_id": "0.0-80.0"}}, {"uniqueid": "MTK0813:3X73LLYYQ2LIC0JF8C8NDZFZWZXHNA", "current_trial": 108, "dateTime": 1512759652094, "trialdata": {"rt": -1, "stimulus": "<p id=\"stim\">MAILMAN</p>", "key_press": -1, "type": "PRES_VIS", "word": "mailman", "wordID": 857, "conditions": [24, 800, "v", 12000], "trial": 2, "serialpos": 19, "trial_type": "single-stim", "trial_index": 108, "time_elapsed": 434656, "internal_node_id": "0.0-81.0"}}, {"uniqueid": "MTK0813:3X73LLYYQ2LIC0JF8C8NDZFZWZXHNA", "current_trial": 109, "dateTime": 1512759653729, "trialdata": {"rt": 462, "stimulus": "<p id=\"stim\">COCOON</p>", "key_press": 18, "type": "PRES_VIS", "word": "cocoon", "wordID": 338, "conditions": [24, 800, "v", 12000], "trial": 2, "serialpos": 20, "trial_type": "single-stim", "trial_index": 109, "time_elapsed": 436291, "internal_node_id": "0.0-82.0"}}, {"uniqueid": "MTK0813:3X73LLYYQ2LIC0JF8C8NDZFZWZXHNA", "current_trial": 110, "dateTime": 1512759655704, "trialdata": {"rt": -1, "stimulus": "<p id=\"stim\">LOVER</p>", "key_press": -1, "type": "PRES_VIS", "word": "lover", "wordID": 845, "conditions": [24, 800, "v", 12000], "trial": 2, "serialpos": 21, "trial_type": "single-stim", "trial_index": 110, "time_elapsed": 438266, "internal_node_id": "0.0-83.0"}}, {"uniqueid": "MTK0813:3X73LLYYQ2LIC0JF8C8NDZFZWZXHNA", "current_trial": 111, "dateTime": 1512759657634, "trialdata": {"rt": -1, "stimulus": "<p id=\"stim\">BOYFRIEND</p>", "key_press": -1, "type": "PRES_VIS", "word": "boyfriend", "wordID": 161, "conditions": [24, 800, "v", 12000], "trial": 2, "serialpos": 22, "trial_type": "single-stim", "trial_index": 111, "time_elapsed": 440196, "internal_node_id": "0.0-84.0"}}, {"uniqueid": "MTK0813:3X73LLYYQ2LIC0JF8C8NDZFZWZXHNA", "current_trial": 112, "dateTime": 1512759659511, "trialdata": {"rt": -1, "stimulus": "<p id=\"stim\">MAILBOX</p>", "key_press": -1, "type": "PRES_VIS", "word": "mailbox", "wordID": 856, "conditions": [24, 800, "v", 12000], "trial": 2, "serialpos": 23, "trial_type": "single-stim", "trial_index": 112, "time_elapsed": 442073, "internal_node_id": "0.0-85.0"}}, {"uniqueid": "MTK0813:3X73LLYYQ2LIC0JF8C8NDZFZWZXHNA", "current_trial": 113, "dateTime": 1512759661873, "trialdata": {"rt": -1, "stimulus": "", "key_press": -1, "type": "PRE_RECALL_DELAY", "trial_type": "single-stim", "trial_index": 113, "time_elapsed": 444435, "internal_node_id": "0.0-86.0-0.0"}}, {"uniqueid": "MTK0813:3X73LLYYQ2LIC0JF8C8NDZFZWZXHNA", "current_trial": 114, "dateTime": 1512759662374, "trialdata": {"rt": -1000, "stimulus": "/static/audio/400Hz.wav", "key_press": -1, "type": "PRE_RECALL_ALERT", "trial_type": "single-audio", "trial_index": 114, "time_elapsed": 444936, "internal_node_id": "0.0-87.0"}}, {"uniqueid": "MTK0813:3X73LLYYQ2LIC0JF8C8NDZFZWZXHNA", "current_trial": 115, "dateTime": 1512759722386, "trialdata": {"rt": [18239, 19608, 20647, 23167, 24695], "recwords": ["driver", "fragrance", "hawk", "cocoon", "puddle"], "type": "FREE_RECALL", "conditions": [24, 800, "v", 12000], "trial": 2, "trial_type": "free-recall", "trial_index": 115, "time_elapsed": 504944, "internal_node_id": "0.0-88.0-0.0"}}, {"uniqueid": "MTK0813:3X73LLYYQ2LIC0JF8C8NDZFZWZXHNA", "current_trial": 116, "dateTime": 1512759736944, "trialdata": {"rt": 12557, "key_press": 32, "type": "INSTRUCTIONS", "trial_type": "text", "trial_index": 116, "time_elapsed": 519506, "internal_node_id": "0.0-89.0"}}, {"uniqueid": "MTK0813:3X73LLYYQ2LIC0JF8C8NDZFZWZXHNA", "current_trial": 117, "dateTime": 1512759762950, "trialdata": {"rt": [5952], "responses": ["19"], "num1": [9, 4], "num2": [6, 1], "num3": [4, 6], "type": "DISTRACTOR", "conditions": [24, 800, "v", 24000], "trial": 3, "trial_type": "math-distractor", "trial_index": 117, "time_elapsed": 545512, "internal_node_id": "0.0-90.0"}}, {"uniqueid": "MTK0813:3X73LLYYQ2LIC0JF8C8NDZFZWZXHNA", "current_trial": 118, "dateTime": 1512759765952, "trialdata": {"rt": -1, "stimulus": "<p id=\"stim\">10</p>", "key_press": -1, "trial_type": "single-stim", "trial_index": 118, "time_elapsed": 548514, "internal_node_id": "0.0-91.0-0.0"}}, {"uniqueid": "MTK0813:3X73LLYYQ2LIC0JF8C8NDZFZWZXHNA", "current_trial": 119, "dateTime": 1512759766953, "trialdata": {"rt": -1, "stimulus": "<p id=\"stim\">9</p>", "key_press": -1, "trial_type": "single-stim", "trial_index": 119, "time_elapsed": 549515, "internal_node_id": "0.0-91.0-1.0"}}, {"uniqueid": "MTK0813:3X73LLYYQ2LIC0JF8C8NDZFZWZXHNA", "current_trial": 120, "dateTime": 1512759767956, "trialdata": {"rt": -1, "stimulus": "<p id=\"stim\">8</p>", "key_press": -1, "trial_type": "single-stim", "trial_index": 120, "time_elapsed": 550517, "internal_node_id": "0.0-91.0-2.0"}}, {"uniqueid": "MTK0813:3X73LLYYQ2LIC0JF8C8NDZFZWZXHNA", "current_trial": 121, "dateTime": 1512759768957, "trialdata": {"rt": -1, "stimulus": "<p id=\"stim\">7</p>", "key_press": -1, "trial_type": "single-stim", "trial_index": 121, "time_elapsed": 551519, "internal_node_id": "0.0-91.0-3.0"}}, {"uniqueid": "MTK0813:3X73LLYYQ2LIC0JF8C8NDZFZWZXHNA", "current_trial": 122, "dateTime": 1512759769959, "trialdata": {"rt": -1, "stimulus": "<p id=\"stim\">6</p>", "key_press": -1, "trial_type": "single-stim", "trial_index": 122, "time_elapsed": 552520, "internal_node_id": "0.0-91.0-4.0"}}, {"uniqueid": "MTK0813:3X73LLYYQ2LIC0JF8C8NDZFZWZXHNA", "current_trial": 123, "dateTime": 1512759770960, "trialdata": {"rt": -1, "stimulus": "<p id=\"stim\">5</p>", "key_press": -1, "trial_type": "single-stim", "trial_index": 123, "time_elapsed": 553522, "internal_node_id": "0.0-91.0-5.0"}}, {"uniqueid": "MTK0813:3X73LLYYQ2LIC0JF8C8NDZFZWZXHNA", "current_trial": 124, "dateTime": 1512759771961, "trialdata": {"rt": -1, "stimulus": "<p id=\"stim\">4</p>", "key_press": -1, "trial_type": "single-stim", "trial_index": 124, "time_elapsed": 554523, "internal_node_id": "0.0-91.0-6.0"}}, {"uniqueid": "MTK0813:3X73LLYYQ2LIC0JF8C8NDZFZWZXHNA", "current_trial": 125, "dateTime": 1512759772963, "trialdata": {"rt": -1, "stimulus": "<p id=\"stim\">3</p>", "key_press": -1, "trial_type": "single-stim", "trial_index": 125, "time_elapsed": 555525, "internal_node_id": "0.0-91.0-7.0"}}, {"uniqueid": "MTK0813:3X73LLYYQ2LIC0JF8C8NDZFZWZXHNA", "current_trial": 126, "dateTime": 1512759773964, "trialdata": {"rt": -1, "stimulus": "<p id=\"stim\">2</p>", "key_press": -1, "trial_type": "single-stim", "trial_index": 126, "time_elapsed": 556526, "internal_node_id": "0.0-91.0-8.0"}}, {"uniqueid": "MTK0813:3X73LLYYQ2LIC0JF8C8NDZFZWZXHNA", "current_trial": 127, "dateTime": 1512759774965, "trialdata": {"rt": 969, "stimulus": "<p id=\"stim\">1</p>", "key_press": 18, "trial_type": "single-stim", "trial_index": 127, "time_elapsed": 557527, "internal_node_id": "0.0-91.0-9.0"}}, {"uniqueid": "MTK0813:3X73LLYYQ2LIC0JF8C8NDZFZWZXHNA", "current_trial": 128, "dateTime": 1512759776467, "trialdata": {"rt": -1, "stimulus": "<p id=\"stim\">+</p>", "key_press": -1, "type": "FIXATION", "trial_type": "single-stim", "trial_index": 128, "time_elapsed": 559029, "internal_node_id": "0.0-92.0-0.0"}}, {"uniqueid": "MTK0813:3X73LLYYQ2LIC0JF8C8NDZFZWZXHNA", "current_trial": 129, "dateTime": 1512759777269, "trialdata": {"rt": -1, "stimulus": "<p id=\"stim\">BABY</p>", "key_press": -1, "type": "PRES_VIS", "word": "baby", "wordID": 63, "conditions": [24, 800, "v", 24000], "trial": 3, "serialpos": 0, "trial_type": "single-stim", "trial_index": 129, "time_elapsed": 559830, "internal_node_id": "0.0-93.0"}}, {"uniqueid": "MTK0813:3X73LLYYQ2LIC0JF8C8NDZFZWZXHNA", "current_trial": 130, "dateTime": 1512759779219, "trialdata": {"rt": -1, "stimulus": "<p id=\"stim\">SKIRT</p>", "key_press": -1, "type": "PRES_VIS", "word": "skirt", "wordID": 1318, "conditions": [24, 800, "v", 24000], "trial": 3, "serialpos": 1, "trial_type": "single-stim", "trial_index": 130, "time_elapsed": 561781, "internal_node_id": "0.0-94.0"}}, {"uniqueid": "MTK0813:3X73LLYYQ2LIC0JF8C8NDZFZWZXHNA", "current_trial": 131, "dateTime": 1512759781155, "trialdata": {"rt": -1, "stimulus": "<p id=\"stim\">GLOVE</p>", "key_press": -1, "type": "PRES_VIS", "word": "glove", "wordID": 641, "conditions": [24, 800, "v", 24000], "trial": 3, "serialpos": 2, "trial_type": "single-stim", "trial_index": 131, "time_elapsed": 563717, "internal_node_id": "0.0-95.0"}}, {"uniqueid": "MTK0813:3X73LLYYQ2LIC0JF8C8NDZFZWZXHNA", "current_trial": 132, "dateTime": 1512759782882, "trialdata": {"rt": -1, "stimulus": "<p id=\"stim\">MISTER</p>", "key_press": -1, "type": "PRES_VIS", "word": "mister", "wordID": 900, "conditions": [24, 800, "v", 24000], "trial": 3, "serialpos": 3, "trial_type": "single-stim", "trial_index": 132, "time_elapsed": 565444, "internal_node_id": "0.0-96.0"}}, {"uniqueid": "MTK0813:3X73LLYYQ2LIC0JF8C8NDZFZWZXHNA", "current_trial": 133, "dateTime": 1512759784863, "trialdata": {"rt": -1, "stimulus": "<p id=\"stim\">CREATURE</p>", "key_press": -1, "type": "PRES_VIS", "word": "creature", "wordID": 402, "conditions": [24, 800, "v", 24000], "trial": 3, "serialpos": 4, "trial_type": "single-stim", "trial_index": 133, "time_elapsed": 567425, "internal_node_id": "0.0-97.0"}}, {"uniqueid": "MTK0813:3X73LLYYQ2LIC0JF8C8NDZFZWZXHNA", "current_trial": 134, "dateTime": 1512759786576, "trialdata": {"rt": 268, "stimulus": "<p id=\"stim\">TROMBONE</p>", "key_press": 18, "type": "PRES_VIS", "word": "trombone", "wordID": 1507, "conditions": [24, 800, "v", 24000], "trial": 3, "serialpos": 5, "trial_type": "single-stim", "trial_index": 134, "time_elapsed": 569138, "internal_node_id": "0.0-98.0"}}, {"uniqueid": "MTK0813:3X73LLYYQ2LIC0JF8C8NDZFZWZXHNA", "current_trial": 135, "dateTime": 1512759788262, "trialdata": {"rt": -1, "stimulus": "<p id=\"stim\">BRIEFCASE</p>", "key_press": -1, "type": "PRES_VIS", "word": "briefcase", "wordID": 174, "conditions": [24, 800, "v", 24000], "trial": 3, "serialpos": 6, "trial_type": "single-stim", "trial_index": 135, "time_elapsed": 570824, "internal_node_id": "0.0-99.0"}}, {"uniqueid": "MTK0813:3X73LLYYQ2LIC0JF8C8NDZFZWZXHNA", "current_trial": 136, "dateTime": 1512759790168, "trialdata": {"rt": -1, "stimulus": "<p id=\"stim\">SISTER</p>", "key_press": -1, "type": "PRES_VIS", "word": "sister", "wordID": 1311, "conditions": [24, 800, "v", 24000], "trial": 3, "serialpos": 7, "trial_type": "single-stim", "trial_index": 136, "time_elapsed": 572729, "internal_node_id": "0.0-100.0"}}, {"uniqueid": "MTK0813:3X73LLYYQ2LIC0JF8C8NDZFZWZXHNA", "current_trial": 137, "dateTime": 1512759791863, "trialdata": {"rt": -1, "stimulus": "<p id=\"stim\">WIFE</p>", "key_press": -1, "type": "PRES_VIS", "word": "wife", "wordID": 1608, "conditions": [24, 800, "v", 24000], "trial": 3, "serialpos": 8, "trial_type": "single-stim", "trial_index": 137, "time_elapsed": 574425, "internal_node_id": "0.0-101.0"}}, {"uniqueid": "MTK0813:3X73LLYYQ2LIC0JF8C8NDZFZWZXHNA", "current_trial": 138, "dateTime": 1512759793697, "trialdata": {"rt": -1, "stimulus": "<p id=\"stim\">THIEF</p>", "key_press": -1, "type": "PRES_VIS", "word": "thief", "wordID": 1455, "conditions": [24, 800, "v", 24000], "trial": 3, "serialpos": 9, "trial_type": "single-stim", "trial_index": 138, "time_elapsed": 576259, "internal_node_id": "0.0-102.0"}}, {"uniqueid": "MTK0813:3X73LLYYQ2LIC0JF8C8NDZFZWZXHNA", "current_trial": 139, "dateTime": 1512759795416, "trialdata": {"rt": -1, "stimulus": "<p id=\"stim\">HANDBAG</p>", "key_press": -1, "type": "PRES_VIS", "word": "handbag", "wordID": 683, "conditions": [24, 800, "v", 24000], "trial": 3, "serialpos": 10, "trial_type": "single-stim", "trial_index": 139, "time_elapsed": 577978, "internal_node_id": "0.0-103.0"}}, {"uniqueid": "MTK0813:3X73LLYYQ2LIC0JF8C8NDZFZWZXHNA", "current_trial": 140, "dateTime": 1512759797275, "trialdata": {"rt": -1, "stimulus": "<p id=\"stim\">SPOON</p>", "key_press": -1, "type": "PRES_VIS", "word": "spoon", "wordID": 1356, "conditions": [24, 800, "v", 24000], "trial": 3, "serialpos": 11, "trial_type": "single-stim", "trial_index": 140, "time_elapsed": 579837, "internal_node_id": "0.0-104.0"}}, {"uniqueid": "MTK0813:3X73LLYYQ2LIC0JF8C8NDZFZWZXHNA", "current_trial": 141, "dateTime": 1512759798882, "trialdata": {"rt": -1, "stimulus": "<p id=\"stim\">EXPERT</p>", "key_press": -1, "type": "PRES_VIS", "word": "expert", "wordID": 542, "conditions": [24, 800, "v", 24000], "trial": 3, "serialpos": 12, "trial_type": "single-stim", "trial_index": 141, "time_elapsed": 581444, "internal_node_id": "0.0-105.0"}}, {"uniqueid": "MTK0813:3X73LLYYQ2LIC0JF8C8NDZFZWZXHNA", "current_trial": 142, "dateTime": 1512759800533, "trialdata": {"rt": -1, "stimulus": "<p id=\"stim\">WITNESS</p>", "key_press": -1, "type": "PRES_VIS", "word": "witness", "wordID": 1617, "conditions": [24, 800, "v", 24000], "trial": 3, "serialpos": 13, "trial_type": "single-stim", "trial_index": 142, "time_elapsed": 583095, "internal_node_id": "0.0-106.0"}}, {"uniqueid": "MTK0813:3X73LLYYQ2LIC0JF8C8NDZFZWZXHNA", "current_trial": 143, "dateTime": 1512759802348, "trialdata": {"rt": -1, "stimulus": "<p id=\"stim\">PLUTO</p>", "key_press": -1, "type": "PRES_VIS", "word": "pluto", "wordID": 1091, "conditions": [24, 800, "v", 24000], "trial": 3, "serialpos": 14, "trial_type": "single-stim", "trial_index": 143, "time_elapsed": 584910, "internal_node_id": "0.0-107.0"}}, {"uniqueid": "MTK0813:3X73LLYYQ2LIC0JF8C8NDZFZWZXHNA", "current_trial": 144, "dateTime": 1512759803998, "trialdata": {"rt": -1, "stimulus": "<p id=\"stim\">DRESSER</p>", "key_press": -1, "type": "PRES_VIS", "word": "dresser", "wordID": 495, "conditions": [24, 800, "v", 24000], "trial": 3, "serialpos": 15, "trial_type": "single-stim", "trial_index": 144, "time_elapsed": 586560, "internal_node_id": "0.0-108.0"}}, {"uniqueid": "MTK0813:3X73LLYYQ2LIC0JF8C8NDZFZWZXHNA", "current_trial": 145, "dateTime": 1512759805764, "trialdata": {"rt": -1, "stimulus": "<p id=\"stim\">PECAN</p>", "key_press": -1, "type": "PRES_VIS", "word": "pecan", "wordID": 1035, "conditions": [24, 800, "v", 24000], "trial": 3, "serialpos": 16, "trial_type": "single-stim", "trial_index": 145, "time_elapsed": 588325, "internal_node_id": "0.0-109.0"}}, {"uniqueid": "MTK0813:3X73LLYYQ2LIC0JF8C8NDZFZWZXHNA", "current_trial": 146, "dateTime": 1512759807648, "trialdata": {"rt": -1, "stimulus": "<p id=\"stim\">CITRUS</p>", "key_press": -1, "type": "PRES_VIS", "word": "citrus", "wordID": 312, "conditions": [24, 800, "v", 24000], "trial": 3, "serialpos": 17, "trial_type": "single-stim", "trial_index": 146, "time_elapsed": 590210, "internal_node_id": "0.0-110.0"}}, {"uniqueid": "MTK0813:3X73LLYYQ2LIC0JF8C8NDZFZWZXHNA", "current_trial": 147, "dateTime": 1512759809575, "trialdata": {"rt": -1, "stimulus": "<p id=\"stim\">GARLIC</p>", "key_press": -1, "type": "PRES_VIS", "word": "garlic", "wordID": 623, "conditions": [24, 800, "v", 24000], "trial": 3, "serialpos": 18, "trial_type": "single-stim", "trial_index": 147, "time_elapsed": 592137, "internal_node_id": "0.0-111.0"}}, {"uniqueid": "MTK0813:3X73LLYYQ2LIC0JF8C8NDZFZWZXHNA", "current_trial": 148, "dateTime": 1512759811260, "trialdata": {"rt": -1, "stimulus": "<p id=\"stim\">CUPBOARD</p>", "key_press": -1, "type": "PRES_VIS", "word": "cupboard", "wordID": 424, "conditions": [24, 800, "v", 24000], "trial": 3, "serialpos": 19, "trial_type": "single-stim", "trial_index": 148, "time_elapsed": 593822, "internal_node_id": "0.0-112.0"}}, {"uniqueid": "MTK0813:3X73LLYYQ2LIC0JF8C8NDZFZWZXHNA", "current_trial": 149, "dateTime": 1512759813102, "trialdata": {"rt": -1, "stimulus": "<p id=\"stim\">BASEMENT</p>", "key_press": -1, "type": "PRES_VIS", "word": "basement", "wordID": 93, "conditions": [24, 800, "v", 24000], "trial": 3, "serialpos": 20, "trial_type": "single-stim", "trial_index": 149, "time_elapsed": 595664, "internal_node_id": "0.0-113.0"}}, {"uniqueid": "MTK0813:3X73LLYYQ2LIC0JF8C8NDZFZWZXHNA", "current_trial": 150, "dateTime": 1512759814706, "trialdata": {"rt": -1, "stimulus": "<p id=\"stim\">BUTCHER</p>", "key_press": -1, "type": "PRES_VIS", "word": "butcher", "wordID": 202, "conditions": [24, 800, "v", 24000], "trial": 3, "serialpos": 21, "trial_type": "single-stim", "trial_index": 150, "time_elapsed": 597268, "internal_node_id": "0.0-114.0"}}, {"uniqueid": "MTK0813:3X73LLYYQ2LIC0JF8C8NDZFZWZXHNA", "current_trial": 151, "dateTime": 1512759816336, "trialdata": {"rt": -1, "stimulus": "<p id=\"stim\">GRAVEL</p>", "key_press": -1, "type": "PRES_VIS", "word": "gravel", "wordID": 658, "conditions": [24, 800, "v", 24000], "trial": 3, "serialpos": 22, "trial_type": "single-stim", "trial_index": 151, "time_elapsed": 598898, "internal_node_id": "0.0-115.0"}}, {"uniqueid": "MTK0813:3X73LLYYQ2LIC0JF8C8NDZFZWZXHNA", "current_trial": 152, "dateTime": 1512759817986, "trialdata": {"rt": -1, "stimulus": "<p id=\"stim\">DAUGHTER</p>", "key_press": -1, "type": "PRES_VIS", "word": "daughter", "wordID": 441, "conditions": [24, 800, "v", 24000], "trial": 3, "serialpos": 23, "trial_type": "single-stim", "trial_index": 152, "time_elapsed": 600548, "internal_node_id": "0.0-116.0"}}, {"uniqueid": "MTK0813:3X73LLYYQ2LIC0JF8C8NDZFZWZXHNA", "current_trial": 153, "dateTime": 1512759820224, "trialdata": {"rt": -1, "stimulus": "", "key_press": -1, "type": "PRE_RECALL_DELAY", "trial_type": "single-stim", "trial_index": 153, "time_elapsed": 602786, "internal_node_id": "0.0-117.0-0.0"}}, {"uniqueid": "MTK0813:3X73LLYYQ2LIC0JF8C8NDZFZWZXHNA", "current_trial": 154, "dateTime": 1512759820726, "trialdata": {"rt": -1000, "stimulus": "/static/audio/400Hz.wav", "key_press": -1, "type": "PRE_RECALL_ALERT", "trial_type": "single-audio", "trial_index": 154, "time_elapsed": 603288, "internal_node_id": "0.0-118.0"}}, {"uniqueid": "MTK0813:3X73LLYYQ2LIC0JF8C8NDZFZWZXHNA", "current_trial": 155, "dateTime": 1512759880739, "trialdata": {"rt": [3154, 5195, 7675, 9107], "recwords": ["shirt", "trombone", "handbag", "cupboard"], "type": "FREE_RECALL", "conditions": [24, 800, "v", 24000], "trial": 3, "trial_type": "free-recall", "trial_index": 155, "time_elapsed": 663293, "internal_node_id": "0.0-119.0-0.0"}}, {"uniqueid": "MTK0813:3X73LLYYQ2LIC0JF8C8NDZFZWZXHNA", "current_trial": 156, "dateTime": 1512759884733, "trialdata": {"rt": 1992, "key_press": 32, "type": "INSTRUCTIONS", "trial_type": "text", "trial_index": 156, "time_elapsed": 667295, "internal_node_id": "0.0-120.0"}}, {"uniqueid": "MTK0813:3X73LLYYQ2LIC0JF8C8NDZFZWZXHNA", "current_trial": 157, "dateTime": 1512759910737, "trialdata": {"rt": [2800, 4299, 8451, 11374], "responses": ["14", "15", "13", "93"], "num1": [1, 9, 5, 3, 1], "num2": [8, 4, 4, 2, 4], "num3": [5, 2, 4, 4, 3], "type": "DISTRACTOR", "conditions": [24, 1600, "v", 24000], "trial": 4, "trial_type": "math-distractor", "trial_index": 157, "time_elapsed": 693299, "internal_node_id": "0.0-121.0"}}, {"uniqueid": "MTK0813:3X73LLYYQ2LIC0JF8C8NDZFZWZXHNA", "current_trial": 158, "dateTime": 1512759913740, "trialdata": {"rt": -1, "stimulus": "<p id=\"stim\">10</p>", "key_press": -1, "trial_type": "single-stim", "trial_index": 158, "time_elapsed": 696302, "internal_node_id": "0.0-122.0-0.0"}}, {"uniqueid": "MTK0813:3X73LLYYQ2LIC0JF8C8NDZFZWZXHNA", "current_trial": 159, "dateTime": 1512759914742, "trialdata": {"rt": -1, "stimulus": "<p id=\"stim\">9</p>", "key_press": -1, "trial_type": "single-stim", "trial_index": 159, "time_elapsed": 697304, "internal_node_id": "0.0-122.0-1.0"}}, {"uniqueid": "MTK0813:3X73LLYYQ2LIC0JF8C8NDZFZWZXHNA", "current_trial": 160, "dateTime": 1512759915744, "trialdata": {"rt": -1, "stimulus": "<p id=\"stim\">8</p>", "key_press": -1, "trial_type": "single-stim", "trial_index": 160, "time_elapsed": 698306, "internal_node_id": "0.0-122.0-2.0"}}, {"uniqueid": "MTK0813:3X73LLYYQ2LIC0JF8C8NDZFZWZXHNA", "current_trial": 161, "dateTime": 1512759916745, "trialdata": {"rt": -1, "stimulus": "<p id=\"stim\">7</p>", "key_press": -1, "trial_type": "single-stim", "trial_index": 161, "time_elapsed": 699307, "internal_node_id": "0.0-122.0-3.0"}}, {"uniqueid": "MTK0813:3X73LLYYQ2LIC0JF8C8NDZFZWZXHNA", "current_trial": 162, "dateTime": 1512759917747, "trialdata": {"rt": -1, "stimulus": "<p id=\"stim\">6</p>", "key_press": -1, "trial_type": "single-stim", "trial_index": 162, "time_elapsed": 700309, "internal_node_id": "0.0-122.0-4.0"}}, {"uniqueid": "MTK0813:3X73LLYYQ2LIC0JF8C8NDZFZWZXHNA", "current_trial": 163, "dateTime": 1512759918749, "trialdata": {"rt": 457, "stimulus": "<p id=\"stim\">5</p>", "key_press": 18, "trial_type": "single-stim", "trial_index": 163, "time_elapsed": 701311, "internal_node_id": "0.0-122.0-5.0"}}, {"uniqueid": "MTK0813:3X73LLYYQ2LIC0JF8C8NDZFZWZXHNA", "current_trial": 164, "dateTime": 1512759919751, "trialdata": {"rt": -1, "stimulus": "<p id=\"stim\">4</p>", "key_press": -1, "trial_type": "single-stim", "trial_index": 164, "time_elapsed": 702313, "internal_node_id": "0.0-122.0-6.0"}}, {"uniqueid": "MTK0813:3X73LLYYQ2LIC0JF8C8NDZFZWZXHNA", "current_trial": 165, "dateTime": 1512759920753, "trialdata": {"rt": -1, "stimulus": "<p id=\"stim\">3</p>", "key_press": -1, "trial_type": "single-stim", "trial_index": 165, "time_elapsed": 703315, "internal_node_id": "0.0-122.0-7.0"}}, {"uniqueid": "MTK0813:3X73LLYYQ2LIC0JF8C8NDZFZWZXHNA", "current_trial": 166, "dateTime": 1512759921754, "trialdata": {"rt": -1, "stimulus": "<p id=\"stim\">2</p>", "key_press": -1, "trial_type": "single-stim", "trial_index": 166, "time_elapsed": 704316, "internal_node_id": "0.0-122.0-8.0"}}, {"uniqueid": "MTK0813:3X73LLYYQ2LIC0JF8C8NDZFZWZXHNA", "current_trial": 167, "dateTime": 1512759922756, "trialdata": {"rt": -1, "stimulus": "<p id=\"stim\">1</p>", "key_press": -1, "trial_type": "single-stim", "trial_index": 167, "time_elapsed": 705318, "internal_node_id": "0.0-122.0-9.0"}}, {"uniqueid": "MTK0813:3X73LLYYQ2LIC0JF8C8NDZFZWZXHNA", "current_trial": 168, "dateTime": 1512759924257, "trialdata": {"rt": -1, "stimulus": "<p id=\"stim\">+</p>", "key_press": -1, "type": "FIXATION", "trial_type": "single-stim", "trial_index": 168, "time_elapsed": 706819, "internal_node_id": "0.0-123.0-0.0"}}, {"uniqueid": "MTK0813:3X73LLYYQ2LIC0JF8C8NDZFZWZXHNA", "current_trial": 169, "dateTime": 1512759925859, "trialdata": {"rt": -1, "stimulus": "<p id=\"stim\">TROUT</p>", "key_press": -1, "type": "PRES_VIS", "word": "trout", "wordID": 1510, "conditions": [24, 1600, "v", 24000], "trial": 4, "serialpos": 0, "trial_type": "single-stim", "trial_index": 169, "time_elapsed": 708421, "internal_node_id": "0.0-124.0"}}, {"uniqueid": "MTK0813:3X73LLYYQ2LIC0JF8C8NDZFZWZXHNA", "current_trial": 170, "dateTime": 1512759928331, "trialdata": {"rt": -1, "stimulus": "<p id=\"stim\">SALMON</p>", "key_press": -1, "type": "PRES_VIS", "word": "salmon", "wordID": 1226, "conditions": [24, 1600, "v", 24000], "trial": 4, "serialpos": 1, "trial_type": "single-stim", "trial_index": 170, "time_elapsed": 710892, "internal_node_id": "0.0-125.0"}}, {"uniqueid": "MTK0813:3X73LLYYQ2LIC0JF8C8NDZFZWZXHNA", "current_trial": 171, "dateTime": 1512759930907, "trialdata": {"rt": -1, "stimulus": "<p id=\"stim\">COOKBOOK</p>", "key_press": -1, "type": "PRES_VIS", "word": "cookbook", "wordID": 372, "conditions": [24, 1600, "v", 24000], "trial": 4, "serialpos": 2, "trial_type": "single-stim", "trial_index": 171, "time_elapsed": 713469, "internal_node_id": "0.0-126.0"}}, {"uniqueid": "MTK0813:3X73LLYYQ2LIC0JF8C8NDZFZWZXHNA", "current_trial": 172, "dateTime": 1512759933524, "trialdata": {"rt": -1, "stimulus": "<p id=\"stim\">QUEEN</p>", "key_press": -1, "type": "PRES_VIS", "word": "queen", "wordID": 1148, "conditions": [24, 1600, "v", 24000], "trial": 4, "serialpos": 3, "trial_type": "single-stim", "trial_index": 172, "time_elapsed": 716086, "internal_node_id": "0.0-127.0"}}, {"uniqueid": "MTK0813:3X73LLYYQ2LIC0JF8C8NDZFZWZXHNA", "current_trial": 173, "dateTime": 1512759936115, "trialdata": {"rt": 362, "stimulus": "<p id=\"stim\">AIRPORT</p>", "key_press": 18, "type": "PRES_VIS", "word": "airport", "wordID": 12, "conditions": [24, 1600, "v", 24000], "trial": 4, "serialpos": 4, "trial_type": "single-stim", "trial_index": 173, "time_elapsed": 718677, "internal_node_id": "0.0-128.0"}}, {"uniqueid": "MTK0813:3X73LLYYQ2LIC0JF8C8NDZFZWZXHNA", "current_trial": 174, "dateTime": 1512759938672, "trialdata": {"rt": -1, "stimulus": "<p id=\"stim\">CANAL</p>", "key_press": -1, "type": "PRES_VIS", "word": "canal", "wordID": 225, "conditions": [24, 1600, "v", 24000], "trial": 4, "serialpos": 5, "trial_type": "single-stim", "trial_index": 174, "time_elapsed": 721234, "internal_node_id": "0.0-129.0"}}, {"uniqueid": "MTK0813:3X73LLYYQ2LIC0JF8C8NDZFZWZXHNA", "current_trial": 175, "dateTime": 1512759941394, "trialdata": {"rt": 1003, "stimulus": "<p id=\"stim\">CASHIER</p>", "key_press": 18, "type": "PRES_VIS", "word": "cashier", "wordID": 253, "conditions": [24, 1600, "v", 24000], "trial": 4, "serialpos": 6, "trial_type": "single-stim", "trial_index": 175, "time_elapsed": 723956, "internal_node_id": "0.0-130.0"}}, {"uniqueid": "MTK0813:3X73LLYYQ2LIC0JF8C8NDZFZWZXHNA", "current_trial": 176, "dateTime": 1512759943807, "trialdata": {"rt": 1093, "stimulus": "<p id=\"stim\">UMPIRE</p>", "key_press": 18, "type": "PRES_VIS", "word": "umpire", "wordID": 1534, "conditions": [24, 1600, "v", 24000], "trial": 4, "serialpos": 7, "trial_type": "single-stim", "trial_index": 176, "time_elapsed": 726368, "internal_node_id": "0.0-131.0"}}, {"uniqueid": "MTK0813:3X73LLYYQ2LIC0JF8C8NDZFZWZXHNA", "current_trial": 177, "dateTime": 1512759946538, "trialdata": {"rt": -1, "stimulus": "<p id=\"stim\">MARROW</p>", "key_press": -1, "type": "PRES_VIS", "word": "marrow", "wordID": 871, "conditions": [24, 1600, "v", 24000], "trial": 4, "serialpos": 8, "trial_type": "single-stim", "trial_index": 177, "time_elapsed": 729100, "internal_node_id": "0.0-132.0"}}, {"uniqueid": "MTK0813:3X73LLYYQ2LIC0JF8C8NDZFZWZXHNA", "current_trial": 178, "dateTime": 1512759949039, "trialdata": {"rt": -1, "stimulus": "<p id=\"stim\">HUSBAND</p>", "key_press": -1, "type": "PRES_VIS", "word": "husband", "wordID": 727, "conditions": [24, 1600, "v", 24000], "trial": 4, "serialpos": 9, "trial_type": "single-stim", "trial_index": 178, "time_elapsed": 731601, "internal_node_id": "0.0-133.0"}}, {"uniqueid": "MTK0813:3X73LLYYQ2LIC0JF8C8NDZFZWZXHNA", "current_trial": 179, "dateTime": 1512759951769, "trialdata": {"rt": 396, "stimulus": "<p id=\"stim\">PRINCESS</p>", "key_press": 18, "type": "PRES_VIS", "word": "princess", "wordID": 1124, "conditions": [24, 1600, "v", 24000], "trial": 4, "serialpos": 10, "trial_type": "single-stim", "trial_index": 179, "time_elapsed": 734331, "internal_node_id": "0.0-134.0"}}, {"uniqueid": "MTK0813:3X73LLYYQ2LIC0JF8C8NDZFZWZXHNA", "current_trial": 180, "dateTime": 1512759954510, "trialdata": {"rt": -1, "stimulus": "<p id=\"stim\">BURGLAR</p>", "key_press": -1, "type": "PRES_VIS", "word": "burglar", "wordID": 199, "conditions": [24, 1600, "v", 24000], "trial": 4, "serialpos": 11, "trial_type": "single-stim", "trial_index": 180, "time_elapsed": 737071, "internal_node_id": "0.0-135.0"}}, {"uniqueid": "MTK0813:3X73LLYYQ2LIC0JF8C8NDZFZWZXHNA", "current_trial": 181, "dateTime": 1512759957133, "trialdata": {"rt": -1, "stimulus": "<p id=\"stim\">STUDENT</p>", "key_press": -1, "type": "PRES_VIS", "word": "student", "wordID": 1394, "conditions": [24, 1600, "v", 24000], "trial": 4, "serialpos": 12, "trial_type": "single-stim", "trial_index": 181, "time_elapsed": 739695, "internal_node_id": "0.0-136.0"}}, {"uniqueid": "MTK0813:3X73LLYYQ2LIC0JF8C8NDZFZWZXHNA", "current_trial": 182, "dateTime": 1512759959721, "trialdata": {"rt": -1, "stimulus": "<p id=\"stim\">LILY</p>", "key_press": -1, "type": "PRES_VIS", "word": "lily", "wordID": 820, "conditions": [24, 1600, "v", 24000], "trial": 4, "serialpos": 13, "trial_type": "single-stim", "trial_index": 182, "time_elapsed": 742283, "internal_node_id": "0.0-137.0"}}, {"uniqueid": "MTK0813:3X73LLYYQ2LIC0JF8C8NDZFZWZXHNA", "current_trial": 183, "dateTime": 1512759962232, "trialdata": {"rt": 444, "stimulus": "<p id=\"stim\">SANDWICH</p>", "key_press": 18, "type": "PRES_VIS", "word": "sandwich", "wordID": 1231, "conditions": [24, 1600, "v", 24000], "trial": 4, "serialpos": 14, "trial_type": "single-stim", "trial_index": 183, "time_elapsed": 744794, "internal_node_id": "0.0-138.0"}}, {"uniqueid": "MTK0813:3X73LLYYQ2LIC0JF8C8NDZFZWZXHNA", "current_trial": 184, "dateTime": 1512759964649, "trialdata": {"rt": 1372, "stimulus": "<p id=\"stim\">NOMAD</p>", "key_press": 18, "type": "PRES_VIS", "word": "nomad", "wordID": 954, "conditions": [24, 1600, "v", 24000], "trial": 4, "serialpos": 15, "trial_type": "single-stim", "trial_index": 184, "time_elapsed": 747211, "internal_node_id": "0.0-139.0"}}, {"uniqueid": "MTK0813:3X73LLYYQ2LIC0JF8C8NDZFZWZXHNA", "current_trial": 185, "dateTime": 1512759967106, "trialdata": {"rt": -1, "stimulus": "<p id=\"stim\">HIKER</p>", "key_press": -1, "type": "PRES_VIS", "word": "hiker", "wordID": 707, "conditions": [24, 1600, "v", 24000], "trial": 4, "serialpos": 16, "trial_type": "single-stim", "trial_index": 185, "time_elapsed": 749668, "internal_node_id": "0.0-140.0"}}, {"uniqueid": "MTK0813:3X73LLYYQ2LIC0JF8C8NDZFZWZXHNA", "current_trial": 186, "dateTime": 1512759969781, "trialdata": {"rt": -1, "stimulus": "<p id=\"stim\">FLESH</p>", "key_press": -1, "type": "PRES_VIS", "word": "flesh", "wordID": 578, "conditions": [24, 1600, "v", 24000], "trial": 4, "serialpos": 17, "trial_type": "single-stim", "trial_index": 186, "time_elapsed": 752343, "internal_node_id": "0.0-141.0"}}, {"uniqueid": "MTK0813:3X73LLYYQ2LIC0JF8C8NDZFZWZXHNA", "current_trial": 187, "dateTime": 1512759972283, "trialdata": {"rt": 1265, "stimulus": "<p id=\"stim\">REBEL</p>", "key_press": 18, "type": "PRES_VIS", "word": "rebel", "wordID": 1171, "conditions": [24, 1600, "v", 24000], "trial": 4, "serialpos": 18, "trial_type": "single-stim", "trial_index": 187, "time_elapsed": 754845, "internal_node_id": "0.0-142.0"}}, {"uniqueid": "MTK0813:3X73LLYYQ2LIC0JF8C8NDZFZWZXHNA", "current_trial": 188, "dateTime": 1512759975014, "trialdata": {"rt": -1, "stimulus": "<p id=\"stim\">GIRL</p>", "key_press": -1, "type": "PRES_VIS", "word": "girl", "wordID": 636, "conditions": [24, 1600, "v", 24000], "trial": 4, "serialpos": 19, "trial_type": "single-stim", "trial_index": 188, "time_elapsed": 757576, "internal_node_id": "0.0-143.0"}}, {"uniqueid": "MTK0813:3X73LLYYQ2LIC0JF8C8NDZFZWZXHNA", "current_trial": 189, "dateTime": 1512759977770, "trialdata": {"rt": -1, "stimulus": "<p id=\"stim\">WOMAN</p>", "key_press": -1, "type": "PRES_VIS", "word": "woman", "wordID": 1619, "conditions": [24, 1600, "v", 24000], "trial": 4, "serialpos": 20, "trial_type": "single-stim", "trial_index": 189, "time_elapsed": 760331, "internal_node_id": "0.0-144.0"}}, {"uniqueid": "MTK0813:3X73LLYYQ2LIC0JF8C8NDZFZWZXHNA", "current_trial": 190, "dateTime": 1512759980202, "trialdata": {"rt": -1, "stimulus": "<p id=\"stim\">DOUGHNUT</p>", "key_press": -1, "type": "PRES_VIS", "word": "doughnut", "wordID": 489, "conditions": [24, 1600, "v", 24000], "trial": 4, "serialpos": 21, "trial_type": "single-stim", "trial_index": 190, "time_elapsed": 762764, "internal_node_id": "0.0-145.0"}}, {"uniqueid": "MTK0813:3X73LLYYQ2LIC0JF8C8NDZFZWZXHNA", "current_trial": 191, "dateTime": 1512759982763, "trialdata": {"rt": -1, "stimulus": "<p id=\"stim\">LEG</p>", "key_press": -1, "type": "PRES_VIS", "word": "leg", "wordID": 808, "conditions": [24, 1600, "v", 24000], "trial": 4, "serialpos": 22, "trial_type": "single-stim", "trial_index": 191, "time_elapsed": 765325, "internal_node_id": "0.0-146.0"}}, {"uniqueid": "MTK0813:3X73LLYYQ2LIC0JF8C8NDZFZWZXHNA", "current_trial": 192, "dateTime": 1512759985205, "trialdata": {"rt": -1, "stimulus": "<p id=\"stim\">PUDDING</p>", "key_press": -1, "type": "PRES_VIS", "word": "pudding", "wordID": 1138, "conditions": [24, 1600, "v", 24000], "trial": 4, "serialpos": 23, "trial_type": "single-stim", "trial_index": 192, "time_elapsed": 767766, "internal_node_id": "0.0-147.0"}}, {"uniqueid": "MTK0813:3X73LLYYQ2LIC0JF8C8NDZFZWZXHNA", "current_trial": 193, "dateTime": 1512759987546, "trialdata": {"rt": -1, "stimulus": "", "key_press": -1, "type": "PRE_RECALL_DELAY", "trial_type": "single-stim", "trial_index": 193, "time_elapsed": 770108, "internal_node_id": "0.0-148.0-0.0"}}, {"uniqueid": "MTK0813:3X73LLYYQ2LIC0JF8C8NDZFZWZXHNA", "current_trial": 194, "dateTime": 1512759988048, "trialdata": {"rt": -1000, "stimulus": "/static/audio/400Hz.wav", "key_press": -1, "type": "PRE_RECALL_ALERT", "trial_type": "single-audio", "trial_index": 194, "time_elapsed": 770610, "internal_node_id": "0.0-149.0"}}, {"uniqueid": "MTK0813:3X73LLYYQ2LIC0JF8C8NDZFZWZXHNA", "current_trial": 195, "dateTime": 1512760048058, "trialdata": {"rt": [12467, 13419, 14632, 16296, 19791, 23776], "recwords": ["trout", "handbag", "sandwich", "umpire", "trout", "princess"], "type": "FREE_RECALL", "conditions": [24, 1600, "v", 24000], "trial": 4, "trial_type": "free-recall", "trial_index": 195, "time_elapsed": 830614, "internal_node_id": "0.0-150.0-0.0"}}, {"uniqueid": "MTK0813:3X73LLYYQ2LIC0JF8C8NDZFZWZXHNA", "current_trial": 196, "dateTime": 1512760077696, "trialdata": {"rt": 27637, "key_press": 32, "type": "INSTRUCTIONS", "trial_type": "text", "trial_index": 196, "time_elapsed": 860258, "internal_node_id": "0.0-151.0"}}, {"uniqueid": "MTK0813:3X73LLYYQ2LIC0JF8C8NDZFZWZXHNA", "current_trial": 197, "dateTime": 1512760103702, "trialdata": {"rt": [4183, 7887, 9191, 10585], "responses": ["13", "23", "13", "16"], "num1": [2, 8, 3, 8, 2], "num2": [4, 9, 5, 4, 9], "num3": [7, 4, 5, 4, 8], "type": "DISTRACTOR", "conditions": [12, 800, "a", 24000], "trial": 5, "trial_type": "math-distractor", "trial_index": 197, "time_elapsed": 886263, "internal_node_id": "0.0-152.0"}}, {"uniqueid": "MTK0813:3X73LLYYQ2LIC0JF8C8NDZFZWZXHNA", "current_trial": 198, "dateTime": 1512760106705, "trialdata": {"rt": -1, "stimulus": "<p id=\"stim\">10</p>", "key_press": -1, "trial_type": "single-stim", "trial_index": 198, "time_elapsed": 889267, "internal_node_id": "0.0-153.0-0.0"}}, {"uniqueid": "MTK0813:3X73LLYYQ2LIC0JF8C8NDZFZWZXHNA", "current_trial": 199, "dateTime": 1512760107707, "trialdata": {"rt": -1, "stimulus": "<p id=\"stim\">9</p>", "key_press": -1, "trial_type": "single-stim", "trial_index": 199, "time_elapsed": 890269, "internal_node_id": "0.0-153.0-1.0"}}, {"uniqueid": "MTK0813:3X73LLYYQ2LIC0JF8C8NDZFZWZXHNA", "current_trial": 200, "dateTime": 1512760108709, "trialdata": {"rt": -1, "stimulus": "<p id=\"stim\">8</p>", "key_press": -1, "trial_type": "single-stim", "trial_index": 200, "time_elapsed": 891270, "internal_node_id": "0.0-153.0-2.0"}}, {"uniqueid": "MTK0813:3X73LLYYQ2LIC0JF8C8NDZFZWZXHNA", "current_trial": 201, "dateTime": 1512760109710, "trialdata": {"rt": -1, "stimulus": "<p id=\"stim\">7</p>", "key_press": -1, "trial_type": "single-stim", "trial_index": 201, "time_elapsed": 892272, "internal_node_id": "0.0-153.0-3.0"}}, {"uniqueid": "MTK0813:3X73LLYYQ2LIC0JF8C8NDZFZWZXHNA", "current_trial": 202, "dateTime": 1512760110711, "trialdata": {"rt": -1, "stimulus": "<p id=\"stim\">6</p>", "key_press": -1, "trial_type": "single-stim", "trial_index": 202, "time_elapsed": 893273, "internal_node_id": "0.0-153.0-4.0"}}, {"uniqueid": "MTK0813:3X73LLYYQ2LIC0JF8C8NDZFZWZXHNA", "current_trial": 203, "dateTime": 1512760111713, "trialdata": {"rt": -1, "stimulus": "<p id=\"stim\">5</p>", "key_press": -1, "trial_type": "single-stim", "trial_index": 203, "time_elapsed": 894275, "internal_node_id": "0.0-153.0-5.0"}}, {"uniqueid": "MTK0813:3X73LLYYQ2LIC0JF8C8NDZFZWZXHNA", "current_trial": 204, "dateTime": 1512760112715, "trialdata": {"rt": -1, "stimulus": "<p id=\"stim\">4</p>", "key_press": -1, "trial_type": "single-stim", "trial_index": 204, "time_elapsed": 895276, "internal_node_id": "0.0-153.0-6.0"}}, {"uniqueid": "MTK0813:3X73LLYYQ2LIC0JF8C8NDZFZWZXHNA", "current_trial": 205, "dateTime": 1512760113716, "trialdata": {"rt": -1, "stimulus": "<p id=\"stim\">3</p>", "key_press": -1, "trial_type": "single-stim", "trial_index": 205, "time_elapsed": 896278, "internal_node_id": "0.0-153.0-7.0"}}, {"uniqueid": "MTK0813:3X73LLYYQ2LIC0JF8C8NDZFZWZXHNA", "current_trial": 206, "dateTime": 1512760114717, "trialdata": {"rt": 27, "stimulus": "<p id=\"stim\">2</p>", "key_press": 18, "trial_type": "single-stim", "trial_index": 206, "time_elapsed": 897279, "internal_node_id": "0.0-153.0-8.0"}}, {"uniqueid": "MTK0813:3X73LLYYQ2LIC0JF8C8NDZFZWZXHNA", "current_trial": 207, "dateTime": 1512760115720, "trialdata": {"rt": -1, "stimulus": "<p id=\"stim\">1</p>", "key_press": -1, "trial_type": "single-stim", "trial_index": 207, "time_elapsed": 898282, "internal_node_id": "0.0-153.0-9.0"}}, {"uniqueid": "MTK0813:3X73LLYYQ2LIC0JF8C8NDZFZWZXHNA", "current_trial": 208, "dateTime": 1512760117221, "trialdata": {"rt": -1, "stimulus": "<p id=\"stim\">+</p>", "key_press": -1, "type": "FIXATION", "trial_type": "single-stim", "trial_index": 208, "time_elapsed": 899783, "internal_node_id": "0.0-154.0-0.0"}}, {"uniqueid": "MTK0813:3X73LLYYQ2LIC0JF8C8NDZFZWZXHNA", "current_trial": 209, "dateTime": 1512760118944, "trialdata": {"rt": -1000, "stimulus": "/static/audio/wordpool/BACON.wav", "key_press": -1, "type": "PRES_AUD", "word": "bacon", "wordID": 66, "conditions": [12, 800, "a", 24000], "trial": 5, "serialpos": 0, "trial_type": "single-audio", "trial_index": 209, "time_elapsed": 901505, "internal_node_id": "0.0-155.0"}}, {"uniqueid": "MTK0813:3X73LLYYQ2LIC0JF8C8NDZFZWZXHNA", "current_trial": 210, "dateTime": 1512760120698, "trialdata": {"rt": -1000, "stimulus": "/static/audio/wordpool/PORK.wav", "key_press": -1, "type": "PRES_AUD", "word": "pork", "wordID": 1107, "conditions": [12, 800, "a", 24000], "trial": 5, "serialpos": 1, "trial_type": "single-audio", "trial_index": 210, "time_elapsed": 903259, "internal_node_id": "0.0-156.0"}}, {"uniqueid": "MTK0813:3X73LLYYQ2LIC0JF8C8NDZFZWZXHNA", "current_trial": 211, "dateTime": 1512760122503, "trialdata": {"rt": -1000, "stimulus": "/static/audio/wordpool/TWISTER.wav", "key_press": -1, "type": "PRES_AUD", "word": "twister", "wordID": 1529, "conditions": [12, 800, "a", 24000], "trial": 5, "serialpos": 2, "trial_type": "single-audio", "trial_index": 211, "time_elapsed": 905065, "internal_node_id": "0.0-157.0"}}, {"uniqueid": "MTK0813:3X73LLYYQ2LIC0JF8C8NDZFZWZXHNA", "current_trial": 212, "dateTime": 1512760124402, "trialdata": {"rt": -1000, "stimulus": "/static/audio/wordpool/ACTOR.wav", "key_press": -1, "type": "PRES_AUD", "word": "actor", "wordID": 4, "conditions": [12, 800, "a", 24000], "trial": 5, "serialpos": 3, "trial_type": "single-audio", "trial_index": 212, "time_elapsed": 906964, "internal_node_id": "0.0-158.0"}}, {"uniqueid": "MTK0813:3X73LLYYQ2LIC0JF8C8NDZFZWZXHNA", "current_trial": 213, "dateTime": 1512760126319, "trialdata": {"rt": -1000, "stimulus": "/static/audio/wordpool/VAGRANT.wav", "key_press": -1, "type": "PRES_AUD", "word": "vagrant", "wordID": 1543, "conditions": [12, 800, "a", 24000], "trial": 5, "serialpos": 4, "trial_type": "single-audio", "trial_index": 213, "time_elapsed": 908881, "internal_node_id": "0.0-159.0"}}, {"uniqueid": "MTK0813:3X73LLYYQ2LIC0JF8C8NDZFZWZXHNA", "current_trial": 214, "dateTime": 1512760128142, "trialdata": {"rt": -1000, "stimulus": "/static/audio/wordpool/MILDEW.wav", "key_press": -1, "type": "PRES_AUD", "word": "mildew", "wordID": 892, "conditions": [12, 800, "a", 24000], "trial": 5, "serialpos": 5, "trial_type": "single-audio", "trial_index": 214, "time_elapsed": 910704, "internal_node_id": "0.0-160.0"}}, {"uniqueid": "MTK0813:3X73LLYYQ2LIC0JF8C8NDZFZWZXHNA", "current_trial": 215, "dateTime": 1512760129915, "trialdata": {"rt": -1000, "stimulus": "/static/audio/wordpool/FIREMAN.wav", "key_press": -1, "type": "PRES_AUD", "word": "fireman", "wordID": 568, "conditions": [12, 800, "a", 24000], "trial": 5, "serialpos": 6, "trial_type": "single-audio", "trial_index": 215, "time_elapsed": 912477, "internal_node_id": "0.0-161.0"}}, {"uniqueid": "MTK0813:3X73LLYYQ2LIC0JF8C8NDZFZWZXHNA", "current_trial": 216, "dateTime": 1512760131898, "trialdata": {"rt": -1000, "stimulus": "/static/audio/wordpool/DRAGON.wav", "key_press": -1, "type": "PRES_AUD", "word": "dragon", "wordID": 491, "conditions": [12, 800, "a", 24000], "trial": 5, "serialpos": 7, "trial_type": "single-audio", "trial_index": 216, "time_elapsed": 914460, "internal_node_id": "0.0-162.0"}}, {"uniqueid": "MTK0813:3X73LLYYQ2LIC0JF8C8NDZFZWZXHNA", "current_trial": 217, "dateTime": 1512760133631, "trialdata": {"rt": -1000, "stimulus": "/static/audio/wordpool/MARSH.wav", "key_press": -1, "type": "PRES_AUD", "word": "marsh", "wordID": 873, "conditions": [12, 800, "a", 24000], "trial": 5, "serialpos": 8, "trial_type": "single-audio", "trial_index": 217, "time_elapsed": 916193, "internal_node_id": "0.0-163.0"}}, {"uniqueid": "MTK0813:3X73LLYYQ2LIC0JF8C8NDZFZWZXHNA", "current_trial": 218, "dateTime": 1512760135250, "trialdata": {"rt": -1000, "stimulus": "/static/audio/wordpool/PORTRAIT.wav", "key_press": -1, "type": "PRES_AUD", "word": "portrait", "wordID": 1110, "conditions": [12, 800, "a", 24000], "trial": 5, "serialpos": 9, "trial_type": "single-audio", "trial_index": 218, "time_elapsed": 917811, "internal_node_id": "0.0-164.0"}}, {"uniqueid": "MTK0813:3X73LLYYQ2LIC0JF8C8NDZFZWZXHNA", "current_trial": 219, "dateTime": 1512760137056, "trialdata": {"rt": -1000, "stimulus": "/static/audio/wordpool/BEAVER.wav", "key_press": -1, "type": "PRES_AUD", "word": "beaver", "wordID": 108, "conditions": [12, 800, "a", 24000], "trial": 5, "serialpos": 10, "trial_type": "single-audio", "trial_index": 219, "time_elapsed": 919618, "internal_node_id": "0.0-165.0"}}, {"uniqueid": "MTK0813:3X73LLYYQ2LIC0JF8C8NDZFZWZXHNA", "current_trial": 220, "dateTime": 1512760138989, "trialdata": {"rt": -1000, "stimulus": "/static/audio/wordpool/LAKE.wav", "key_press": -1, "type": "PRES_AUD", "word": "lake", "wordID": 795, "conditions": [12, 800, "a", 24000], "trial": 5, "serialpos": 11, "trial_type": "single-audio", "trial_index": 220, "time_elapsed": 921551, "internal_node_id": "0.0-166.0"}}, {"uniqueid": "MTK0813:3X73LLYYQ2LIC0JF8C8NDZFZWZXHNA", "current_trial": 221, "dateTime": 1512760140278, "trialdata": {"rt": -1, "stimulus": "", "key_press": -1, "type": "PRE_RECALL_DELAY", "trial_type": "single-stim", "trial_index": 221, "time_elapsed": 922840, "internal_node_id": "0.0-167.0-0.0"}}, {"uniqueid": "MTK0813:3X73LLYYQ2LIC0JF8C8NDZFZWZXHNA", "current_trial": 222, "dateTime": 1512760140780, "trialdata": {"rt": -1000, "stimulus": "/static/audio/400Hz.wav", "key_press": -1, "type": "PRE_RECALL_ALERT", "trial_type": "single-audio", "trial_index": 222, "time_elapsed": 923342, "internal_node_id": "0.0-168.0"}}, {"uniqueid": "MTK0813:3X73LLYYQ2LIC0JF8C8NDZFZWZXHNA", "current_trial": 223, "dateTime": 1512760200789, "trialdata": {"rt": [15813, 16565, 17799, 18965, 23514, 24280], "recwords": ["bacon", "pork", "mildew", "violence", "dragon", "firemen"], "type": "FREE_RECALL", "conditions": [12, 800, "a", 24000], "trial": 5, "trial_type": "free-recall", "trial_index": 223, "time_elapsed": 983346, "internal_node_id": "0.0-169.0-0.0"}}, {"uniqueid": "MTK0813:3X73LLYYQ2LIC0JF8C8NDZFZWZXHNA", "current_trial": 224, "dateTime": 1512760258454, "trialdata": {"rt": 55661, "key_press": 32, "type": "INSTRUCTIONS", "trial_type": "text", "trial_index": 224, "time_elapsed": 1041016, "internal_node_id": "0.0-170.0"}}, {"uniqueid": "MTK0813:3X73LLYYQ2LIC0JF8C8NDZFZWZXHNA", "current_trial": 225, "dateTime": 1512760272458, "trialdata": {"rt": [4619, 5965, 7453], "responses": ["21", "15", "21"], "num1": [8, 2, 8, 6], "num2": [9, 8, 8, 6], "num3": [4, 5, 5, 5], "type": "DISTRACTOR", "conditions": [12, 1600, "a", 12000], "trial": 6, "trial_type": "math-distractor", "trial_index": 225, "time_elapsed": 1055020, "internal_node_id": "0.0-171.0"}}, {"uniqueid": "MTK0813:3X73LLYYQ2LIC0JF8C8NDZFZWZXHNA", "current_trial": 226, "dateTime": 1512760275460, "trialdata": {"rt": -1, "stimulus": "<p id=\"stim\">10</p>", "key_press": -1, "trial_type": "single-stim", "trial_index": 226, "time_elapsed": 1058022, "internal_node_id": "0.0-172.0-0.0"}}, {"uniqueid": "MTK0813:3X73LLYYQ2LIC0JF8C8NDZFZWZXHNA", "current_trial": 227, "dateTime": 1512760276461, "trialdata": {"rt": -1, "stimulus": "<p id=\"stim\">9</p>", "key_press": -1, "trial_type": "single-stim", "trial_index": 227, "time_elapsed": 1059023, "internal_node_id": "0.0-172.0-1.0"}}, {"uniqueid": "MTK0813:3X73LLYYQ2LIC0JF8C8NDZFZWZXHNA", "current_trial": 228, "dateTime": 1512760277464, "trialdata": {"rt": -1, "stimulus": "<p id=\"stim\">8</p>", "key_press": -1, "trial_type": "single-stim", "trial_index": 228, "time_elapsed": 1060026, "internal_node_id": "0.0-172.0-2.0"}}, {"uniqueid": "MTK0813:3X73LLYYQ2LIC0JF8C8NDZFZWZXHNA", "current_trial": 229, "dateTime": 1512760278465, "trialdata": {"rt": -1, "stimulus": "<p id=\"stim\">7</p>", "key_press": -1, "trial_type": "single-stim", "trial_index": 229, "time_elapsed": 1061027, "internal_node_id": "0.0-172.0-3.0"}}, {"uniqueid": "MTK0813:3X73LLYYQ2LIC0JF8C8NDZFZWZXHNA", "current_trial": 230, "dateTime": 1512760279467, "trialdata": {"rt": -1, "stimulus": "<p id=\"stim\">6</p>", "key_press": -1, "trial_type": "single-stim", "trial_index": 230, "time_elapsed": 1062029, "internal_node_id": "0.0-172.0-4.0"}}, {"uniqueid": "MTK0813:3X73LLYYQ2LIC0JF8C8NDZFZWZXHNA", "current_trial": 231, "dateTime": 1512760280469, "trialdata": {"rt": -1, "stimulus": "<p id=\"stim\">5</p>", "key_press": -1, "trial_type": "single-stim", "trial_index": 231, "time_elapsed": 1063031, "internal_node_id": "0.0-172.0-5.0"}}, {"uniqueid": "MTK0813:3X73LLYYQ2LIC0JF8C8NDZFZWZXHNA", "current_trial": 232, "dateTime": 1512760281471, "trialdata": {"rt": -1, "stimulus": "<p id=\"stim\">4</p>", "key_press": -1, "trial_type": "single-stim", "trial_index": 232, "time_elapsed": 1064032, "internal_node_id": "0.0-172.0-6.0"}}, {"uniqueid": "MTK0813:3X73LLYYQ2LIC0JF8C8NDZFZWZXHNA", "current_trial": 233, "dateTime": 1512760282472, "trialdata": {"rt": -1, "stimulus": "<p id=\"stim\">3</p>", "key_press": -1, "trial_type": "single-stim", "trial_index": 233, "time_elapsed": 1065034, "internal_node_id": "0.0-172.0-7.0"}}, {"uniqueid": "MTK0813:3X73LLYYQ2LIC0JF8C8NDZFZWZXHNA", "current_trial": 234, "dateTime": 1512760283484, "trialdata": {"rt": -1, "stimulus": "<p id=\"stim\">2</p>", "key_press": -1, "trial_type": "single-stim", "trial_index": 234, "time_elapsed": 1066041, "internal_node_id": "0.0-172.0-8.0"}}, {"uniqueid": "MTK0813:3X73LLYYQ2LIC0JF8C8NDZFZWZXHNA", "current_trial": 235, "dateTime": 1512760284485, "trialdata": {"rt": -1, "stimulus": "<p id=\"stim\">1</p>", "key_press": -1, "trial_type": "single-stim", "trial_index": 235, "time_elapsed": 1067047, "internal_node_id": "0.0-172.0-9.0"}}, {"uniqueid": "MTK0813:3X73LLYYQ2LIC0JF8C8NDZFZWZXHNA", "current_trial": 236, "dateTime": 1512760285987, "trialdata": {"rt": -1, "stimulus": "<p id=\"stim\">+</p>", "key_press": -1, "type": "FIXATION", "trial_type": "single-stim", "trial_index": 236, "time_elapsed": 1068549, "internal_node_id": "0.0-173.0-0.0"}}, {"uniqueid": "MTK0813:3X73LLYYQ2LIC0JF8C8NDZFZWZXHNA", "current_trial": 237, "dateTime": 1512760288728, "trialdata": {"rt": -1000, "stimulus": "/static/audio/wordpool/RADISH.wav", "key_press": -1, "type": "PRES_AUD", "word": "radish", "wordID": 1157, "conditions": [12, 1600, "a", 12000], "trial": 6, "serialpos": 0, "trial_type": "single-audio", "trial_index": 237, "time_elapsed": 1071289, "internal_node_id": "0.0-174.0"}}, {"uniqueid": "MTK0813:3X73LLYYQ2LIC0JF8C8NDZFZWZXHNA", "current_trial": 238, "dateTime": 1512760291270, "trialdata": {"rt": -1000, "stimulus": "/static/audio/wordpool/SALAD.wav", "key_press": -1, "type": "PRES_AUD", "word": "salad", "wordID": 1223, "conditions": [12, 1600, "a", 12000], "trial": 6, "serialpos": 1, "trial_type": "single-audio", "trial_index": 238, "time_elapsed": 1073832, "internal_node_id": "0.0-175.0"}}, {"uniqueid": "MTK0813:3X73LLYYQ2LIC0JF8C8NDZFZWZXHNA", "current_trial": 239, "dateTime": 1512760293897, "trialdata": {"rt": -1000, "stimulus": "/static/audio/wordpool/HOUND.wav", "key_press": -1, "type": "PRES_AUD", "word": "hound", "wordID": 723, "conditions": [12, 1600, "a", 12000], "trial": 6, "serialpos": 2, "trial_type": "single-audio", "trial_index": 239, "time_elapsed": 1076459, "internal_node_id": "0.0-176.0"}}, {"uniqueid": "MTK0813:3X73LLYYQ2LIC0JF8C8NDZFZWZXHNA", "current_trial": 240, "dateTime": 1512760296541, "trialdata": {"rt": -1000, "stimulus": "/static/audio/wordpool/CYCLONE.wav", "key_press": -1, "type": "PRES_AUD", "word": "cyclone", "wordID": 430, "conditions": [12, 1600, "a", 12000], "trial": 6, "serialpos": 3, "trial_type": "single-audio", "trial_index": 240, "time_elapsed": 1079102, "internal_node_id": "0.0-177.0"}}, {"uniqueid": "MTK0813:3X73LLYYQ2LIC0JF8C8NDZFZWZXHNA", "current_trial": 241, "dateTime": 1512760299051, "trialdata": {"rt": -1000, "stimulus": "/static/audio/wordpool/PAPER.wav", "key_press": -1, "type": "PRES_AUD", "word": "paper", "wordID": 1010, "conditions": [12, 1600, "a", 12000], "trial": 6, "serialpos": 4, "trial_type": "single-audio", "trial_index": 241, "time_elapsed": 1081613, "internal_node_id": "0.0-178.0"}}, {"uniqueid": "MTK0813:3X73LLYYQ2LIC0JF8C8NDZFZWZXHNA", "current_trial": 242, "dateTime": 1512760301560, "trialdata": {"rt": 1948.0000000000928, "stimulus": "/static/audio/wordpool/WORLD.wav", "key_press": 18, "type": "PRES_AUD", "word": "world", "wordID": 1621, "conditions": [12, 1600, "a", 12000], "trial": 6, "serialpos": 5, "trial_type": "single-audio", "trial_index": 242, "time_elapsed": 1084122, "internal_node_id": "0.0-179.0"}}, {"uniqueid": "MTK0813:3X73LLYYQ2LIC0JF8C8NDZFZWZXHNA", "current_trial": 243, "dateTime": 1512760304248, "trialdata": {"rt": 1446.6666666667152, "stimulus": "/static/audio/wordpool/GYMNAST.wav", "key_press": 18, "type": "PRES_AUD", "word": "gymnast", "wordID": 674, "conditions": [12, 1600, "a", 12000], "trial": 6, "serialpos": 6, "trial_type": "single-audio", "trial_index": 243, "time_elapsed": 1086809, "internal_node_id": "0.0-180.0"}}, {"uniqueid": "MTK0813:3X73LLYYQ2LIC0JF8C8NDZFZWZXHNA", "current_trial": 244, "dateTime": 1512760306775, "trialdata": {"rt": -1000, "stimulus": "/static/audio/wordpool/SOFTBALL.wav", "key_press": -1, "type": "PRES_AUD", "word": "softball", "wordID": 1342, "conditions": [12, 1600, "a", 12000], "trial": 6, "serialpos": 7, "trial_type": "single-audio", "trial_index": 244, "time_elapsed": 1089335, "internal_node_id": "0.0-181.0"}}, {"uniqueid": "MTK0813:3X73LLYYQ2LIC0JF8C8NDZFZWZXHNA", "current_trial": 245, "dateTime": 1512760309366, "trialdata": {"rt": -1000, "stimulus": "/static/audio/wordpool/WHISKERS.wav", "key_press": -1, "type": "PRES_AUD", "word": "whiskers", "wordID": 1604, "conditions": [12, 1600, "a", 12000], "trial": 6, "serialpos": 8, "trial_type": "single-audio", "trial_index": 245, "time_elapsed": 1091928, "internal_node_id": "0.0-182.0"}}, {"uniqueid": "MTK0813:3X73LLYYQ2LIC0JF8C8NDZFZWZXHNA", "current_trial": 246, "dateTime": 1512760311772, "trialdata": {"rt": 2203.999999999951, "stimulus": "/static/audio/wordpool/GLOBE.wav", "key_press": 18, "type": "PRES_AUD", "word": "globe", "wordID": 640, "conditions": [12, 1600, "a", 12000], "trial": 6, "serialpos": 9, "trial_type": "single-audio", "trial_index": 246, "time_elapsed": 1094334, "internal_node_id": "0.0-183.0"}}, {"uniqueid": "MTK0813:3X73LLYYQ2LIC0JF8C8NDZFZWZXHNA", "current_trial": 247, "dateTime": 1512760314451, "trialdata": {"rt": -1000, "stimulus": "/static/audio/wordpool/FRUIT.wav", "key_press": -1, "type": "PRES_AUD", "word": "fruit", "wordID": 609, "conditions": [12, 1600, "a", 12000], "trial": 6, "serialpos": 10, "trial_type": "single-audio", "trial_index": 247, "time_elapsed": 1097012, "internal_node_id": "0.0-184.0"}}, {"uniqueid": "MTK0813:3X73LLYYQ2LIC0JF8C8NDZFZWZXHNA", "current_trial": 248, "dateTime": 1512760317118, "trialdata": {"rt": -1000, "stimulus": "/static/audio/wordpool/SNAKE.wav", "key_press": -1, "type": "PRES_AUD", "word": "snake", "wordID": 1332, "conditions": [12, 1600, "a", 12000], "trial": 6, "serialpos": 11, "trial_type": "single-audio", "trial_index": 248, "time_elapsed": 1099680, "internal_node_id": "0.0-185.0"}}, {"uniqueid": "MTK0813:3X73LLYYQ2LIC0JF8C8NDZFZWZXHNA", "current_trial": 249, "dateTime": 1512760318496, "trialdata": {"rt": -1, "stimulus": "", "key_press": -1, "type": "PRE_RECALL_DELAY", "trial_type": "single-stim", "trial_index": 249, "time_elapsed": 1101057, "internal_node_id": "0.0-186.0-0.0"}}, {"uniqueid": "MTK0813:3X73LLYYQ2LIC0JF8C8NDZFZWZXHNA", "current_trial": 250, "dateTime": 1512760318997, "trialdata": {"rt": -1000, "stimulus": "/static/audio/400Hz.wav", "key_press": -1, "type": "PRE_RECALL_ALERT", "trial_type": "single-audio", "trial_index": 250, "time_elapsed": 1101559, "internal_node_id": "0.0-187.0"}}, {"uniqueid": "MTK0813:3X73LLYYQ2LIC0JF8C8NDZFZWZXHNA", "current_trial": 251, "dateTime": 1512760379011, "trialdata": {"rt": [12131, 13221], "recwords": ["wife", "husband"], "type": "FREE_RECALL", "conditions": [12, 1600, "a", 12000], "trial": 6, "trial_type": "free-recall", "trial_index": 251, "time_elapsed": 1161563, "internal_node_id": "0.0-188.0-0.0"}}, {"uniqueid": "MTK0813:3X73LLYYQ2LIC0JF8C8NDZFZWZXHNA", "current_trial": 252, "dateTime": 1512760414673, "trialdata": {"rt": 33660, "key_press": 18, "type": "INSTRUCTIONS", "trial_type": "text", "trial_index": 252, "time_elapsed": 1197235, "internal_node_id": "0.0-189.0"}}, {"uniqueid": "MTK0813:3X73LLYYQ2LIC0JF8C8NDZFZWZXHNA", "current_trial": 253, "dateTime": 1512760428682, "trialdata": {"rt": [8363], "responses": ["9"], "num1": [3, 7], "num2": [2, 6], "num3": [4, 5], "type": "DISTRACTOR", "conditions": [24, 1600, "a", 12000], "trial": 7, "trial_type": "math-distractor", "trial_index": 253, "time_elapsed": 1211243, "internal_node_id": "0.0-190.0"}}, {"uniqueid": "MTK0813:3X73LLYYQ2LIC0JF8C8NDZFZWZXHNA", "current_trial": 254, "dateTime": 1512760431685, "trialdata": {"rt": -1, "stimulus": "<p id=\"stim\">10</p>", "key_press": -1, "trial_type": "single-stim", "trial_index": 254, "time_elapsed": 1214246, "internal_node_id": "0.0-191.0-0.0"}}, {"uniqueid": "MTK0813:3X73LLYYQ2LIC0JF8C8NDZFZWZXHNA", "current_trial": 255, "dateTime": 1512760432686, "trialdata": {"rt": -1, "stimulus": "<p id=\"stim\">9</p>", "key_press": -1, "trial_type": "single-stim", "trial_index": 255, "time_elapsed": 1215248, "internal_node_id": "0.0-191.0-1.0"}}, {"uniqueid": "MTK0813:3X73LLYYQ2LIC0JF8C8NDZFZWZXHNA", "current_trial": 256, "dateTime": 1512760433689, "trialdata": {"rt": -1, "stimulus": "<p id=\"stim\">8</p>", "key_press": -1, "trial_type": "single-stim", "trial_index": 256, "time_elapsed": 1216250, "internal_node_id": "0.0-191.0-2.0"}}, {"uniqueid": "MTK0813:3X73LLYYQ2LIC0JF8C8NDZFZWZXHNA", "current_trial": 257, "dateTime": 1512760434690, "trialdata": {"rt": -1, "stimulus": "<p id=\"stim\">7</p>", "key_press": -1, "trial_type": "single-stim", "trial_index": 257, "time_elapsed": 1217252, "internal_node_id": "0.0-191.0-3.0"}}, {"uniqueid": "MTK0813:3X73LLYYQ2LIC0JF8C8NDZFZWZXHNA", "current_trial": 258, "dateTime": 1512760435692, "trialdata": {"rt": -1, "stimulus": "<p id=\"stim\">6</p>", "key_press": -1, "trial_type": "single-stim", "trial_index": 258, "time_elapsed": 1218254, "internal_node_id": "0.0-191.0-4.0"}}, {"uniqueid": "MTK0813:3X73LLYYQ2LIC0JF8C8NDZFZWZXHNA", "current_trial": 259, "dateTime": 1512760436694, "trialdata": {"rt": -1, "stimulus": "<p id=\"stim\">5</p>", "key_press": -1, "trial_type": "single-stim", "trial_index": 259, "time_elapsed": 1219256, "internal_node_id": "0.0-191.0-5.0"}}, {"uniqueid": "MTK0813:3X73LLYYQ2LIC0JF8C8NDZFZWZXHNA", "current_trial": 260, "dateTime": 1512760437699, "trialdata": {"rt": -1, "stimulus": "<p id=\"stim\">4</p>", "key_press": -1, "trial_type": "single-stim", "trial_index": 260, "time_elapsed": 1220260, "internal_node_id": "0.0-191.0-6.0"}}, {"uniqueid": "MTK0813:3X73LLYYQ2LIC0JF8C8NDZFZWZXHNA", "current_trial": 261, "dateTime": 1512760438700, "trialdata": {"rt": 489, "stimulus": "<p id=\"stim\">3</p>", "key_press": 18, "trial_type": "single-stim", "trial_index": 261, "time_elapsed": 1221262, "internal_node_id": "0.0-191.0-7.0"}}, {"uniqueid": "MTK0813:3X73LLYYQ2LIC0JF8C8NDZFZWZXHNA", "current_trial": 262, "dateTime": 1512760439705, "trialdata": {"rt": -1, "stimulus": "<p id=\"stim\">2</p>", "key_press": -1, "trial_type": "single-stim", "trial_index": 262, "time_elapsed": 1222264, "internal_node_id": "0.0-191.0-8.0"}}, {"uniqueid": "MTK0813:3X73LLYYQ2LIC0JF8C8NDZFZWZXHNA", "current_trial": 263, "dateTime": 1512760440709, "trialdata": {"rt": -1, "stimulus": "<p id=\"stim\">1</p>", "key_press": -1, "trial_type": "single-stim", "trial_index": 263, "time_elapsed": 1223271, "internal_node_id": "0.0-191.0-9.0"}}, {"uniqueid": "MTK0813:3X73LLYYQ2LIC0JF8C8NDZFZWZXHNA", "current_trial": 264, "dateTime": 1512760442214, "trialdata": {"rt": -1, "stimulus": "<p id=\"stim\">+</p>", "key_press": -1, "type": "FIXATION", "trial_type": "single-stim", "trial_index": 264, "time_elapsed": 1224776, "internal_node_id": "0.0-192.0-0.0"}}, {"uniqueid": "MTK0813:3X73LLYYQ2LIC0JF8C8NDZFZWZXHNA", "current_trial": 265, "dateTime": 1512760444681, "trialdata": {"rt": -1000, "stimulus": "/static/audio/wordpool/SKILLET.wav", "key_press": -1, "type": "PRES_AUD", "word": "skillet", "wordID": 1316, "conditions": [24, 1600, "a", 12000], "trial": 7, "serialpos": 0, "trial_type": "single-audio", "trial_index": 265, "time_elapsed": 1227242, "internal_node_id": "0.0-193.0"}}, {"uniqueid": "MTK0813:3X73LLYYQ2LIC0JF8C8NDZFZWZXHNA", "current_trial": 266, "dateTime": 1512760447416, "trialdata": {"rt": -1000, "stimulus": "/static/audio/wordpool/CREVICE.wav", "key_press": -1, "type": "PRES_AUD", "word": "crevice", "wordID": 404, "conditions": [24, 1600, "a", 12000], "trial": 7, "serialpos": 1, "trial_type": "single-audio", "trial_index": 266, "time_elapsed": 1229977, "internal_node_id": "0.0-194.0"}}, {"uniqueid": "MTK0813:3X73LLYYQ2LIC0JF8C8NDZFZWZXHNA", "current_trial": 267, "dateTime": 1512760449857, "trialdata": {"rt": -1000, "stimulus": "/static/audio/wordpool/SHORTS.wav", "key_press": -1, "type": "PRES_AUD", "word": "shorts", "wordID": 1292, "conditions": [24, 1600, "a", 12000], "trial": 7, "serialpos": 2, "trial_type": "single-audio", "trial_index": 267, "time_elapsed": 1232418, "internal_node_id": "0.0-195.0"}}, {"uniqueid": "MTK0813:3X73LLYYQ2LIC0JF8C8NDZFZWZXHNA", "current_trial": 268, "dateTime": 1512760452324, "trialdata": {"rt": -1000, "stimulus": "/static/audio/wordpool/FLUTE.wav", "key_press": -1, "type": "PRES_AUD", "word": "flute", "wordID": 584, "conditions": [24, 1600, "a", 12000], "trial": 7, "serialpos": 3, "trial_type": "single-audio", "trial_index": 268, "time_elapsed": 1234886, "internal_node_id": "0.0-196.0"}}, {"uniqueid": "MTK0813:3X73LLYYQ2LIC0JF8C8NDZFZWZXHNA", "current_trial": 269, "dateTime": 1512760454947, "trialdata": {"rt": -1000, "stimulus": "/static/audio/wordpool/HARP.wav", "key_press": -1, "type": "PRES_AUD", "word": "harp", "wordID": 688, "conditions": [24, 1600, "a", 12000], "trial": 7, "serialpos": 4, "trial_type": "single-audio", "trial_index": 269, "time_elapsed": 1237509, "internal_node_id": "0.0-197.0"}}, {"uniqueid": "MTK0813:3X73LLYYQ2LIC0JF8C8NDZFZWZXHNA", "current_trial": 270, "dateTime": 1512760457711, "trialdata": {"rt": -1000, "stimulus": "/static/audio/wordpool/GRILL.wav", "key_press": -1, "type": "PRES_AUD", "word": "grill", "wordID": 660, "conditions": [24, 1600, "a", 12000], "trial": 7, "serialpos": 5, "trial_type": "single-audio", "trial_index": 270, "time_elapsed": 1240273, "internal_node_id": "0.0-198.0"}}, {"uniqueid": "MTK0813:3X73LLYYQ2LIC0JF8C8NDZFZWZXHNA", "current_trial": 271, "dateTime": 1512760460409, "trialdata": {"rt": -1000, "stimulus": "/static/audio/wordpool/JAPAN.wav", "key_press": -1, "type": "PRES_AUD", "word": "japan", "wordID": 748, "conditions": [24, 1600, "a", 12000], "trial": 7, "serialpos": 6, "trial_type": "single-audio", "trial_index": 271, "time_elapsed": 1242971, "internal_node_id": "0.0-199.0"}}, {"uniqueid": "MTK0813:3X73LLYYQ2LIC0JF8C8NDZFZWZXHNA", "current_trial": 272, "dateTime": 1512760463100, "trialdata": {"rt": -1000, "stimulus": "/static/audio/wordpool/WAITER.wav", "key_press": -1, "type": "PRES_AUD", "word": "waiter", "wordID": 1579, "conditions": [24, 1600, "a", 12000], "trial": 7, "serialpos": 7, "trial_type": "single-audio", "trial_index": 272, "time_elapsed": 1245662, "internal_node_id": "0.0-200.0"}}, {"uniqueid": "MTK0813:3X73LLYYQ2LIC0JF8C8NDZFZWZXHNA", "current_trial": 273, "dateTime": 1512760465725, "trialdata": {"rt": -1000, "stimulus": "/static/audio/wordpool/HOOD.wav", "key_press": -1, "type": "PRES_AUD", "word": "hood", "wordID": 713, "conditions": [24, 1600, "a", 12000], "trial": 7, "serialpos": 8, "trial_type": "single-audio", "tria