{"condition": 0, "counterbalance": 1172, "assignmentId": "32VNZTT0A8B9FMNCMC5LSUB5SRG4RF", "workerId": "MTK0827", "hitId": "3R15W654VD03E9H3PNA0K17R2LKLQW", "currenttrial": 626, "bonus": 0, "data": [{"uniqueid": "MTK0827:32VNZTT0A8B9FMNCMC5LSUB5SRG4RF", "current_trial": 0, "dateTime": 1512763741120, "trialdata": {"rt": 2349, "key_press": 32, "type": "INSTRUCTIONS", "trial_type": "text", "trial_index": 0, "time_elapsed": 2353, "internal_node_id": "0.0-0.0"}}, {"uniqueid": "MTK0827:32VNZTT0A8B9FMNCMC5LSUB5SRG4RF", "current_trial": 1, "dateTime": 1512763758982, "trialdata": {"rt": 17857, "key_press": 32, "type": "INSTRUCTIONS", "trial_type": "text", "trial_index": 1, "time_elapsed": 20216, "internal_node_id": "0.0-1.0"}}, {"uniqueid": "MTK0827:32VNZTT0A8B9FMNCMC5LSUB5SRG4RF", "current_trial": 2, "dateTime": 1512763769798, "trialdata": {"rt": [10634], "responses": ["ocean"], "type": "AUDIO_TEST", "trial_type": "audio-test", "trial_index": 2, "time_elapsed": 31033, "internal_node_id": "0.0-2.0"}}, {"uniqueid": "MTK0827:32VNZTT0A8B9FMNCMC5LSUB5SRG4RF", "current_trial": 3, "dateTime": 1512763776206, "trialdata": {"rt": [6401], "responses": ["crystal"], "type": "AUDIO_TEST", "trial_type": "audio-test", "trial_index": 3, "time_elapsed": 37441, "internal_node_id": "0.0-3.0"}}, {"uniqueid": "MTK0827:32VNZTT0A8B9FMNCMC5LSUB5SRG4RF", "current_trial": 4, "dateTime": 1512763780566, "trialdata": {"rt": [4353], "responses": ["spice"], "type": "AUDIO_TEST", "trial_type": "audio-test", "trial_index": 4, "time_elapsed": 41801, "internal_node_id": "0.0-4.0"}}, {"uniqueid": "MTK0827:32VNZTT0A8B9FMNCMC5LSUB5SRG4RF", "current_trial": 5, "dateTime": 1512763804008, "trialdata": {"rt": 22685, "responses": "{\"Q0\":\"10:00PM\",\"Q1\":\"6:00AM\",\"Q2\":\"5\"}", "type": "SLEEP_SURVEY", "trial_type": "survey-text", "trial_index": 5, "time_elapsed": 65242, "internal_node_id": "0.0-5.0"}}, {"uniqueid": "MTK0827:32VNZTT0A8B9FMNCMC5LSUB5SRG4RF", "current_trial": 6, "dateTime": 1512763864358, "trialdata": {"rt": 59346, "key_press": 32, "type": "INSTRUCTIONS", "trial_type": "text", "trial_index": 6, "time_elapsed": 125593, "internal_node_id": "0.0-6.0"}}, {"uniqueid": "MTK0827:32VNZTT0A8B9FMNCMC5LSUB5SRG4RF", "current_trial": 7, "dateTime": 1512763901627, "trialdata": {"rt": 36766, "key_press": 32, "type": "INSTRUCTIONS", "trial_type": "text", "trial_index": 7, "time_elapsed": 162862, "internal_node_id": "0.0-7.0"}}, {"uniqueid": "MTK0827:32VNZTT0A8B9FMNCMC5LSUB5SRG4RF", "current_trial": 8, "dateTime": 1512763932992, "trialdata": {"rt": 30863, "key_press": 32, "type": "INSTRUCTIONS", "trial_type": "text", "trial_index": 8, "time_elapsed": 194227, "internal_node_id": "0.0-8.0"}}, {"uniqueid": "MTK0827:32VNZTT0A8B9FMNCMC5LSUB5SRG4RF", "current_trial": 9, "dateTime": 1512763952052, "trialdata": {"rt": [], "responses": [], "num1": [7], "num2": [7], "num3": [2], "type": "DISTRACTOR", "conditions": [18, 1200, "v", 18000], "trial": 0, "trial_type": "math-distractor", "trial_index": 9, "time_elapsed": 213287, "internal_node_id": "0.0-9.0"}}, {"uniqueid": "MTK0827:32VNZTT0A8B9FMNCMC5LSUB5SRG4RF", "current_trial": 10, "dateTime": 1512763955058, "trialdata": {"rt": -1, "stimulus": "<p id=\"stim\">10</p>", "key_press": -1, "trial_type": "single-stim", "trial_index": 10, "time_elapsed": 216293, "internal_node_id": "0.0-10.0-0.0"}}, {"uniqueid": "MTK0827:32VNZTT0A8B9FMNCMC5LSUB5SRG4RF", "current_trial": 11, "dateTime": 1512763956061, "trialdata": {"rt": -1, "stimulus": "<p id=\"stim\">9</p>", "key_press": -1, "trial_type": "single-stim", "trial_index": 11, "time_elapsed": 217296, "internal_node_id": "0.0-10.0-1.0"}}, {"uniqueid": "MTK0827:32VNZTT0A8B9FMNCMC5LSUB5SRG4RF", "current_trial": 12, "dateTime": 1512763957063, "trialdata": {"rt": -1, "stimulus": "<p id=\"stim\">8</p>", "key_press": -1, "trial_type": "single-stim", "trial_index": 12, "time_elapsed": 218297, "internal_node_id": "0.0-10.0-2.0"}}, {"uniqueid": "MTK0827:32VNZTT0A8B9FMNCMC5LSUB5SRG4RF", "current_trial": 13, "dateTime": 1512763958065, "trialdata": {"rt": -1, "stimulus": "<p id=\"stim\">7</p>", "key_press": -1, "trial_type": "single-stim", "trial_index": 13, "time_elapsed": 219300, "internal_node_id": "0.0-10.0-3.0"}}, {"uniqueid": "MTK0827:32VNZTT0A8B9FMNCMC5LSUB5SRG4RF", "current_trial": 14, "dateTime": 1512763959067, "trialdata": {"rt": -1, "stimulus": "<p id=\"stim\">6</p>", "key_press": -1, "trial_type": "single-stim", "trial_index": 14, "time_elapsed": 220302, "internal_node_id": "0.0-10.0-4.0"}}, {"uniqueid": "MTK0827:32VNZTT0A8B9FMNCMC5LSUB5SRG4RF", "current_trial": 15, "dateTime": 1512763960070, "trialdata": {"rt": -1, "stimulus": "<p id=\"stim\">5</p>", "key_press": -1, "trial_type": "single-stim", "trial_index": 15, "time_elapsed": 221304, "internal_node_id": "0.0-10.0-5.0"}}, {"uniqueid": "MTK0827:32VNZTT0A8B9FMNCMC5LSUB5SRG4RF", "current_trial": 16, "dateTime": 1512763961072, "trialdata": {"rt": -1, "stimulus": "<p id=\"stim\">4</p>", "key_press": -1, "trial_type": "single-stim", "trial_index": 16, "time_elapsed": 222306, "internal_node_id": "0.0-10.0-6.0"}}, {"uniqueid": "MTK0827:32VNZTT0A8B9FMNCMC5LSUB5SRG4RF", "current_trial": 17, "dateTime": 1512763962074, "trialdata": {"rt": -1, "stimulus": "<p id=\"stim\">3</p>", "key_press": -1, "trial_type": "single-stim", "trial_index": 17, "time_elapsed": 223309, "internal_node_id": "0.0-10.0-7.0"}}, {"uniqueid": "MTK0827:32VNZTT0A8B9FMNCMC5LSUB5SRG4RF", "current_trial": 18, "dateTime": 1512763963076, "trialdata": {"rt": -1, "stimulus": "<p id=\"stim\">2</p>", "key_press": -1, "trial_type": "single-stim", "trial_index": 18, "time_elapsed": 224311, "internal_node_id": "0.0-10.0-8.0"}}, {"uniqueid": "MTK0827:32VNZTT0A8B9FMNCMC5LSUB5SRG4RF", "current_trial": 19, "dateTime": 1512763964078, "trialdata": {"rt": -1, "stimulus": "<p id=\"stim\">1</p>", "key_press": -1, "trial_type": "single-stim", "trial_index": 19, "time_elapsed": 225313, "internal_node_id": "0.0-10.0-9.0"}}, {"uniqueid": "MTK0827:32VNZTT0A8B9FMNCMC5LSUB5SRG4RF", "current_trial": 20, "dateTime": 1512763965581, "trialdata": {"rt": -1, "stimulus": "<p id=\"stim\">+</p>", "key_press": -1, "type": "FIXATION", "trial_type": "single-stim", "trial_index": 20, "time_elapsed": 226816, "internal_node_id": "0.0-11.0-0.0"}}, {"uniqueid": "MTK0827:32VNZTT0A8B9FMNCMC5LSUB5SRG4RF", "current_trial": 21, "dateTime": 1512763966784, "trialdata": {"rt": -1, "stimulus": "<p id=\"stim\">BANQUET</p>", "key_press": -1, "type": "PRES_VIS", "word": "banquet", "wordID": 85, "conditions": [18, 1200, "v", 18000], "trial": 0, "serialpos": 0, "trial_type": "single-stim", "trial_index": 21, "time_elapsed": 228018, "internal_node_id": "0.0-12.0"}}, {"uniqueid": "MTK0827:32VNZTT0A8B9FMNCMC5LSUB5SRG4RF", "current_trial": 22, "dateTime": 1512763969163, "trialdata": {"rt": -1, "stimulus": "<p id=\"stim\">HOOK</p>", "key_press": -1, "type": "PRES_VIS", "word": "hook", "wordID": 714, "conditions": [18, 1200, "v", 18000], "trial": 0, "serialpos": 1, "trial_type": "single-stim", "trial_index": 22, "time_elapsed": 230398, "internal_node_id": "0.0-13.0"}}, {"uniqueid": "MTK0827:32VNZTT0A8B9FMNCMC5LSUB5SRG4RF", "current_trial": 23, "dateTime": 1512763971416, "trialdata": {"rt": -1, "stimulus": "<p id=\"stim\">SHOULDER</p>", "key_press": -1, "type": "PRES_VIS", "word": "shoulder", "wordID": 1293, "conditions": [18, 1200, "v", 18000], "trial": 0, "serialpos": 2, "trial_type": "single-stim", "trial_index": 23, "time_elapsed": 232651, "internal_node_id": "0.0-14.0"}}, {"uniqueid": "MTK0827:32VNZTT0A8B9FMNCMC5LSUB5SRG4RF", "current_trial": 24, "dateTime": 1512763973548, "trialdata": {"rt": -1, "stimulus": "<p id=\"stim\">SUBWAY</p>", "key_press": -1, "type": "PRES_VIS", "word": "subway", "wordID": 1399, "conditions": [18, 1200, "v", 18000], "trial": 0, "serialpos": 3, "trial_type": "single-stim", "trial_index": 24, "time_elapsed": 234783, "internal_node_id": "0.0-15.0"}}, {"uniqueid": "MTK0827:32VNZTT0A8B9FMNCMC5LSUB5SRG4RF", "current_trial": 25, "dateTime": 1512763975557, "trialdata": {"rt": -1, "stimulus": "<p id=\"stim\">DRESS</p>", "key_press": -1, "type": "PRES_VIS", "word": "dress", "wordID": 494, "conditions": [18, 1200, "v", 18000], "trial": 0, "serialpos": 4, "trial_type": "single-stim", "trial_index": 25, "time_elapsed": 236792, "internal_node_id": "0.0-16.0"}}, {"uniqueid": "MTK0827:32VNZTT0A8B9FMNCMC5LSUB5SRG4RF", "current_trial": 26, "dateTime": 1512763977660, "trialdata": {"rt": -1, "stimulus": "<p id=\"stim\">PASTRY</p>", "key_press": -1, "type": "PRES_VIS", "word": "pastry", "wordID": 1021, "conditions": [18, 1200, "v", 18000], "trial": 0, "serialpos": 5, "trial_type": "single-stim", "trial_index": 26, "time_elapsed": 238895, "internal_node_id": "0.0-17.0"}}, {"uniqueid": "MTK0827:32VNZTT0A8B9FMNCMC5LSUB5SRG4RF", "current_trial": 27, "dateTime": 1512763979923, "trialdata": {"rt": -1, "stimulus": "<p id=\"stim\">DANDRUFF</p>", "key_press": -1, "type": "PRES_VIS", "word": "dandruff", "wordID": 438, "conditions": [18, 1200, "v", 18000], "trial": 0, "serialpos": 6, "trial_type": "single-stim", "trial_index": 27, "time_elapsed": 241157, "internal_node_id": "0.0-18.0"}}, {"uniqueid": "MTK0827:32VNZTT0A8B9FMNCMC5LSUB5SRG4RF", "current_trial": 28, "dateTime": 1512763982001, "trialdata": {"rt": -1, "stimulus": "<p id=\"stim\">FINGER</p>", "key_press": -1, "type": "PRES_VIS", "word": "finger", "wordID": 566, "conditions": [18, 1200, "v", 18000], "trial": 0, "serialpos": 7, "trial_type": "single-stim", "trial_index": 28, "time_elapsed": 243236, "internal_node_id": "0.0-19.0"}}, {"uniqueid": "MTK0827:32VNZTT0A8B9FMNCMC5LSUB5SRG4RF", "current_trial": 29, "dateTime": 1512763984024, "trialdata": {"rt": -1, "stimulus": "<p id=\"stim\">LEG</p>", "key_press": -1, "type": "PRES_VIS", "word": "leg", "wordID": 808, "conditions": [18, 1200, "v", 18000], "trial": 0, "serialpos": 8, "trial_type": "single-stim", "trial_index": 29, "time_elapsed": 245259, "internal_node_id": "0.0-20.0"}}, {"uniqueid": "MTK0827:32VNZTT0A8B9FMNCMC5LSUB5SRG4RF", "current_trial": 30, "dateTime": 1512763986286, "trialdata": {"rt": -1, "stimulus": "<p id=\"stim\">STICKER</p>", "key_press": -1, "type": "PRES_VIS", "word": "sticker", "wordID": 1381, "conditions": [18, 1200, "v", 18000], "trial": 0, "serialpos": 9, "trial_type": "single-stim", "trial_index": 30, "time_elapsed": 247520, "internal_node_id": "0.0-21.0"}}, {"uniqueid": "MTK0827:32VNZTT0A8B9FMNCMC5LSUB5SRG4RF", "current_trial": 31, "dateTime": 1512763988569, "trialdata": {"rt": -1, "stimulus": "<p id=\"stim\">BUG</p>", "key_press": -1, "type": "PRES_VIS", "word": "bug", "wordID": 186, "conditions": [18, 1200, "v", 18000], "trial": 0, "serialpos": 10, "trial_type": "single-stim", "trial_index": 31, "time_elapsed": 249804, "internal_node_id": "0.0-22.0"}}, {"uniqueid": "MTK0827:32VNZTT0A8B9FMNCMC5LSUB5SRG4RF", "current_trial": 32, "dateTime": 1512763990910, "trialdata": {"rt": -1, "stimulus": "<p id=\"stim\">ONION</p>", "key_press": -1, "type": "PRES_VIS", "word": "onion", "wordID": 976, "conditions": [18, 1200, "v", 18000], "trial": 0, "serialpos": 11, "trial_type": "single-stim", "trial_index": 32, "time_elapsed": 252145, "internal_node_id": "0.0-23.0"}}, {"uniqueid": "MTK0827:32VNZTT0A8B9FMNCMC5LSUB5SRG4RF", "current_trial": 33, "dateTime": 1512763993205, "trialdata": {"rt": -1, "stimulus": "<p id=\"stim\">SPONGE</p>", "key_press": -1, "type": "PRES_VIS", "word": "sponge", "wordID": 1354, "conditions": [18, 1200, "v", 18000], "trial": 0, "serialpos": 12, "trial_type": "single-stim", "trial_index": 33, "time_elapsed": 254440, "internal_node_id": "0.0-24.0"}}, {"uniqueid": "MTK0827:32VNZTT0A8B9FMNCMC5LSUB5SRG4RF", "current_trial": 34, "dateTime": 1512763995446, "trialdata": {"rt": -1, "stimulus": "<p id=\"stim\">PANTHER</p>", "key_press": -1, "type": "PRES_VIS", "word": "panther", "wordID": 1008, "conditions": [18, 1200, "v", 18000], "trial": 0, "serialpos": 13, "trial_type": "single-stim", "trial_index": 34, "time_elapsed": 256681, "internal_node_id": "0.0-25.0"}}, {"uniqueid": "MTK0827:32VNZTT0A8B9FMNCMC5LSUB5SRG4RF", "current_trial": 35, "dateTime": 1512763997766, "trialdata": {"rt": -1, "stimulus": "<p id=\"stim\">DAUGHTER</p>", "key_press": -1, "type": "PRES_VIS", "word": "daughter", "wordID": 441, "conditions": [18, 1200, "v", 18000], "trial": 0, "serialpos": 14, "trial_type": "single-stim", "trial_index": 35, "time_elapsed": 259000, "internal_node_id": "0.0-26.0"}}, {"uniqueid": "MTK0827:32VNZTT0A8B9FMNCMC5LSUB5SRG4RF", "current_trial": 36, "dateTime": 1512764000028, "trialdata": {"rt": -1, "stimulus": "<p id=\"stim\">BOYFRIEND</p>", "key_press": -1, "type": "PRES_VIS", "word": "boyfriend", "wordID": 161, "conditions": [18, 1200, "v", 18000], "trial": 0, "serialpos": 15, "trial_type": "single-stim", "trial_index": 36, "time_elapsed": 261262, "internal_node_id": "0.0-27.0"}}, {"uniqueid": "MTK0827:32VNZTT0A8B9FMNCMC5LSUB5SRG4RF", "current_trial": 37, "dateTime": 1512764002340, "trialdata": {"rt": -1, "stimulus": "<p id=\"stim\">COIN</p>", "key_press": -1, "type": "PRES_VIS", "word": "coin", "wordID": 342, "conditions": [18, 1200, "v", 18000], "trial": 0, "serialpos": 16, "trial_type": "single-stim", "trial_index": 37, "time_elapsed": 263574, "internal_node_id": "0.0-28.0"}}, {"uniqueid": "MTK0827:32VNZTT0A8B9FMNCMC5LSUB5SRG4RF", "current_trial": 38, "dateTime": 1512764004401, "trialdata": {"rt": -1, "stimulus": "<p id=\"stim\">PIGEON</p>", "key_press": -1, "type": "PRES_VIS", "word": "pigeon", "wordID": 1064, "conditions": [18, 1200, "v", 18000], "trial": 0, "serialpos": 17, "trial_type": "single-stim", "trial_index": 38, "time_elapsed": 265635, "internal_node_id": "0.0-29.0"}}, {"uniqueid": "MTK0827:32VNZTT0A8B9FMNCMC5LSUB5SRG4RF", "current_trial": 39, "dateTime": 1512764006849, "trialdata": {"rt": -1, "stimulus": "", "key_press": -1, "type": "PRE_RECALL_DELAY", "trial_type": "single-stim", "trial_index": 39, "time_elapsed": 268084, "internal_node_id": "0.0-30.0-0.0"}}, {"uniqueid": "MTK0827:32VNZTT0A8B9FMNCMC5LSUB5SRG4RF", "current_trial": 40, "dateTime": 1512764007399, "trialdata": {"rt": -1000, "stimulus": "/static/audio/400Hz.wav", "key_press": -1, "type": "PRE_RECALL_ALERT", "trial_type": "single-audio", "trial_index": 40, "time_elapsed": 268634, "internal_node_id": "0.0-31.0"}}, {"uniqueid": "MTK0827:32VNZTT0A8B9FMNCMC5LSUB5SRG4RF", "current_trial": 41, "dateTime": 1512764067420, "trialdata": {"rt": [4043, 6771, 9260, 10923, 12811, 14028, 16867, 19675, 20829, 22620, 24356, 27797, 29541, 36119, 40948], "recwords": ["banquet", "sticker", "pigeon", "pastry", "dandruff", "hook", "pastry", "subway", "leg", "bug", "sponge", "boyfriend", "dress", "coin", "daughter"], "type": "FREE_RECALL", "conditions": [18, 1200, "v", 18000], "trial": 0, "trial_type": "free-recall", "trial_index": 41, "time_elapsed": 328644, "internal_node_id": "0.0-32.0-0.0"}}, {"uniqueid": "MTK0827:32VNZTT0A8B9FMNCMC5LSUB5SRG4RF", "current_trial": 42, "dateTime": 1512764071036, "trialdata": {"rt": 1615, "key_press": 32, "type": "INSTRUCTIONS", "trial_type": "text", "trial_index": 42, "time_elapsed": 332271, "internal_node_id": "0.0-33.0"}}, {"uniqueid": "MTK0827:32VNZTT0A8B9FMNCMC5LSUB5SRG4RF", "current_trial": 43, "dateTime": 1512764091043, "trialdata": {"rt": [], "responses": [], "num1": [1], "num2": [9], "num3": [8], "type": "DISTRACTOR", "conditions": [18, 1200, "a", 18000], "trial": 1, "trial_type": "math-distractor", "trial_index": 43, "time_elapsed": 352278, "internal_node_id": "0.0-34.0"}}, {"uniqueid": "MTK0827:32VNZTT0A8B9FMNCMC5LSUB5SRG4RF", "current_trial": 44, "dateTime": 1512764094047, "trialdata": {"rt": -1, "stimulus": "<p id=\"stim\">10</p>", "key_press": -1, "trial_type": "single-stim", "trial_index": 44, "time_elapsed": 355282, "internal_node_id": "0.0-35.0-0.0"}}, {"uniqueid": "MTK0827:32VNZTT0A8B9FMNCMC5LSUB5SRG4RF", "current_trial": 45, "dateTime": 1512764095049, "trialdata": {"rt": -1, "stimulus": "<p id=\"stim\">9</p>", "key_press": -1, "trial_type": "single-stim", "trial_index": 45, "time_elapsed": 356284, "internal_node_id": "0.0-35.0-1.0"}}, {"uniqueid": "MTK0827:32VNZTT0A8B9FMNCMC5LSUB5SRG4RF", "current_trial": 46, "dateTime": 1512764096053, "trialdata": {"rt": -1, "stimulus": "<p id=\"stim\">8</p>", "key_press": -1, "trial_type": "single-stim", "trial_index": 46, "time_elapsed": 357287, "internal_node_id": "0.0-35.0-2.0"}}, {"uniqueid": "MTK0827:32VNZTT0A8B9FMNCMC5LSUB5SRG4RF", "current_trial": 47, "dateTime": 1512764097055, "trialdata": {"rt": -1, "stimulus": "<p id=\"stim\">7</p>", "key_press": -1, "trial_type": "single-stim", "trial_index": 47, "time_elapsed": 358290, "internal_node_id": "0.0-35.0-3.0"}}, {"uniqueid": "MTK0827:32VNZTT0A8B9FMNCMC5LSUB5SRG4RF", "current_trial": 48, "dateTime": 1512764098057, "trialdata": {"rt": -1, "stimulus": "<p id=\"stim\">6</p>", "key_press": -1, "trial_type": "single-stim", "trial_index": 48, "time_elapsed": 359292, "internal_node_id": "0.0-35.0-4.0"}}, {"uniqueid": "MTK0827:32VNZTT0A8B9FMNCMC5LSUB5SRG4RF", "current_trial": 49, "dateTime": 1512764099060, "trialdata": {"rt": -1, "stimulus": "<p id=\"stim\">5</p>", "key_press": -1, "trial_type": "single-stim", "trial_index": 49, "time_elapsed": 360295, "internal_node_id": "0.0-35.0-5.0"}}, {"uniqueid": "MTK0827:32VNZTT0A8B9FMNCMC5LSUB5SRG4RF", "current_trial": 50, "dateTime": 1512764100063, "trialdata": {"rt": -1, "stimulus": "<p id=\"stim\">4</p>", "key_press": -1, "trial_type": "single-stim", "trial_index": 50, "time_elapsed": 361298, "internal_node_id": "0.0-35.0-6.0"}}, {"uniqueid": "MTK0827:32VNZTT0A8B9FMNCMC5LSUB5SRG4RF", "current_trial": 51, "dateTime": 1512764101065, "trialdata": {"rt": -1, "stimulus": "<p id=\"stim\">3</p>", "key_press": -1, "trial_type": "single-stim", "trial_index": 51, "time_elapsed": 362300, "internal_node_id": "0.0-35.0-7.0"}}, {"uniqueid": "MTK0827:32VNZTT0A8B9FMNCMC5LSUB5SRG4RF", "current_trial": 52, "dateTime": 1512764102067, "trialdata": {"rt": -1, "stimulus": "<p id=\"stim\">2</p>", "key_press": -1, "trial_type": "single-stim", "trial_index": 52, "time_elapsed": 363302, "internal_node_id": "0.0-35.0-8.0"}}, {"uniqueid": "MTK0827:32VNZTT0A8B9FMNCMC5LSUB5SRG4RF", "current_trial": 53, "dateTime": 1512764103069, "trialdata": {"rt": -1, "stimulus": "<p id=\"stim\">1</p>", "key_press": -1, "trial_type": "single-stim", "trial_index": 53, "time_elapsed": 364304, "internal_node_id": "0.0-35.0-9.0"}}, {"uniqueid": "MTK0827:32VNZTT0A8B9FMNCMC5LSUB5SRG4RF", "current_trial": 54, "dateTime": 1512764104572, "trialdata": {"rt": -1, "stimulus": "<p id=\"stim\">+</p>", "key_press": -1, "type": "FIXATION", "trial_type": "single-stim", "trial_index": 54, "time_elapsed": 365806, "internal_node_id": "0.0-36.0-0.0"}}, {"uniqueid": "MTK0827:32VNZTT0A8B9FMNCMC5LSUB5SRG4RF", "current_trial": 55, "dateTime": 1512764106956, "trialdata": {"rt": -1000, "stimulus": "/static/audio/wordpool/THREAD.wav", "key_press": -1, "type": "PRES_AUD", "word": "thread", "wordID": 1459, "conditions": [18, 1200, "a", 18000], "trial": 1, "serialpos": 0, "trial_type": "single-audio", "trial_index": 55, "time_elapsed": 368189, "internal_node_id": "0.0-37.0"}}, {"uniqueid": "MTK0827:32VNZTT0A8B9FMNCMC5LSUB5SRG4RF", "current_trial": 56, "dateTime": 1512764109190, "trialdata": {"rt": -1000, "stimulus": "/static/audio/wordpool/TRENCH.wav", "key_press": -1, "type": "PRES_AUD", "word": "trench", "wordID": 1502, "conditions": [18, 1200, "a", 18000], "trial": 1, "serialpos": 1, "trial_type": "single-audio", "trial_index": 56, "time_elapsed": 370425, "internal_node_id": "0.0-38.0"}}, {"uniqueid": "MTK0827:32VNZTT0A8B9FMNCMC5LSUB5SRG4RF", "current_trial": 57, "dateTime": 1512764111224, "trialdata": {"rt": -1000, "stimulus": "/static/audio/wordpool/TOMBSTONE.wav", "key_press": -1, "type": "PRES_AUD", "word": "tombstone", "wordID": 1477, "conditions": [18, 1200, "a", 18000], "trial": 1, "serialpos": 2, "trial_type": "single-audio", "trial_index": 57, "time_elapsed": 372459, "internal_node_id": "0.0-39.0"}}, {"uniqueid": "MTK0827:32VNZTT0A8B9FMNCMC5LSUB5SRG4RF", "current_trial": 58, "dateTime": 1512764113258, "trialdata": {"rt": -1000, "stimulus": "/static/audio/wordpool/CURTAIN.wav", "key_press": -1, "type": "PRES_AUD", "word": "curtain", "wordID": 426, "conditions": [18, 1200, "a", 18000], "trial": 1, "serialpos": 3, "trial_type": "single-audio", "trial_index": 58, "time_elapsed": 374492, "internal_node_id": "0.0-40.0"}}, {"uniqueid": "MTK0827:32VNZTT0A8B9FMNCMC5LSUB5SRG4RF", "current_trial": 59, "dateTime": 1512764115309, "trialdata": {"rt": -1000, "stimulus": "/static/audio/wordpool/LAVA.wav", "key_press": -1, "type": "PRES_AUD", "word": "lava", "wordID": 803, "conditions": [18, 1200, "a", 18000], "trial": 1, "serialpos": 4, "trial_type": "single-audio", "trial_index": 59, "time_elapsed": 376544, "internal_node_id": "0.0-41.0"}}, {"uniqueid": "MTK0827:32VNZTT0A8B9FMNCMC5LSUB5SRG4RF", "current_trial": 60, "dateTime": 1512764117555, "trialdata": {"rt": -1000, "stimulus": "/static/audio/wordpool/PIGMENT.wav", "key_press": -1, "type": "PRES_AUD", "word": "pigment", "wordID": 1065, "conditions": [18, 1200, "a", 18000], "trial": 1, "serialpos": 5, "trial_type": "single-audio", "trial_index": 60, "time_elapsed": 378789, "internal_node_id": "0.0-42.0"}}, {"uniqueid": "MTK0827:32VNZTT0A8B9FMNCMC5LSUB5SRG4RF", "current_trial": 61, "dateTime": 1512764119660, "trialdata": {"rt": -1000, "stimulus": "/static/audio/wordpool/ICEBERG.wav", "key_press": -1, "type": "PRES_AUD", "word": "iceberg", "wordID": 730, "conditions": [18, 1200, "a", 18000], "trial": 1, "serialpos": 6, "trial_type": "single-audio", "trial_index": 61, "time_elapsed": 380895, "internal_node_id": "0.0-43.0"}}, {"uniqueid": "MTK0827:32VNZTT0A8B9FMNCMC5LSUB5SRG4RF", "current_trial": 62, "dateTime": 1512764121761, "trialdata": {"rt": -1000, "stimulus": "/static/audio/wordpool/PERCH.wav", "key_press": -1, "type": "PRES_AUD", "word": "perch", "wordID": 1047, "conditions": [18, 1200, "a", 18000], "trial": 1, "serialpos": 7, "trial_type": "single-audio", "trial_index": 62, "time_elapsed": 382995, "internal_node_id": "0.0-44.0"}}, {"uniqueid": "MTK0827:32VNZTT0A8B9FMNCMC5LSUB5SRG4RF", "current_trial": 63, "dateTime": 1512764124123, "trialdata": {"rt": -1000, "stimulus": "/static/audio/wordpool/TRUCK.wav", "key_press": -1, "type": "PRES_AUD", "word": "truck", "wordID": 1511, "conditions": [18, 1200, "a", 18000], "trial": 1, "serialpos": 8, "trial_type": "single-audio", "trial_index": 63, "time_elapsed": 385357, "internal_node_id": "0.0-45.0"}}, {"uniqueid": "MTK0827:32VNZTT0A8B9FMNCMC5LSUB5SRG4RF", "current_trial": 64, "dateTime": 1512764126185, "trialdata": {"rt": -1000, "stimulus": "/static/audio/wordpool/KEEPER.wav", "key_press": -1, "type": "PRES_AUD", "word": "keeper", "wordID": 768, "conditions": [18, 1200, "a", 18000], "trial": 1, "serialpos": 9, "trial_type": "single-audio", "trial_index": 64, "time_elapsed": 387420, "internal_node_id": "0.0-46.0"}}, {"uniqueid": "MTK0827:32VNZTT0A8B9FMNCMC5LSUB5SRG4RF", "current_trial": 65, "dateTime": 1512764128579, "trialdata": {"rt": -1000, "stimulus": "/static/audio/wordpool/DINER.wav", "key_press": -1, "type": "PRES_AUD", "word": "diner", "wordID": 466, "conditions": [18, 1200, "a", 18000], "trial": 1, "serialpos": 10, "trial_type": "single-audio", "trial_index": 65, "time_elapsed": 389813, "internal_node_id": "0.0-47.0"}}, {"uniqueid": "MTK0827:32VNZTT0A8B9FMNCMC5LSUB5SRG4RF", "current_trial": 66, "dateTime": 1512764130862, "trialdata": {"rt": -1000, "stimulus": "/static/audio/wordpool/ZIPPER.wav", "key_press": -1, "type": "PRES_AUD", "word": "zipper", "wordID": 1635, "conditions": [18, 1200, "a", 18000], "trial": 1, "serialpos": 11, "trial_type": "single-audio", "trial_index": 66, "time_elapsed": 392097, "internal_node_id": "0.0-48.0"}}, {"uniqueid": "MTK0827:32VNZTT0A8B9FMNCMC5LSUB5SRG4RF", "current_trial": 67, "dateTime": 1512764132965, "trialdata": {"rt": -1000, "stimulus": "/static/audio/wordpool/PATIENT.wav", "key_press": -1, "type": "PRES_AUD", "word": "patient", "wordID": 1023, "conditions": [18, 1200, "a", 18000], "trial": 1, "serialpos": 12, "trial_type": "single-audio", "trial_index": 67, "time_elapsed": 394200, "internal_node_id": "0.0-49.0"}}, {"uniqueid": "MTK0827:32VNZTT0A8B9FMNCMC5LSUB5SRG4RF", "current_trial": 68, "dateTime": 1512764135191, "trialdata": {"rt": -1000, "stimulus": "/static/audio/wordpool/COBRA.wav", "key_press": -1, "type": "PRES_AUD", "word": "cobra", "wordID": 335, "conditions": [18, 1200, "a", 18000], "trial": 1, "serialpos": 13, "trial_type": "single-audio", "trial_index": 68, "time_elapsed": 396426, "internal_node_id": "0.0-50.0"}}, {"uniqueid": "MTK0827:32VNZTT0A8B9FMNCMC5LSUB5SRG4RF", "current_trial": 69, "dateTime": 1512764137323, "trialdata": {"rt": -1000, "stimulus": "/static/audio/wordpool/LIVER.wav", "key_press": -1, "type": "PRES_AUD", "word": "liver", "wordID": 832, "conditions": [18, 1200, "a", 18000], "trial": 1, "serialpos": 14, "trial_type": "single-audio", "trial_index": 69, "time_elapsed": 398558, "internal_node_id": "0.0-51.0"}}, {"uniqueid": "MTK0827:32VNZTT0A8B9FMNCMC5LSUB5SRG4RF", "current_trial": 70, "dateTime": 1512764139547, "trialdata": {"rt": -1000, "stimulus": "/static/audio/wordpool/GROUND.wav", "key_press": -1, "type": "PRES_AUD", "word": "ground", "wordID": 665, "conditions": [18, 1200, "a", 18000], "trial": 1, "serialpos": 15, "trial_type": "single-audio", "trial_index": 70, "time_elapsed": 400782, "internal_node_id": "0.0-52.0"}}, {"uniqueid": "MTK0827:32VNZTT0A8B9FMNCMC5LSUB5SRG4RF", "current_trial": 71, "dateTime": 1512764141782, "trialdata": {"rt": -1000, "stimulus": "/static/audio/wordpool/SHERIFF.wav", "key_press": -1, "type": "PRES_AUD", "word": "sheriff", "wordID": 1283, "conditions": [18, 1200, "a", 18000], "trial": 1, "serialpos": 16, "trial_type": "single-audio", "trial_index": 71, "time_elapsed": 403016, "internal_node_id": "0.0-53.0"}}, {"uniqueid": "MTK0827:32VNZTT0A8B9FMNCMC5LSUB5SRG4RF", "current_trial": 72, "dateTime": 1512764144121, "trialdata": {"rt": -1000, "stimulus": "/static/audio/wordpool/CYCLONE.wav", "key_press": -1, "type": "PRES_AUD", "word": "cyclone", "wordID": 430, "conditions": [18, 1200, "a", 18000], "trial": 1, "serialpos": 17, "trial_type": "single-audio", "trial_index": 72, "time_elapsed": 405356, "internal_node_id": "0.0-54.0"}}, {"uniqueid": "MTK0827:32VNZTT0A8B9FMNCMC5LSUB5SRG4RF", "current_trial": 73, "dateTime": 1512764145384, "trialdata": {"rt": -1, "stimulus": "", "key_press": -1, "type": "PRE_RECALL_DELAY", "trial_type": "single-stim", "trial_index": 73, "time_elapsed": 406619, "internal_node_id": "0.0-55.0-0.0"}}, {"uniqueid": "MTK0827:32VNZTT0A8B9FMNCMC5LSUB5SRG4RF", "current_trial": 74, "dateTime": 1512764145887, "trialdata": {"rt": -1000, "stimulus": "/static/audio/400Hz.wav", "key_press": -1, "type": "PRE_RECALL_ALERT", "trial_type": "single-audio", "trial_index": 74, "time_elapsed": 407121, "internal_node_id": "0.0-56.0"}}, {"uniqueid": "MTK0827:32VNZTT0A8B9FMNCMC5LSUB5SRG4RF", "current_trial": 75, "dateTime": 1512764205901, "trialdata": {"rt": [2559, 4160, 6456, 8567, 11056, 12648, 15048, 16768, 19920, 23424, 26271, 27736], "recwords": ["cyclone", "sheriff", "liver", "patient", "diner", "keeper", "pigment", "curtain", "iceberg", "trench", "tombstone", "lava"], "type": "FREE_RECALL", "conditions": [18, 1200, "a", 18000], "trial": 1, "trial_type": "free-recall", "trial_index": 75, "time_elapsed": 467130, "internal_node_id": "0.0-57.0-0.0"}}, {"uniqueid": "MTK0827:32VNZTT0A8B9FMNCMC5LSUB5SRG4RF", "current_trial": 76, "dateTime": 1512764223681, "trialdata": {"rt": 15746, "key_press": 32, "type": "INSTRUCTIONS", "trial_type": "text", "trial_index": 76, "time_elapsed": 484883, "internal_node_id": "0.0-58.0"}}, {"uniqueid": "MTK0827:32VNZTT0A8B9FMNCMC5LSUB5SRG4RF", "current_trial": 77, "dateTime": 1512764236688, "trialdata": {"rt": [], "responses": [], "num1": [4], "num2": [8], "num3": [8], "type": "DISTRACTOR", "conditions": [24, 800, "a", 12000], "trial": 2, "trial_type": "math-distractor", "trial_index": 77, "time_elapsed": 497923, "internal_node_id": "0.0-59.0"}}, {"uniqueid": "MTK0827:32VNZTT0A8B9FMNCMC5LSUB5SRG4RF", "current_trial": 78, "dateTime": 1512764239692, "trialdata": {"rt": -1, "stimulus": "<p id=\"stim\">10</p>", "key_press": -1, "trial_type": "single-stim", "trial_index": 78, "time_elapsed": 500926, "internal_node_id": "0.0-60.0-0.0"}}, {"uniqueid": "MTK0827:32VNZTT0A8B9FMNCMC5LSUB5SRG4RF", "current_trial": 79, "dateTime": 1512764240694, "trialdata": {"rt": -1, "stimulus": "<p id=\"stim\">9</p>", "key_press": -1, "trial_type": "single-stim", "trial_index": 79, "time_elapsed": 501929, "internal_node_id": "0.0-60.0-1.0"}}, {"uniqueid": "MTK0827:32VNZTT0A8B9FMNCMC5LSUB5SRG4RF", "current_trial": 80, "dateTime": 1512764241696, "trialdata": {"rt": -1, "stimulus": "<p id=\"stim\">8</p>", "key_press": -1, "trial_type": "single-stim", "trial_index": 80, "time_elapsed": 502930, "internal_node_id": "0.0-60.0-2.0"}}, {"uniqueid": "MTK0827:32VNZTT0A8B9FMNCMC5LSUB5SRG4RF", "current_trial": 81, "dateTime": 1512764242698, "trialdata": {"rt": -1, "stimulus": "<p id=\"stim\">7</p>", "key_press": -1, "trial_type": "single-stim", "trial_index": 81, "time_elapsed": 503933, "internal_node_id": "0.0-60.0-3.0"}}, {"uniqueid": "MTK0827:32VNZTT0A8B9FMNCMC5LSUB5SRG4RF", "current_trial": 82, "dateTime": 1512764243700, "trialdata": {"rt": -1, "stimulus": "<p id=\"stim\">6</p>", "key_press": -1, "trial_type": "single-stim", "trial_index": 82, "time_elapsed": 504935, "internal_node_id": "0.0-60.0-4.0"}}, {"uniqueid": "MTK0827:32VNZTT0A8B9FMNCMC5LSUB5SRG4RF", "current_trial": 83, "dateTime": 1512764244702, "trialdata": {"rt": -1, "stimulus": "<p id=\"stim\">5</p>", "key_press": -1, "trial_type": "single-stim", "trial_index": 83, "time_elapsed": 505937, "internal_node_id": "0.0-60.0-5.0"}}, {"uniqueid": "MTK0827:32VNZTT0A8B9FMNCMC5LSUB5SRG4RF", "current_trial": 84, "dateTime": 1512764245705, "trialdata": {"rt": -1, "stimulus": "<p id=\"stim\">4</p>", "key_press": -1, "trial_type": "single-stim", "trial_index": 84, "time_elapsed": 506939, "internal_node_id": "0.0-60.0-6.0"}}, {"uniqueid": "MTK0827:32VNZTT0A8B9FMNCMC5LSUB5SRG4RF", "current_trial": 85, "dateTime": 1512764246707, "trialdata": {"rt": -1, "stimulus": "<p id=\"stim\">3</p>", "key_press": -1, "trial_type": "single-stim", "trial_index": 85, "time_elapsed": 507942, "internal_node_id": "0.0-60.0-7.0"}}, {"uniqueid": "MTK0827:32VNZTT0A8B9FMNCMC5LSUB5SRG4RF", "current_trial": 86, "dateTime": 1512764247709, "trialdata": {"rt": -1, "stimulus": "<p id=\"stim\">2</p>", "key_press": -1, "trial_type": "single-stim", "trial_index": 86, "time_elapsed": 508944, "internal_node_id": "0.0-60.0-8.0"}}, {"uniqueid": "MTK0827:32VNZTT0A8B9FMNCMC5LSUB5SRG4RF", "current_trial": 87, "dateTime": 1512764248712, "trialdata": {"rt": -1, "stimulus": "<p id=\"stim\">1</p>", "key_press": -1, "trial_type": "single-stim", "trial_index": 87, "time_elapsed": 509947, "internal_node_id": "0.0-60.0-9.0"}}, {"uniqueid": "MTK0827:32VNZTT0A8B9FMNCMC5LSUB5SRG4RF", "current_trial": 88, "dateTime": 1512764250215, "trialdata": {"rt": -1, "stimulus": "<p id=\"stim\">+</p>", "key_press": -1, "type": "FIXATION", "trial_type": "single-stim", "trial_index": 88, "time_elapsed": 511449, "internal_node_id": "0.0-61.0-0.0"}}, {"uniqueid": "MTK0827:32VNZTT0A8B9FMNCMC5LSUB5SRG4RF", "current_trial": 89, "dateTime": 1512764251849, "trialdata": {"rt": -1000, "stimulus": "/static/audio/wordpool/LOVER.wav", "key_press": -1, "type": "PRES_AUD", "word": "lover", "wordID": 845, "conditions": [24, 800, "a", 12000], "trial": 2, "serialpos": 0, "trial_type": "single-audio", "trial_index": 89, "time_elapsed": 513083, "internal_node_id": "0.0-62.0"}}, {"uniqueid": "MTK0827:32VNZTT0A8B9FMNCMC5LSUB5SRG4RF", "current_trial": 90, "dateTime": 1512764253462, "trialdata": {"rt": -1000, "stimulus": "/static/audio/wordpool/TROMBONE.wav", "key_press": -1, "type": "PRES_AUD", "word": "trombone", "wordID": 1507, "conditions": [24, 800, "a", 12000], "trial": 2, "serialpos": 1, "trial_type": "single-audio", "trial_index": 90, "time_elapsed": 514696, "internal_node_id": "0.0-63.0"}}, {"uniqueid": "MTK0827:32VNZTT0A8B9FMNCMC5LSUB5SRG4RF", "current_trial": 91, "dateTime": 1512764255181, "trialdata": {"rt": -1000, "stimulus": "/static/audio/wordpool/PLAYGROUND.wav", "key_press": -1, "type": "PRES_AUD", "word": "playground", "wordID": 1086, "conditions": [24, 800, "a", 12000], "trial": 2, "serialpos": 2, "trial_type": "single-audio", "trial_index": 91, "time_elapsed": 516416, "internal_node_id": "0.0-64.0"}}, {"uniqueid": "MTK0827:32VNZTT0A8B9FMNCMC5LSUB5SRG4RF", "current_trial": 92, "dateTime": 1512764256989, "trialdata": {"rt": -1000, "stimulus": "/static/audio/wordpool/GARDEN.wav", "key_press": -1, "type": "PRES_AUD", "word": "garden", "wordID": 622, "conditions": [24, 800, "a", 12000], "trial": 2, "serialpos": 3, "trial_type": "single-audio", "trial_index": 92, "time_elapsed": 518224, "internal_node_id": "0.0-65.0"}}, {"uniqueid": "MTK0827:32VNZTT0A8B9FMNCMC5LSUB5SRG4RF", "current_trial": 93, "dateTime": 1512764258608, "trialdata": {"rt": -1000, "stimulus": "/static/audio/wordpool/SCARECROW.wav", "key_press": -1, "type": "PRES_AUD", "word": "scarecrow", "wordID": 1244, "conditions": [24, 800, "a", 12000], "trial": 2, "serialpos": 4, "trial_type": "single-audio", "trial_index": 93, "time_elapsed": 519843, "internal_node_id": "0.0-66.0"}}, {"uniqueid": "MTK0827:32VNZTT0A8B9FMNCMC5LSUB5SRG4RF", "current_trial": 94, "dateTime": 1512764260358, "trialdata": {"rt": -1000, "stimulus": "/static/audio/wordpool/SHIRT.wav", "key_press": -1, "type": "PRES_AUD", "word": "shirt", "wordID": 1286, "conditions": [24, 800, "a", 12000], "trial": 2, "serialpos": 5, "trial_type": "single-audio", "trial_index": 94, "time_elapsed": 521593, "internal_node_id": "0.0-67.0"}}, {"uniqueid": "MTK0827:32VNZTT0A8B9FMNCMC5LSUB5SRG4RF", "current_trial": 95, "dateTime": 1512764262280, "trialdata": {"rt": -1000, "stimulus": "/static/audio/wordpool/ORCHID.wav", "key_press": -1, "type": "PRES_AUD", "word": "orchid", "wordID": 981, "conditions": [24, 800, "a", 12000], "trial": 2, "serialpos": 6, "trial_type": "single-audio", "trial_index": 95, "time_elapsed": 523515, "internal_node_id": "0.0-68.0"}}, {"uniqueid": "MTK0827:32VNZTT0A8B9FMNCMC5LSUB5SRG4RF", "current_trial": 96, "dateTime": 1512764263904, "trialdata": {"rt": -1000, "stimulus": "/static/audio/wordpool/CARROT.wav", "key_press": -1, "type": "PRES_AUD", "word": "carrot", "wordID": 248, "conditions": [24, 800, "a", 12000], "trial": 2, "serialpos": 7, "trial_type": "single-audio", "trial_index": 96, "time_elapsed": 525139, "internal_node_id": "0.0-69.0"}}, {"uniqueid": "MTK0827:32VNZTT0A8B9FMNCMC5LSUB5SRG4RF", "current_trial": 97, "dateTime": 1512764265681, "trialdata": {"rt": -1000, "stimulus": "/static/audio/wordpool/RIFLE.wav", "key_press": -1, "type": "PRES_AUD", "word": "rifle", "wordID": 1191, "conditions": [24, 800, "a", 12000], "trial": 2, "serialpos": 8, "trial_type": "single-audio", "trial_index": 97, "time_elapsed": 526915, "internal_node_id": "0.0-70.0"}}, {"uniqueid": "MTK0827:32VNZTT0A8B9FMNCMC5LSUB5SRG4RF", "current_trial": 98, "dateTime": 1512764267464, "trialdata": {"rt": -1000, "stimulus": "/static/audio/wordpool/BEAST.wav", "key_press": -1, "type": "PRES_AUD", "word": "beast", "wordID": 107, "conditions": [24, 800, "a", 12000], "trial": 2, "serialpos": 9, "trial_type": "single-audio", "trial_index": 98, "time_elapsed": 528698, "internal_node_id": "0.0-71.0"}}, {"uniqueid": "MTK0827:32VNZTT0A8B9FMNCMC5LSUB5SRG4RF", "current_trial": 99, "dateTime": 1512764269261, "trialdata": {"rt": -1000, "stimulus": "/static/audio/wordpool/CHEST.wav", "key_press": -1, "type": "PRES_AUD", "word": "chest", "wordID": 294, "conditions": [24, 800, "a", 12000], "trial": 2, "serialpos": 10, "trial_type": "single-audio", "trial_index": 99, "time_elapsed": 530496, "internal_node_id": "0.0-72.0"}}, {"uniqueid": "MTK0827:32VNZTT0A8B9FMNCMC5LSUB5SRG4RF", "current_trial": 100, "dateTime": 1512764271032, "trialdata": {"rt": -1000, "stimulus": "/static/audio/wordpool/FOREHEAD.wav", "key_press": -1, "type": "PRES_AUD", "word": "forehead", "wordID": 591, "conditions": [24, 800, "a", 12000], "trial": 2, "serialpos": 11, "trial_type": "single-audio", "trial_index": 100, "time_elapsed": 532266, "internal_node_id": "0.0-73.0"}}, {"uniqueid": "MTK0827:32VNZTT0A8B9FMNCMC5LSUB5SRG4RF", "current_trial": 101, "dateTime": 1512764272694, "trialdata": {"rt": -1000, "stimulus": "/static/audio/wordpool/STAPLE.wav", "key_press": -1, "type": "PRES_AUD", "word": "staple", "wordID": 1370, "conditions": [24, 800, "a", 12000], "trial": 2, "serialpos": 12, "trial_type": "single-audio", "trial_index": 101, "time_elapsed": 533929, "internal_node_id": "0.0-74.0"}}, {"uniqueid": "MTK0827:32VNZTT0A8B9FMNCMC5LSUB5SRG4RF", "current_trial": 102, "dateTime": 1512764274355, "trialdata": {"rt": -1000, "stimulus": "/static/audio/wordpool/WIDOW.wav", "key_press": -1, "type": "PRES_AUD", "word": "widow", "wordID": 1607, "conditions": [24, 800, "a", 12000], "trial": 2, "serialpos": 13, "trial_type": "single-audio", "trial_index": 102, "time_elapsed": 535589, "internal_node_id": "0.0-75.0"}}, {"uniqueid": "MTK0827:32VNZTT0A8B9FMNCMC5LSUB5SRG4RF", "current_trial": 103, "dateTime": 1512764276025, "trialdata": {"rt": -1000, "stimulus": "/static/audio/wordpool/DUSTPAN.wav", "key_press": -1, "type": "PRES_AUD", "word": "dustpan", "wordID": 508, "conditions": [24, 800, "a", 12000], "trial": 2, "serialpos": 14, "trial_type": "single-audio", "trial_index": 103, "time_elapsed": 537259, "internal_node_id": "0.0-76.0"}}, {"uniqueid": "MTK0827:32VNZTT0A8B9FMNCMC5LSUB5SRG4RF", "current_trial": 104, "dateTime": 1512764277761, "trialdata": {"rt": -1000, "stimulus": "/static/audio/wordpool/WASHER.wav", "key_press": -1, "type": "PRES_AUD", "word": "washer", "wordID": 1591, "conditions": [24, 800, "a", 12000], "trial": 2, "serialpos": 15, "trial_type": "single-audio", "trial_index": 104, "time_elapsed": 538995, "internal_node_id": "0.0-77.0"}}, {"uniqueid": "MTK0827:32VNZTT0A8B9FMNCMC5LSUB5SRG4RF", "current_trial": 105, "dateTime": 1512764279505, "trialdata": {"rt": -1000, "stimulus": "/static/audio/wordpool/DUST.wav", "key_press": -1, "type": "PRES_AUD", "word": "dust", "wordID": 507, "conditions": [24, 800, "a", 12000], "trial": 2, "serialpos": 16, "trial_type": "single-audio", "trial_index": 105, "time_elapsed": 540740, "internal_node_id": "0.0-78.0"}}, {"uniqueid": "MTK0827:32VNZTT0A8B9FMNCMC5LSUB5SRG4RF", "current_trial": 106, "dateTime": 1512764281433, "trialdata": {"rt": -1000, "stimulus": "/static/audio/wordpool/WIFE.wav", "key_press": -1, "type": "PRES_AUD", "word": "wife", "wordID": 1608, "conditions": [24, 800, "a", 12000], "trial": 2, "serialpos": 17, "trial_type": "single-audio", "trial_index": 106, "time_elapsed": 542667, "internal_node_id": "0.0-79.0"}}, {"uniqueid": "MTK0827:32VNZTT0A8B9FMNCMC5LSUB5SRG4RF", "current_trial": 107, "dateTime": 1512764283424, "trialdata": {"rt": -1000, "stimulus": "/static/audio/wordpool/LACE.wav", "key_press": -1, "type": "PRES_AUD", "word": "lace", "wordID": 791, "conditions": [24, 800, "a", 12000], "trial": 2, "serialpos": 18, "trial_type": "single-audio", "trial_index": 107, "time_elapsed": 544658, "internal_node_id": "0.0-80.0"}}, {"uniqueid": "MTK0827:32VNZTT0A8B9FMNCMC5LSUB5SRG4RF", "current_trial": 108, "dateTime": 1512764285168, "trialdata": {"rt": -1000, "stimulus": "/static/audio/wordpool/VELVET.wav", "key_press": -1, "type": "PRES_AUD", "word": "velvet", "wordID": 1554, "conditions": [24, 800, "a", 12000], "trial": 2, "serialpos": 19, "trial_type": "single-audio", "trial_index": 108, "time_elapsed": 546402, "internal_node_id": "0.0-81.0"}}, {"uniqueid": "MTK0827:32VNZTT0A8B9FMNCMC5LSUB5SRG4RF", "current_trial": 109, "dateTime": 1512764286920, "trialdata": {"rt": -1000, "stimulus": "/static/audio/wordpool/SAUSAGE.wav", "key_press": -1, "type": "PRES_AUD", "word": "sausage", "wordID": 1237, "conditions": [24, 800, "a", 12000], "trial": 2, "serialpos": 20, "trial_type": "single-audio", "trial_index": 109, "time_elapsed": 548155, "internal_node_id": "0.0-82.0"}}, {"uniqueid": "MTK0827:32VNZTT0A8B9FMNCMC5LSUB5SRG4RF", "current_trial": 110, "dateTime": 1512764288714, "trialdata": {"rt": -1000, "stimulus": "/static/audio/wordpool/MARSH.wav", "key_press": -1, "type": "PRES_AUD", "word": "marsh", "wordID": 873, "conditions": [24, 800, "a", 12000], "trial": 2, "serialpos": 21, "trial_type": "single-audio", "trial_index": 110, "time_elapsed": 549949, "internal_node_id": "0.0-83.0"}}, {"uniqueid": "MTK0827:32VNZTT0A8B9FMNCMC5LSUB5SRG4RF", "current_trial": 111, "dateTime": 1512764290646, "trialdata": {"rt": -1000, "stimulus": "/static/audio/wordpool/BLOCKADE.wav", "key_press": -1, "type": "PRES_AUD", "word": "blockade", "wordID": 136, "conditions": [24, 800, "a", 12000], "trial": 2, "serialpos": 22, "trial_type": "single-audio", "trial_index": 111, "time_elapsed": 551880, "internal_node_id": "0.0-84.0"}}, {"uniqueid": "MTK0827:32VNZTT0A8B9FMNCMC5LSUB5SRG4RF", "current_trial": 112, "dateTime": 1512764292486, "trialdata": {"rt": -1000, "stimulus": "/static/audio/wordpool/SPOOL.wav", "key_press": -1, "type": "PRES_AUD", "word": "spool", "wordID": 1355, "conditions": [24, 800, "a", 12000], "trial": 2, "serialpos": 23, "trial_type": "single-audio", "trial_index": 112, "time_elapsed": 553721, "internal_node_id": "0.0-85.0"}}, {"uniqueid": "MTK0827:32VNZTT0A8B9FMNCMC5LSUB5SRG4RF", "current_trial": 113, "dateTime": 1512764293860, "trialdata": {"rt": -1, "stimulus": "", "key_press": -1, "type": "PRE_RECALL_DELAY", "trial_type": "single-stim", "trial_index": 113, "time_elapsed": 555094, "internal_node_id": "0.0-86.0-0.0"}}, {"uniqueid": "MTK0827:32VNZTT0A8B9FMNCMC5LSUB5SRG4RF", "current_trial": 114, "dateTime": 1512764294363, "trialdata": {"rt": -1000, "stimulus": "/static/audio/400Hz.wav", "key_press": -1, "type": "PRE_RECALL_ALERT", "trial_type": "single-audio", "trial_index": 114, "time_elapsed": 555597, "internal_node_id": "0.0-87.0"}}, {"uniqueid": "MTK0827:32VNZTT0A8B9FMNCMC5LSUB5SRG4RF", "current_trial": 115, "dateTime": 1512764354380, "trialdata": {"rt": [3762, 7867, 10475, 12874, 13923, 15643, 17858, 19139, 20825, 22723, 24609, 26754, 30331, 33315, 35980, 37075], "recwords": ["spool", "blockade", "velvet", "lace", "wife", "washer", "dustpan", "dust", "staple", "widow", "orchid", "shirt", "chest", "forehead", "rifle", "carrot"], "type": "FREE_RECALL", "conditions": [24, 800, "a", 12000], "trial": 2, "trial_type": "free-recall", "trial_index": 115, "time_elapsed": 615605, "internal_node_id": "0.0-88.0-0.0"}}, {"uniqueid": "MTK0827:32VNZTT0A8B9FMNCMC5LSUB5SRG4RF", "current_trial": 116, "dateTime": 1512764357114, "trialdata": {"rt": 731, "key_press": 32, "type": "INSTRUCTIONS", "trial_type": "text", "trial_index": 116, "time_elapsed": 618348, "internal_node_id": "0.0-89.0"}}, {"uniqueid": "MTK0827:32VNZTT0A8B9FMNCMC5LSUB5SRG4RF", "current_trial": 117, "dateTime": 1512764383120, "trialdata": {"rt": [], "responses": [], "num1": [2], "num2": [2], "num3": [8], "type": "DISTRACTOR", "conditions": [24, 1600, "v", 24000], "trial": 3, "trial_type": "math-distractor", "trial_index": 117, "time_elapsed": 644355, "internal_node_id": "0.0-90.0"}}, {"uniqueid": "MTK0827:32VNZTT0A8B9FMNCMC5LSUB5SRG4RF", "current_trial": 118, "dateTime": 1512764386124, "trialdata": {"rt": -1, "stimulus": "<p id=\"stim\">10</p>", "key_press": -1, "trial_type": "single-stim", "trial_index": 118, "time_elapsed": 647358, "internal_node_id": "0.0-91.0-0.0"}}, {"uniqueid": "MTK0827:32VNZTT0A8B9FMNCMC5LSUB5SRG4RF", "current_trial": 119, "dateTime": 1512764387126, "trialdata": {"rt": -1, "stimulus": "<p id=\"stim\">9</p>", "key_press": -1, "trial_type": "single-stim", "trial_index": 119, "time_elapsed": 648361, "internal_node_id": "0.0-91.0-1.0"}}, {"uniqueid": "MTK0827:32VNZTT0A8B9FMNCMC5LSUB5SRG4RF", "current_trial": 120, "dateTime": 1512764388128, "trialdata": {"rt": -1, "stimulus": "<p id=\"stim\">8</p>", "key_press": -1, "trial_type": "single-stim", "trial_index": 120, "time_elapsed": 649363, "internal_node_id": "0.0-91.0-2.0"}}, {"uniqueid": "MTK0827:32VNZTT0A8B9FMNCMC5LSUB5SRG4RF", "current_trial": 121, "dateTime": 1512764389131, "trialdata": {"rt": -1, "stimulus": "<p id=\"stim\">7</p>", "key_press": -1, "trial_type": "single-stim", "trial_index": 121, "time_elapsed": 650365, "internal_node_id": "0.0-91.0-3.0"}}, {"uniqueid": "MTK0827:32VNZTT0A8B9FMNCMC5LSUB5SRG4RF", "current_trial": 122, "dateTime": 1512764390132, "trialdata": {"rt": -1, "stimulus": "<p id=\"stim\">6</p>", "key_press": -1, "trial_type": "single-stim", "trial_index": 122, "time_elapsed": 651367, "internal_node_id": "0.0-91.0-4.0"}}, {"uniqueid": "MTK0827:32VNZTT0A8B9FMNCMC5LSUB5SRG4RF", "current_trial": 123, "dateTime": 1512764391134, "trialdata": {"rt": -1, "stimulus": "<p id=\"stim\">5</p>", "key_press": -1, "trial_type": "single-stim", "trial_index": 123, "time_elapsed": 652369, "internal_node_id": "0.0-91.0-5.0"}}, {"uniqueid": "MTK0827:32VNZTT0A8B9FMNCMC5LSUB5SRG4RF", "current_trial": 124, "dateTime": 1512764392137, "trialdata": {"rt": -1, "stimulus": "<p id=\"stim\">4</p>", "key_press": -1, "trial_type": "single-stim", "trial_index": 124, "time_elapsed": 653371, "internal_node_id": "0.0-91.0-6.0"}}, {"uniqueid": "MTK0827:32VNZTT0A8B9FMNCMC5LSUB5SRG4RF", "current_trial": 125, "dateTime": 1512764393139, "trialdata": {"rt": -1, "stimulus": "<p id=\"stim\">3</p>", "key_press": -1, "trial_type": "single-stim", "trial_index": 125, "time_elapsed": 654374, "internal_node_id": "0.0-91.0-7.0"}}, {"uniqueid": "MTK0827:32VNZTT0A8B9FMNCMC5LSUB5SRG4RF", "current_trial": 126, "dateTime": 1512764394142, "trialdata": {"rt": -1, "stimulus": "<p id=\"stim\">2</p>", "key_press": -1, "trial_type": "single-stim", "trial_index": 126, "time_elapsed": 655376, "internal_node_id": "0.0-91.0-8.0"}}, {"uniqueid": "MTK0827:32VNZTT0A8B9FMNCMC5LSUB5SRG4RF", "current_trial": 127, "dateTime": 1512764395144, "trialdata": {"rt": -1, "stimulus": "<p id=\"stim\">1</p>", "key_press": -1, "trial_type": "single-stim", "trial_index": 127, "time_elapsed": 656378, "internal_node_id": "0.0-91.0-9.0"}}, {"uniqueid": "MTK0827:32VNZTT0A8B9FMNCMC5LSUB5SRG4RF", "current_trial": 128, "dateTime": 1512764396646, "trialdata": {"rt": -1, "stimulus": "<p id=\"stim\">+</p>", "key_press": -1, "type": "FIXATION", "trial_type": "single-stim", "trial_index": 128, "time_elapsed": 657881, "internal_node_id": "0.0-92.0-0.0"}}, {"uniqueid": "MTK0827:32VNZTT0A8B9FMNCMC5LSUB5SRG4RF", "current_trial": 129, "dateTime": 1512764398248, "trialdata": {"rt": -1, "stimulus": "<p id=\"stim\">SNAIL</p>", "key_press": -1, "type": "PRES_VIS", "word": "snail", "wordID": 1331, "conditions": [24, 1600, "v", 24000], "trial": 3, "serialpos": 0, "trial_type": "single-stim", "trial_index": 129, "time_elapsed": 659483, "internal_node_id": "0.0-93.0"}}, {"uniqueid": "MTK0827:32VNZTT0A8B9FMNCMC5LSUB5SRG4RF", "current_trial": 130, "dateTime": 1512764400748, "trialdata": {"rt": -1, "stimulus": "<p id=\"stim\">NOTEBOOK</p>", "key_press": -1, "type": "PRES_VIS", "word": "notebook", "wordID": 958, "conditions": [24, 1600, "v", 24000], "trial": 3, "serialpos": 1, "trial_type": "single-stim", "trial_index": 130, "time_elapsed": 661982, "internal_node_id": "0.0-94.0"}}, {"uniqueid": "MTK0827:32VNZTT0A8B9FMNCMC5LSUB5SRG4RF", "current_trial": 131, "dateTime": 1512764403516, "trialdata": {"rt": -1, "stimulus": "<p id=\"stim\">PIANO</p>", "key_press": -1, "type": "PRES_VIS", "word": "piano", "wordID": 1056, "conditions": [24, 1600, "v", 24000], "trial": 3, "serialpos": 2, "trial_type": "single-stim", "trial_index": 131, "time_elapsed": 664749, "internal_node_id": "0.0-95.0"}}, {"uniqueid": "MTK0827:32VNZTT0A8B9FMNCMC5LSUB5SRG4RF", "current_trial": 132, "dateTime": 1512764406113, "trialdata": {"rt": -1, "stimulus": "<p id=\"stim\">HARP</p>", "key_press": -1, "type": "PRES_VIS", "word": "harp", "wordID": 688, "conditions": [24, 1600, "v", 24000], "trial": 3, "serialpos": 3, "trial_type": "single-stim", "trial_index": 132, "time_elapsed": 667348, "internal_node_id": "0.0-96.0"}}, {"uniqueid": "MTK0827:32VNZTT0A8B9FMNCMC5LSUB5SRG4RF", "current_trial": 133, "dateTime": 1512764408782, "trialdata": {"rt": -1, "stimulus": "<p id=\"stim\">JELLY</p>", "key_press": -1, "type": "PRES_VIS", "word": "jelly", "wordID": 754, "conditions": [24, 1600, "v", 24000], "trial": 3, "serialpos": 4, "trial_type": "single-stim", "trial_index": 133, "time_elapsed": 670017, "internal_node_id": "0.0-97.0"}}, {"uniqueid": "MTK0827:32VNZTT0A8B9FMNCMC5LSUB5SRG4RF", "current_trial": 134, "dateTime": 1512764411273, "trialdata": {"rt": -1, "stimulus": "<p id=\"stim\">LUMBER</p>", "key_press": -1, "type": "PRES_VIS", "word": "lumber", "wordID": 847, "conditions": [24, 1600, "v", 24000], "trial": 3, "serialpos": 5, "trial_type": "single-stim", "trial_index": 134, "time_elapsed": 672508, "internal_node_id": "0.0-98.0"}}, {"uniqueid": "MTK0827:32VNZTT0A8B9FMNCMC5LSUB5SRG4RF", "current_trial": 135, "dateTime": 1512764413984, "trialdata": {"rt": -1, "stimulus": "<p id=\"stim\">SPARROW</p>", "key_press": -1, "type": "PRES_VIS", "word": "sparrow", "wordID": 1346, "conditions": [24, 1600, "v", 24000], "trial": 3, "serialpos": 6, "trial_type": "single-stim", "trial_index": 135, "time_elapsed": 675219, "internal_node_id": "0.0-99.0"}}, {"uniqueid": "MTK0827:32VNZTT0A8B9FMNCMC5LSUB5SRG4RF", "current_trial": 136, "dateTime": 1512764416439, "trialdata": {"rt": -1, "stimulus": "<p id=\"stim\">CUSTARD</p>", "key_press": -1, "type": "PRES_VIS", "word": "custard", "wordID": 428, "conditions": [24, 1600, "v", 24000], "trial": 3, "serialpos": 7, "trial_type": "single-stim", "trial_index": 136, "time_elapsed": 677674, "internal_node_id": "0.0-100.0"}}, {"uniqueid": "MTK0827:32VNZTT0A8B9FMNCMC5LSUB5SRG4RF", "current_trial": 137, "dateTime": 1512764419178, "trialdata": {"rt": -1, "stimulus": "<p id=\"stim\">RADISH</p>", "key_press": -1, "type": "PRES_VIS", "word": "radish", "wordID": 1157, "conditions": [24, 1600, "v", 24000], "trial": 3, "serialpos": 8, "trial_type": "single-stim", "trial_index": 137, "time_elapsed": 680412, "internal_node_id": "0.0-101.0"}}, {"uniqueid": "MTK0827:32VNZTT0A8B9FMNCMC5LSUB5SRG4RF", "current_trial": 138, "dateTime": 1512764421933, "trialdata": {"rt": -1, "stimulus": "<p id=\"stim\">SNAKE</p>", "key_press": -1, "type": "PRES_VIS", "word": "snake", "wordID": 1332, "conditions": [24, 1600, "v", 24000], "trial": 3, "serialpos": 9, "trial_type": "single-stim", "trial_index": 138, "time_elapsed": 683168, "internal_node_id": "0.0-102.0"}}, {"uniqueid": "MTK0827:32VNZTT0A8B9FMNCMC5LSUB5SRG4RF", "current_trial": 139, "dateTime": 1512764424569, "trialdata": {"rt": -1, "stimulus": "<p id=\"stim\">VIRUS</p>", "key_press": -1, "type": "PRES_VIS", "word": "virus", "wordID": 1571, "conditions": [24, 1600, "v", 24000], "trial": 3, "serialpos": 10, "trial_type": "single-stim", "trial_index": 139, "time_elapsed": 685803, "internal_node_id": "0.0-103.0"}}, {"uniqueid": "MTK0827:32VNZTT0A8B9FMNCMC5LSUB5SRG4RF", "current_trial": 140, "dateTime": 1512764427013, "trialdata": {"rt": -1, "stimulus": "<p id=\"stim\">MATTRESS</p>", "key_press": -1, "type": "PRES_VIS", "word": "mattress", "wordID": 878, "conditions": [24, 1600, "v", 24000], "trial": 3, "serialpos": 11, "trial_type": "single-stim", "trial_index": 140, "time_elapsed": 688248, "internal_node_id": "0.0-104.0"}}, {"uniqueid": "MTK0827:32VNZTT0A8B9FMNCMC5LSUB5SRG4RF", "current_trial": 141, "dateTime": 1512764429571, "trialdata": {"rt": -1, "stimulus": "<p id=\"stim\">MAPLE</p>", "key_press": -1, "type": "PRES_VIS", "word": "maple", "wordID": 865, "conditions": [24, 1600, "v", 24000], "trial": 3, "serialpos": 12, "trial_type": "single-stim", "trial_index": 141, "time_elapsed": 690805, "internal_node_id": "0.0-105.0"}}, {"uniqueid": "MTK0827:32VNZTT0A8B9FMNCMC5LSUB5SRG4RF", "current_trial": 142, "dateTime": 1512764432056, "trialdata": {"rt": -1, "stimulus": "<p id=\"stim\">FEMALE</p>", "key_press": -1, "type": "PRES_VIS", "word": "female", "wordID": 558, "conditions": [24, 1600, "v", 24000], "trial": 3, "serialpos": 13, "trial_type": "single-stim", "trial_index": 142, "time_elapsed": 693290, "internal_node_id": "0.0-106.0"}}, {"uniqueid": "MTK0827:32VNZTT0A8B9FMNCMC5LSUB5SRG4RF", "current_trial": 143, "dateTime": 1512764434851, "trialdata": {"rt": -1, "stimulus": "<p id=\"stim\">SUNRISE</p>", "key_press": -1, "type": "PRES_VIS", "word": "sunrise", "wordID": 1406, "conditions": [24, 1600, "v", 24000], "trial": 3, "serialpos": 14, "trial_type": "single-stim", "trial_index": 143, "time_elapsed": 696085, "internal_node_id": "0.0-107.0"}}, {"uniqueid": "MTK0827:32VNZTT0A8B9FMNCMC5LSUB5SRG4RF", "current_trial": 144, "dateTime": 1512764437564, "trialdata": {"rt": -1, "stimulus": "<p id=\"stim\">MAILMAN</p>", "key_press": -1, "type": "PRES_VIS", "word": "mailman", "wordID": 857, "conditions": [24, 1600, "v", 24000], "trial": 3, "serialpos": 15, "trial_type": "single-stim", "trial_index": 144, "time_elapsed": 698798, "internal_node_id": "0.0-108.0"}}, {"uniqueid": "MTK0827:32VNZTT0A8B9FMNCMC5LSUB5SRG4RF", "current_trial": 145, "dateTime": 1512764440103, "trialdata": {"rt": -1, "stimulus": "<p id=\"stim\">CRAB</p>", "key_press": -1, "type": "PRES_VIS", "word": "crab", "wordID": 396, "conditions": [24, 1600, "v", 24000], "trial": 3, "serialpos": 16, "trial_type": "single-stim", "trial_index": 145, "time_elapsed": 701338, "internal_node_id": "0.0-109.0"}}, {"uniqueid": "MTK0827:32VNZTT0A8B9FMNCMC5LSUB5SRG4RF", "current_trial": 146, "dateTime": 1512764442567, "trialdata": {"rt": -1, "stimulus": "<p id=\"stim\">WHISKERS</p>", "key_press": -1, "type": "PRES_VIS", "word": "whiskers", "wordID": 1604, "conditions": [24, 1600, "v", 24000], "trial": 3, "serialpos": 17, "trial_type": "single-stim", "trial_index": 146, "time_elapsed": 703802, "internal_node_id": "0.0-110.0"}}, {"uniqueid": "MTK0827:32VNZTT0A8B9FMNCMC5LSUB5SRG4RF", "current_trial": 147, "dateTime": 1512764445198, "trialdata": {"rt": -1, "stimulus": "<p id=\"stim\">CLIMBER</p>", "key_press": -1, "type": "PRES_VIS", "word": "climber", "wordID": 322, "conditions": [24, 1600, "v", 24000], "trial": 3, "serialpos": 18, "trial_type": "single-stim", "trial_index": 147, "time_elapsed": 706432, "internal_node_id": "0.0-111.0"}}, {"uniqueid": "MTK0827:32VNZTT0A8B9FMNCMC5LSUB5SRG4RF", "current_trial": 148, "dateTime": 1512764447769, "trialdata": {"rt": -1, "stimulus": "<p id=\"stim\">HIKER</p>", "key_press": -1, "type": "PRES_VIS", "word": "hiker", "wordID": 707, "conditions": [24, 1600, "v", 24000], "trial": 3, "serialpos": 19, "trial_type": "single-stim", "trial_index": 148, "time_elapsed": 709003, "internal_node_id": "0.0-112.0"}}, {"uniqueid": "MTK0827:32VNZTT0A8B9FMNCMC5LSUB5SRG4RF", "current_trial": 149, "dateTime": 1512764450336, "trialdata": {"rt": -1, "stimulus": "<p id=\"stim\">PADDING</p>", "key_press": -1, "type": "PRES_VIS", "word": "padding", "wordID": 998, "conditions": [24, 1600, "v", 24000], "trial": 3, "serialpos": 20, "trial_type": "single-stim", "trial_index": 149, "time_elapsed": 711570, "internal_node_id": "0.0-113.0"}}, {"uniqueid": "MTK0827:32VNZTT0A8B9FMNCMC5LSUB5SRG4RF", "current_trial": 150, "dateTime": 1512764452808, "trialdata": {"rt": -1, "stimulus": "<p id=\"stim\">ICING</p>", "key_press": -1, "type": "PRES_VIS", "word": "icing", "wordID": 731, "conditions": [24, 1600, "v", 24000], "trial": 3, "serialpos": 21, "trial_type": "single-stim", "trial_index": 150, "time_elapsed": 714042, "internal_node_id": "0.0-114.0"}}, {"uniqueid": "MTK0827:32VNZTT0A8B9FMNCMC5LSUB5SRG4RF", "current_trial": 151, "dateTime": 1512764455372, "trialdata": {"rt": -1, "stimulus": "<p id=\"stim\">MUSTARD</p>", "key_press": -1, "type": "PRES_VIS", "word": "mustard", "wordID": 934, "conditions": [24, 1600, "v", 24000], "trial": 3, "serialpos": 22, "trial_type": "single-stim", "trial_index": 151, "time_elapsed": 716606, "internal_node_id": "0.0-115.0"}}, {"uniqueid": "MTK0827:32VNZTT0A8B9FMNCMC5LSUB5SRG4RF", "current_trial": 152, "dateTime": 1512764457805, "trialdata": {"rt": -1, "stimulus": "<p id=\"stim\">SCALLOP</p>", "key_press": -1, "type": "PRES_VIS", "word": "scallop", "wordID": 1241, "conditions": [24, 1600, "v", 24000], "trial": 3, "serialpos": 23, "trial_type": "single-stim", "trial_index": 152, "time_elapsed": 719040, "internal_node_id": "0.0-116.0"}}, {"uniqueid": "MTK0827:32VNZTT0A8B9FMNCMC5LSUB5SRG4RF", "current_trial": 153, "dateTime": 1512764460147, "trialdata": {"rt": -1, "stimulus": "", "key_press": -1, "type": "PRE_RECALL_DELAY", "trial_type": "single-stim", "trial_index": 153, "time_elapsed": 721381, "internal_node_id": "0.0-117.0-0.0"}}, {"uniqueid": "MTK0827:32VNZTT0A8B9FMNCMC5LSUB5SRG4RF", "current_trial": 154, "dateTime": 1512764460649, "trialdata": {"rt": -1000, "stimulus": "/static/audio/400Hz.wav", "key_press": -1, "type": "PRE_RECALL_ALERT", "trial_type": "single-audio", "trial_index": 154, "time_elapsed": 721884, "internal_node_id": "0.0-118.0"}}, {"uniqueid": "MTK0827:32VNZTT0A8B9FMNCMC5LSUB5SRG4RF", "current_trial": 155, "dateTime": 1512764520664, "trialdata": {"rt": [3052, 4875, 6419, 8403, 14314, 18380, 20779, 23370, 25876, 31316, 34892, 38172, 41164, 43492, 52389], "recwords": ["scallop", "mustard", "padding", "climber", "whiskers", "mailman", "sunrise", "custard", "snake", "notebook", "sparrow", "jelly", "maple", "mattress", "radish"], "type": "FREE_RECALL", "conditions": [24, 1600, "v", 24000], "trial": 3, "trial_type": "free-recall", "trial_index": 155, "time_elapsed": 781891, "internal_node_id": "0.0-119.0-0.0"}}, {"uniqueid": "MTK0827:32VNZTT0A8B9FMNCMC5LSUB5SRG4RF", "current_trial": 156, "dateTime": 1512764534645, "trialdata": {"rt": 11978, "key_press": 32, "type": "INSTRUCTIONS", "trial_type": "text", "trial_index": 156, "time_elapsed": 795880, "internal_node_id": "0.0-120.0"}}, {"uniqueid": "MTK0827:32VNZTT0A8B9FMNCMC5LSUB5SRG4RF", "current_trial": 157, "dateTime": 1512764560653, "trialdata": {"rt": [], "responses": [], "num1": [1], "num2": [1], "num3": [8], "type": "DISTRACTOR", "conditions": [12, 800, "a", 24000], "trial": 4, "trial_type": "math-distractor", "trial_index": 157, "time_elapsed": 821887, "internal_node_id": "0.0-121.0"}}, {"uniqueid": "MTK0827:32VNZTT0A8B9FMNCMC5LSUB5SRG4RF", "current_trial": 158, "dateTime": 1512764563656, "trialdata": {"rt": -1, "stimulus": "<p id=\"stim\">10</p>", "key_press": -1, "trial_type": "single-stim", "trial_index": 158, "time_elapsed": 824891, "internal_node_id": "0.0-122.0-0.0"}}, {"uniqueid": "MTK0827:32VNZTT0A8B9FMNCMC5LSUB5SRG4RF", "current_trial": 159, "dateTime": 1512764564658, "trialdata": {"rt": -1, "stimulus": "<p id=\"stim\">9</p>", "key_press": -1, "trial_type": "single-stim", "trial_index": 159, "time_elapsed": 825893, "internal_node_id": "0.0-122.0-1.0"}}, {"uniqueid": "MTK0827:32VNZTT0A8B9FMNCMC5LSUB5SRG4RF", "current_trial": 160, "dateTime": 1512764565661, "trialdata": {"rt": -1, "stimulus": "<p id=\"stim\">8</p>", "key_press": -1, "trial_type": "single-stim", "trial_index": 160, "time_elapsed": 826895, "internal_node_id": "0.0-122.0-2.0"}}, {"uniqueid": "MTK0827:32VNZTT0A8B9FMNCMC5LSUB5SRG4RF", "current_trial": 161, "dateTime": 1512764566663, "trialdata": {"rt": -1, "stimulus": "<p id=\"stim\">7</p>", "key_press": -1, "trial_type": "single-stim", "trial_index": 161, "time_elapsed": 827898, "internal_node_id": "0.0-122.0-3.0"}}, {"uniqueid": "MTK0827:32VNZTT0A8B9FMNCMC5LSUB5SRG4RF", "current_trial": 162, "dateTime": 1512764567666, "trialdata": {"rt": -1, "stimulus": "<p id=\"stim\">6</p>", "key_press": -1, "trial_type": "single-stim", "trial_index": 162, "time_elapsed": 828900, "internal_node_id": "0.0-122.0-4.0"}}, {"uniqueid": "MTK0827:32VNZTT0A8B9FMNCMC5LSUB5SRG4RF", "current_trial": 163, "dateTime": 1512764568668, "trialdata": {"rt": -1, "stimulus": "<p id=\"stim\">5</p>", "key_press": -1, "trial_type": "single-stim", "trial_index": 163, "time_elapsed": 829903, "internal_node_id": "0.0-122.0-5.0"}}, {"uniqueid": "MTK0827:32VNZTT0A8B9FMNCMC5LSUB5SRG4RF", "current_trial": 164, "dateTime": 1512764569670, "trialdata": {"rt": -1, "stimulus": "<p id=\"stim\">4</p>", "key_press": -1, "trial_type": "single-stim", "trial_index": 164, "time_elapsed": 830905, "internal_node_id": "0.0-122.0-6.0"}}, {"uniqueid": "MTK0827:32VNZTT0A8B9FMNCMC5LSUB5SRG4RF", "current_trial": 165, "dateTime": 1512764570673, "trialdata": {"rt": -1, "stimulus": "<p id=\"stim\">3</p>", "key_press": -1, "trial_type": "single-stim", "trial_index": 165, "time_elapsed": 831907, "internal_node_id": "0.0-122.0-7.0"}}, {"uniqueid": "MTK0827:32VNZTT0A8B9FMNCMC5LSUB5SRG4RF", "current_trial": 166, "dateTime": 1512764571675, "trialdata": {"rt": -1, "stimulus": "<p id=\"stim\">2</p>", "key_press": -1, "trial_type": "single-stim", "trial_index": 166, "time_elapsed": 832910, "internal_node_id": "0.0-122.0-8.0"}}, {"uniqueid": "MTK0827:32VNZTT0A8B9FMNCMC5LSUB5SRG4RF", "current_trial": 167, "dateTime": 1512764572677, "trialdata": {"rt": -1, "stimulus": "<p id=\"stim\">1</p>", "key_press": -1, "trial_type": "single-stim", "trial_index": 167, "time_elapsed": 833912, "internal_node_id": "0.0-122.0-9.0"}}, {"uniqueid": "MTK0827:32VNZTT0A8B9FMNCMC5LSUB5SRG4RF", "current_trial": 168, "dateTime": 1512764574179, "trialdata": {"rt": -1, "stimulus": "<p id=\"stim\">+</p>", "key_press": -1, "type": "FIXATION", "trial_type": "single-stim", "trial_index": 168, "time_elapsed": 835414, "internal_node_id": "0.0-123.0-0.0"}}, {"uniqueid": "MTK0827:32VNZTT0A8B9FMNCMC5LSUB5SRG4RF", "current_trial": 169, "dateTime": 1512764575827, "trialdata": {"rt": -1000, "stimulus": "/static/audio/wordpool/OFFICE.wav", "key_press": -1, "type": "PRES_AUD", "word": "office", "wordID": 971, "conditions": [12, 800, "a", 24000], "trial": 4, "serialpos": 0, "trial_type": "single-audio", "trial_index": 169, "time_elapsed": 837062, "internal_node_id": "0.0-124.0"}}, {"uniqueid": "MTK0827:32VNZTT0A8B9FMNCMC5LSUB5SRG4RF", "current_trial": 170, "dateTime": 1512764577725, "trialdata": {"rt": -1000, "stimulus": "/static/audio/wordpool/FRIEND.wav", "key_press": -1, "type": "PRES_AUD", "word": "friend", "wordID": 605, "conditions": [12, 800, "a", 24000], "trial": 4, "serialpos": 1, "trial_type": "single-audio", "trial_index": 170, "time_elapsed": 838960, "internal_node_id": "0.0-125.0"}}, {"uniqueid": "MTK0827:32VNZTT0A8B9FMNCMC5LSUB5SRG4RF", "current_trial": 171, "dateTime": 1512764579331, "trialdata": {"rt": -1000, "stimulus": "/static/audio/wordpool/DRAGON.wav", "key_press": -1, "type": "PRES_AUD", "word": "dragon", "wordID": 491, "conditions": [12, 800, "a", 24000], "trial": 4, "serialpos": 2, "trial_type": "single-audio", "trial_index": 171, "time_elapsed": 840566, "internal_node_id": "0.0-126.0"}}, {"uniqueid": "MTK0827:32VNZTT0A8B9FMNCMC5LSUB5SRG4RF", "current_trial": 172, "dateTime": 1512764581294, "trialdata": {"rt": -1000, "stimulus": "/static/audio/wordpool/MACHINE.wav", "key_press": -1, "type": "PRES_AUD", "word": "machine", "wordID": 851, "conditions": [12, 800, "a", 24000], "trial": 4, "serialpos": 3, "trial_type": "single-audio", "trial_index": 172, "time_elapsed": 842528, "internal_node_id": "0.0-127.0"}}, {"uniqueid": "MTK0827:32VNZTT0A8B9FMNCMC5LSUB5SRG4RF", "current_trial": 173, "dateTime": 1512764583100, "trialdata": {"rt": -1000, "stimulus": "/static/audio/wordpool/FOOT.wav", "key_press": -1, "type": "PRES_AUD", "word": "foot", "wordID": 589, "conditions": [12, 800, "a", 24000], "trial": 4, "serialpos": 4, "trial_type": "single-audio", "trial_index": 173, "time_elapsed": 844335, "internal_node_id": "0.0-128.0"}}, {"uniqueid": "MTK0827:32VNZTT0A8B9FMNCMC5LSUB5SRG4RF", "current_trial": 174, "dateTime": 1512764584965, "trialdata": {"rt": -1000, "stimulus": "/static/audio/wordpool/ANKLE.wav", "key_press": -1, "type": "PRES_AUD", "word": "ankle", "wordID": 23, "conditions": [12, 800, "a", 24000], "trial": 4, "serialpos": 5, "trial_type": "single-audio", "trial_index": 174, "time_elapsed": 846200, "internal_node_id": "0.0-129.0"}}, {"uniqueid": "MTK0827:32VNZTT0A8B9FMNCMC5LSUB5SRG4RF", "current_trial": 175, "dateTime": 1512764586585, "trialdata": {"rt": -1000, "stimulus": "/static/audio/wordpool/DIVER.wav", "key_press": -1, "type": "PRES_AUD", "word": "diver", "wordID": 475, "conditions": [12, 800, "a", 24000], "trial": 4, "serialpos": 6, "trial_type": "single-audio", "trial_index": 175, "time_elapsed": 847819, "internal_node_id": "0.0-130.0"}}, {"uniqueid": "MTK0827:32VNZTT0A8B9FMNCMC5LSUB5SRG4RF", "current_trial": 176, "dateTime": 1512764588252, "trialdata": {"rt": -1000, "stimulus": "/static/audio/wordpool/GOBLIN.wav", "key_press": -1, "type": "PRES_AUD", "word": "goblin", "wordID": 644, "conditions": [12, 800, "a", 24000], "trial": 4, "serialpos": 7, "trial_type": "single-audio", "trial_index": 176, "time_elapsed": 849486, "internal_node_id": "0.0-131.0"}}, {"uniqueid": "MTK0827:32VNZTT0A8B9FMNCMC5LSUB5SRG4RF", "current_trial": 177, "dateTime": 1512764590053, "trialdata": {"rt": -1000, "stimulus": "/static/audio/wordpool/HUMAN.wav", "key_press": -1, "type": "PRES_AUD", "word": "human", "wordID": 725, "conditions": [12, 800, "a", 24000], "trial": 4, "serialpos": 8, "trial_type": "single-audio", "trial_index": 177, "time_elapsed": 851287, "internal_node_id": "0.0-132.0"}}, {"uniqueid": "MTK0827:32VNZTT0A8B9FMNCMC5LSUB5SRG4RF", "current_trial": 178, "dateTime": 1512764591700, "trialdata": {"rt": -1000, "stimulus": "/static/audio/wordpool/HELMET.wav", "key_press": -1, "type": "PRES_AUD", "word": "helmet", "wordID": 701, "conditions": [12, 800, "a", 24000], "trial": 4, "serialpos": 9, "trial_type": "single-audio", "trial_index": 178, "time_elapsed": 852935, "internal_node_id": "0.0-133.0"}}, {"uniqueid": "MTK0827:32VNZTT0A8B9FMNCMC5LSUB5SRG4RF", "current_trial": 179, "dateTime": 1512764593358, "trialdata": {"rt": -1000, "stimulus": "/static/audio/wordpool/PUPPY.wav", "key_press": -1, "type": "PRES_AUD", "word": "puppy", "wordID": 1143, "conditions": [12, 800, "a", 24000], "trial": 4, "serialpos": 10, "trial_type": "single-audio", "trial_index": 179, "time_elapsed": 854593, "internal_node_id": "0.0-134.0"}}, {"uniqueid": "MTK0827:32VNZTT0A8B9FMNCMC5LSUB5SRG4RF", "current_trial": 180, "dateTime": 1512764595271, "trialdata": {"rt": -1000, "stimulus": "/static/audio/wordpool/BUNNY.wav", "key_press": -1, "type": "PRES_AUD", "word": "bunny", "wordID": 197, "conditions": [12, 800, "a", 24000], "trial": 4, "serialpos": 11, "trial_type": "single-audio", "trial_index": 180, "time_elapsed": 856505, "internal_node_id": "0.0-135.0"}}, {"uniqueid": "MTK0827:32VNZTT0A8B9FMNCMC5LSUB5SRG4RF", "current_trial": 181, "dateTime": 1512764596576, "trialdata": {"rt": -1, "stimulus": "", "key_press": -1, "type": "PRE_RECALL_DELAY", "trial_type": "single-stim", "trial_index": 181, "time_elapsed": 857811, "internal_node_id": "0.0-136.0-0.0"}}, {"uniqueid": "MTK0827:32VNZTT0A8B9FMNCMC5LSUB5SRG4RF", "current_trial": 182, "dateTime": 1512764597079, "trialdata": {"rt": -1000, "stimulus": "/static/audio/400Hz.wav", "key_press": -1, "type": "PRE_RECALL_ALERT", "trial_type": "single-audio", "trial_index": 182, "time_elapsed": 858314, "internal_node_id": "0.0-137.0"}}, {"uniqueid": "MTK0827:32VNZTT0A8B9FMNCMC5LSUB5SRG4RF", "current_trial": 183, "dateTime": 1512764657095, "trialdata": {"rt": [2303, 4173, 6201, 8639, 10895, 11695, 14063, 16416, 18823, 20038], "recwords": ["bunny", "puppy", "helmet", "goblin", "ankle", "diver", "machine", "dragon", "friend", "office"], "type": "FREE_RECALL", "conditions": [12, 800, "a", 24000], "trial": 4, "trial_type": "free-recall", "trial_index": 183, "time_elapsed": 918320, "internal_node_id": "0.0-138.0-0.0"}}, {"uniqueid": "MTK0827:32VNZTT0A8B9FMNCMC5LSUB5SRG4RF", "current_trial": 184, "dateTime": 1512764659592, "trialdata": {"rt": 495, "key_press": 32, "type": "INSTRUCTIONS", "trial_type": "text", "trial_index": 184, "time_elapsed": 920827, "internal_node_id": "0.0-139.0"}}, {"uniqueid": "MTK0827:32VNZTT0A8B9FMNCMC5LSUB5SRG4RF", "current_trial": 185, "dateTime": 1512764673599, "trialdata": {"rt": [], "responses": [], "num1": [4], "num2": [7], "num3": [5], "type": "DISTRACTOR", "conditions": [12, 1600, "a", 12000], "trial": 5, "trial_type": "math-distractor", "trial_index": 185, "time_elapsed": 934834, "internal_node_id": "0.0-140.0"}}, {"uniqueid": "MTK0827:32VNZTT0A8B9FMNCMC5LSUB5SRG4RF", "current_trial": 186, "dateTime": 1512764676603, "trialdata": {"rt": -1, "stimulus": "<p id=\"stim\">10</p>", "key_press": -1, "trial_type": "single-stim", "trial_index": 186, "time_elapsed": 937838, "internal_node_id": "0.0-141.0-0.0"}}, {"uniqueid": "MTK0827:32VNZTT0A8B9FMNCMC5LSUB5SRG4RF", "current_trial": 187, "dateTime": 1512764677605, "trialdata": {"rt": -1, "stimulus": "<p id=\"stim\">9</p>", "key_press": -1, "trial_type": "single-stim", "trial_index": 187, "time_elapsed": 938840, "internal_node_id": "0.0-141.0-1.0"}}, {"uniqueid": "MTK0827:32VNZTT0A8B9FMNCMC5LSUB5SRG4RF", "current_trial": 188, "dateTime": 1512764678608, "trialdata": {"rt": -1, "stimulus": "<p id=\"stim\">8</p>", "key_press": -1, "trial_type": "single-stim", "trial_index": 188, "time_elapsed": 939842, "internal_node_id": "0.0-141.0-2.0"}}, {"uniqueid": "MTK0827:32VNZTT0A8B9FMNCMC5LSUB5SRG4RF", "current_trial": 189, "dateTime": 1512764679610, "trialdata": {"rt": -1, "stimulus": "<p id=\"stim\">7</p>", "key_press": -1, "trial_type": "single-stim", "trial_index": 189, "time_elapsed": 940845, "internal_node_id": "0.0-141.0-3.0"}}, {"uniqueid": "MTK0827:32VNZTT0A8B9FMNCMC5LSUB5SRG4RF", "current_trial": 190, "dateTime": 1512764680612, "trialdata": {"rt": -1, "stimulus": "<p id=\"stim\">6</p>", "key_press": -1, "trial_type": "single-stim", "trial_index": 190, "time_elapsed": 941847, "internal_node_id": "0.0-141.0-4.0"}}, {"uniqueid": "MTK0827:32VNZTT0A8B9FMNCMC5LSUB5SRG4RF", "current_trial": 191, "dateTime": 1512764681615, "trialdata": {"rt": -1, "stimulus": "<p id=\"stim\">5</p>", "key_press": -1, "trial_type": "single-stim", "trial_index": 191, "time_elapsed": 942849, "internal_node_id": "0.0-141.0-5.0"}}, {"uniqueid": "MTK0827:32VNZTT0A8B9FMNCMC5LSUB5SRG4RF", "current_trial": 192, "dateTime": 1512764682619, "trialdata": {"rt": -1, "stimulus": "<p id=\"stim\">4</p>", "key_press": -1, "trial_type": "single-stim", "trial_index": 192, "time_elapsed": 943853, "internal_node_id": "0.0-141.0-6.0"}}, {"uniqueid": "MTK0827:32VNZTT0A8B9FMNCMC5LSUB5SRG4RF", "current_trial": 193, "dateTime": 1512764683621, "trialdata": {"rt": -1, "stimulus": "<p id=\"stim\">3</p>", "key_press": -1, "trial_type": "single-stim", "trial_index": 193, "time_elapsed": 944855, "internal_node_id": "0.0-141.0-7.0"}}, {"uniqueid": "MTK0827:32VNZTT0A8B9FMNCMC5LSUB5SRG4RF", "current_trial": 194, "dateTime": 1512764684623, "trialdata": {"rt": -1, "stimulus": "<p id=\"stim\">2</p>", "key_press": -1, "trial_type": "single-stim", "trial_index": 194, "time_elapsed": 945858, "internal_node_id": "0.0-141.0-8.0"}}, {"uniqueid": "MTK0827:32VNZTT0A8B9FMNCMC5LSUB5SRG4RF", "current_trial": 195, "dateTime": 1512764685626, "trialdata": {"rt": -1, "stimulus": "<p id=\"stim\">1</p>", "key_press": -1, "trial_type": "single-stim", "trial_index": 195, "time_elapsed": 946860, "internal_node_id": "0.0-141.0-9.0"}}, {"uniqueid": "MTK0827:32VNZTT0A8B9FMNCMC5LSUB5SRG4RF", "current_trial": 196, "dateTime": 1512764687128, "trialdata": {"rt": -1, "stimulus": "<p id=\"stim\">+</p>", "key_press": -1, "type": "FIXATION", "trial_type": "single-stim", "trial_index": 196, "time_elapsed": 948363, "internal_node_id": "0.0-142.0-0.0"}}, {"uniqueid": "MTK0827:32VNZTT0A8B9FMNCMC5LSUB5SRG4RF", "current_trial": 197, "dateTime": 1512764689571, "trialdata": {"rt": -1000, "stimulus": "/static/audio/wordpool/DRIVER.wav", "key_press": -1, "type": "PRES_AUD", "word": "driver", "wordID": 498, "conditions": [12, 1600, "a", 12000], "trial": 5, "serialpos": 0, "trial_type": "single-audio", "trial_index": 197, "time_elapsed": 950806, "internal_node_id": "0.0-143.0"}}, {"uniqueid": "MTK0827:32VNZTT0A8B9FMNCMC5LSUB5SRG4RF", "current_trial": 198, "dateTime": 1512764692139, "trialdata": {"rt": -1000, "stimulus": "/static/audio/wordpool/WAITRESS.wav", "key_press": -1, "type": "PRES_AUD", "word": "waitress", "wordID": 1580, "conditions": [12, 1600, "a", 12000], "trial": 5, "serialpos": 1, "trial_type": "single-audio", "trial_index": 198, "time_elapsed": 953374, "internal_node_id": "0.0-144.0"}}, {"uniqueid": "MTK0827:32VNZTT0A8B9FMNCMC5LSUB5SRG4RF", "current_trial": 199, "dateTime": 1512764694658, "trialdata": {"rt": -1000, "stimulus": "/static/audio/wordpool/DORM.wav", "key_press": -1, "type": "PRES_AUD", "word": "dorm", "wordID": 487, "conditions": [12, 1600, "a", 12000], "trial": 5, "serialpos": 2, "trial_type": "single-audio", "trial_index": 199, "time_elapsed": 955892, "internal_node_id": "0.0-145.0"}}, {"uniqueid": "MTK0827:32VNZTT0A8B9FMNCMC5LSUB5SRG4RF", "current_trial": 200, "dateTime": 1512764697106, "trialdata": {"rt": -1000, "stimulus": "/static/audio/wordpool/LEOPARD.wav", "key_press": -1, "type": "PRES_AUD", "word": "leopard", "wordID": 811, "conditions": [12, 1600, "a", 12000], "trial": 5, "serialpos": 3, "trial_type": "single-audio", "trial_index": 200, "time_elapsed": 958341, "internal_node_id": "0.0-146.0"}}, {"uniqueid": "MTK0827:32VNZTT0A8B9FMNCMC5LSUB5SRG4RF", "current_trial": 201, "dateTime": 1512764699720, "trialdata": {"rt": -1000, "stimulus": "/static/audio/wordpool/WORLD.wav", "key_press": -1, "type": "PRES_AUD", "word": "world", "wordID": 1621, "conditions": [12, 1600, "a", 12000], "trial": 5, "serialpos": 4, "trial_type": "single-audio", "trial_index": 201, "time_elapsed": 960954, "internal_node_id": "0.0-147.0"}}, {"uniqueid": "MTK0827:32VNZTT0A8B9FMNCMC5LSUB5SRG4RF", "current_trial": 202, "dateTime": 1512764702125, "trialdata": {"rt": -1000, "stimulus": "/static/audio/wordpool/CHAPEL.wav", "key_press": -1, "type": "PRES_AUD", "word": "chapel", "wordID": 279, "conditions": [12, 1600, "a", 12000], "trial": 5, "serialpos": 5, "trial_type": "single-audio", "trial_index": 202, "time_elapsed": 963359, "internal_node_id": "0.0-148.0"}}, {"uniqueid": "MTK0827:32VNZTT0A8B9FMNCMC5LSUB5SRG4RF", "current_trial": 203, "dateTime": 1512764704849, "trialdata": {"rt": -1000, "stimulus": "/static/audio/wordpool/CHURCH.wav", "key_press": -1, "type": "PRES_AUD", "word": "church", "wordID": 306, "conditions": [12, 1600, "a", 12000], "trial": 5, "serialpos": 6, "trial_type": "single-audio", "trial_index": 203, "time_elapsed": 966084, "internal_node_id": "0.0-149.0"}}, {"uniqueid": "MTK0827:32VNZTT0A8B9FMNCMC5LSUB5SRG4RF", "current_trial": 204, "dateTime": 1512764707603, "trialdata": {"rt": -1000, "stimulus": "/static/audio/wordpool/POSSUM.wav", "key_press": -1, "type": "PRES_AUD", "word": "possum", "wordID": 1111, "conditions": [12, 1600, "a", 12000], "trial": 5, "serialpos": 7, "trial_type": "single-audio", "trial_index": 204, "time_elapsed": 968838, "internal_node_id": "0.0-150.0"}}, {"uniqueid": "MTK0827:32VNZTT0A8B9FMNCMC5LSUB5SRG4RF", "current_trial": 205, "dateTime": 1512764710014, "trialdata": {"rt": -1000, "stimulus": "/static/audio/wordpool/BRANCH.wav", "key_press": -1, "type": "PRES_AUD", "word": "branch", "wordID": 167, "conditions": [12, 1600, "a", 12000], "trial": 5, "serialpos": 8, "trial_type": "single-audio", "trial_index": 205, "time_elapsed": 971248, "internal_node_id": "0.0-151.0"}}, {"uniqueid": "MTK0827:32VNZTT0A8B9FMNCMC5LSUB5SRG4RF", "current_trial": 206, "dateTime": 1512764712520, "trialdata": {"rt": -1000, "stimulus": "/static/audio/wordpool/PLAZA.wav", "key_press": -1, "type": "PRES_AUD", "word": "plaza", "wordID": 1087, "conditions": [12, 1600, "a", 12000], "trial": 5, "serialpos": 9, "trial_type": "single-audio", "trial_index": 206, "time_elapsed": 973755, "internal_node_id": "0.0-152.0"}}, {"uniqueid": "MTK0827:32VNZTT0A8B9FMNCMC5LSUB5SRG4RF", "current_trial": 207, "dateTime": 1512764715134, "trialdata": {"rt": -1000, "stimulus": "/static/audio/wordpool/CASHIER.wav", "key_press": -1, "type": "PRES_AUD", "word": "cashier", "wordID": 253, "conditions": [12, 1600, "a", 12000], "trial": 5, "serialpos": 10, "trial_type": "single-audio", "trial_index": 207, "time_elapsed": 976369, "internal_node_id": "0.0-153.0"}}, {"uniqueid": "MTK0827:32VNZTT0A8B9FMNCMC5LSUB5SRG4RF", "current_trial": 208, "dateTime": 1512764717772, "trialdata": {"rt": -1000, "stimulus": "/static/audio/wordpool/TYPIST.wav", "key_press": -1, "type": "PRES_AUD", "word": "typist", "wordID": 1531, "conditions": [12, 1600, "a", 12000], "trial": 5, "serialpos": 11, "trial_type": "single-audio", "trial_index": 208, "time_elapsed": 979006, "internal_node_id": "0.0-154.0"}}, {"uniqueid": "MTK0827:32VNZTT0A8B9FMNCMC5LSUB5SRG4RF", "current_trial": 209, "dateTime": 1512764718974, "trialdata": {"rt": -1, "stimulus": "", "key_press": -1, "type": "PRE_RECALL_DELAY", "trial_type": "single-stim", "trial_index": 209, "time_elapsed": 980209, "internal_node_id": "0.0-155.0-0.0"}}, {"uniqueid": "MTK0827:32VNZTT0A8B9FMNCMC5LSUB5SRG4RF", "current_trial": 210, "dateTime": 1512764719476, "trialdata": {"rt": -1000, "stimulus": "/static/audio/400Hz.wav", "key_press": -1, "type": "PRE_RECALL_ALERT", "trial_type": "single-audio", "trial_index": 210, "time_elapsed": 980711, "internal_node_id": "0.0-156.0"}}, {"uniqueid": "MTK0827:32VNZTT0A8B9FMNCMC5LSUB5SRG4RF", "current_trial": 211, "dateTime": 1512764779491, "trialdata": {"rt": [4046, 6142, 9061, 10511, 13814, 15629, 17390, 19983, 21501, 28311], "recwords": ["typist", "cashier", "plaza", "ranch", "church", "chapel", "possum", "world", "leopard", "waitress"], "type": "FREE_RECALL", "conditions": [12, 1600, "a", 12000], "trial": 5, "trial_type": "free-recall", "trial_index": 211, "time_elapsed": 1040718, "internal_node_id": "0.0-157.0-0.0"}}, {"uniqueid": "MTK0827:32VNZTT0A8B9FMNCMC5LSUB5SRG4RF", "current_trial": 212, "dateTime": 1512764781861, "trialdata": {"rt": 368, "key_press": 32, "type": "INSTRUCTIONS", "trial_type": "text", "trial_index": 212, "time_elapsed": 1043096, "internal_node_id": "0.0-158.0"}}, {"uniqueid": "MTK0827:32VNZTT0A8B9FMNCMC5LSUB5SRG4RF", "current_trial": 213, "dateTime": 1512764795868, "trialdata": {"rt": [], "responses": [], "num1": [4], "num2": [7], "num3": [8], "type": "DISTRACTOR", "conditions": [24, 800, "v", 12000], "trial": 6, "trial_type": "math-distractor", "trial_index": 213, "time_elapsed": 1057102, "internal_node_id": "0.0-159.0"}}, {"uniqueid": "MTK0827:32VNZTT0A8B9FMNCMC5LSUB5SRG4RF", "current_trial": 214, "dateTime": 1512764798870, "trialdata": {"rt": -1, "stimulus": "<p id=\"stim\">10</p>", "key_press": -1, "trial_type": "single-stim", "trial_index": 214, "time_elapsed": 1060105, "internal_node_id": "0.0-160.0-0.0"}}, {"uniqueid": "MTK0827:32VNZTT0A8B9FMNCMC5LSUB5SRG4RF", "current_trial": 215, "dateTime": 1512764799872, "trialdata": {"rt": -1, "stimulus": "<p id=\"stim\">9</p>", "key_press": -1, "trial_type": "single-stim", "trial_index": 215, "time_elapsed": 1061107, "internal_node_id": "0.0-160.0-1.0"}}, {"uniqueid": "MTK0827:32VNZTT0A8B9FMNCMC5LSUB5SRG4RF", "current_trial": 216, "dateTime": 1512764800875, "trialdata": {"rt": -1, "stimulus": "<p id=\"stim\">8</p>", "key_press": -1, "trial_type": "single-stim", "trial_index": 216, "time_elapsed": 1062109, "internal_node_id": "0.0-160.0-2.0"}}, {"uniqueid": "MTK0827:32VNZTT0A8B9FMNCMC5LSUB5SRG4RF", "current_trial": 217, "dateTime": 1512764801877, "trialdata": {"rt": -1, "stimulus": "<p id=\"stim\">7</p>", "key_press": -1, "trial_type": "single-stim", "trial_index": 217, "time_elapsed": 1063112, "internal_node_id": "0.0-160.0-3.0"}}, {"uniqueid": "MTK0827:32VNZTT0A8B9FMNCMC5LSUB5SRG4RF", "current_trial": 218, "dateTime": 1512764802879, "trialdata": {"rt": -1, "stimulus": "<p id=\"stim\">6</p>", "key_press": -1, "trial_type": "single-stim", "trial_index": 218, "time_elapsed": 1064114, "internal_node_id": "0.0-160.0-4.0"}}, {"uniqueid": "MTK0827:32VNZTT0A8B9FMNCMC5LSUB5SRG4RF", "current_trial": 219, "dateTime": 1512764803882, "trialdata": {"rt": -1, "stimulus": "<p id=\"stim\">5</p>", "key_press": -1, "trial_type": "single-stim", "trial_index": 219, "time_elapsed": 1065116, "internal_node_id": "0.0-160.0-5.0"}}, {"uniqueid": "MTK0827:32VNZTT0A8B9FMNCMC5LSUB5SRG4RF", "current_trial": 220, "dateTime": 1512764804884, "trialdata": {"rt": -1, "stimulus": "<p id=\"stim\">4</p>", "key_press": -1, "trial_type": "single-stim", "trial_index": 220, "time_elapsed": 1066119, "internal_node_id": "0.0-160.0-6.0"}}, {"uniqueid": "MTK0827:32VNZTT0A8B9FMNCMC5LSUB5SRG4RF", "current_trial": 221, "dateTime": 1512764805886, "trialdata": {"rt": -1, "stimulus": "<p id=\"stim\">3</p>", "key_press": -1, "trial_type": "single-stim", "trial_index": 221, "time_elapsed": 1067121, "internal_node_id": "0.0-160.0-7.0"}}, {"uniqueid": "MTK0827:32VNZTT0A8B9FMNCMC5LSUB5SRG4RF", "current_trial": 222, "dateTime": 1512764806889, "trialdata": {"rt": -1, "stimulus": "<p id=\"stim\">2</p>", "key_press": -1, "trial_type": "single-stim", "trial_index": 222, "time_elapsed": 1068123, "internal_node_id": "0.0-160.0-8.0"}}, {"uniqueid": "MTK0827:32VNZTT0A8B9FMNCMC5LSUB5SRG4RF", "current_trial": 223, "dateTime": 1512764807891, "trialdata": {"rt": -1, "stimulus": "<p id=\"stim\">1</p>", "key_press": -1, "trial_type": "single-stim", "trial_index": 223, "time_elapsed": 1069126, "internal_node_id": "0.0-160.0-9.0"}}, {"uniqueid": "MTK0827:32VNZTT0A8B9FMNCMC5LSUB5SRG4RF", "current_trial": 224, "dateTime": 1512764809394, "trialdata": {"rt": -1, "stimulus": "<p id=\"stim\">+</p>", "key_press": -1, "type": "FIXATION", "trial_type": "single-stim", "trial_index": 224, "time_elapsed": 1070628, "internal_node_id": "0.0-161.0-0.0"}}, {"uniqueid": "MTK0827:32VNZTT0A8B9FMNCMC5LSUB5SRG4RF", "current_trial": 225, "dateTime": 1512764810198, "trialdata": {"rt": -1, "stimulus": "<p id=\"stim\">CROWN</p>", "key_press": -1, "type": "PRES_VIS", "word": "crown", "wordID": 414, "conditions": [24, 800, "v", 12000], "trial": 6, "serialpos": 0, "trial_type": "single-stim", "trial_index": 225, "time_elapsed": 1071432, "internal_node_id": "0.0-162.0"}}, {"uniqueid": "MTK0827:32VNZTT0A8B9FMNCMC5LSUB5SRG4RF", "current_trial": 226, "dateTime": 1512764812088, "trialdata": {"rt": -1, "stimulus": "<p id=\"stim\">PARENT</p>", "key_press": -1, "type": "PRES_VIS", "word": "parent", "wordID": 1012, "conditions": [24, 800, "v", 12000], "trial": 6, "serialpos": 1, "trial_type": "single-stim", "trial_index": 226, "time_elapsed": 1073322, "internal_node_id": "0.0-163.0"}}, {"uniqueid": "MTK0827:32VNZTT0A8B9FMNCMC5LSUB5SRG4RF", "current_trial": 227, "dateTime": 1512764814064, "trialdata": {"rt": -1, "stimulus": "<p id=\"stim\">CLOTHES</p>", "key_press": -1, "type": "PRES_VIS", "word": "clothes", "wordID": 326, "conditions": [24, 800, "v", 12000], "trial": 6, "serialpos": 2, "trial_type": "single-stim", "trial_index": 227, "time_elapsed": 1075299, "internal_node_id": "0.0-164.0"}}, {"uniqueid": "MTK0827:32VNZTT0A8B9FMNCMC5LSUB5SRG4RF", "current_trial": 228, "dateTime": 1512764815748, "trialdata": {"rt": -1, "stimulus": "<p id=\"stim\">SWORD</p>", "key_press": -1, "type": "PRES_VIS", "word": "sword", "wordID": 1422, "conditions": [24, 800, "v", 12000], "trial": 6, "serialpos": 3, "trial_type": "single-stim", "trial_index": 228, "time_elapsed": 1076983, "internal_node_id": "0.0-165.0"}}, {"uniqueid": "MTK0827:32VNZTT0A8B9FMNCMC5LSUB5SRG4RF", "current_trial": 229, "dateTime": 1512764817534, "trialdata": {"rt": -1, "stimulus": "<p id=\"stim\">SUITCASE</p>", "key_press": -1, "type": "PRES_VIS", "word": "suitcase", "wordID": 1402, "conditions": [24, 800, "v", 12000], "trial": 6, "serialpos": 4, "trial_type": "single-stim", "trial_index": 229, "time_elapsed": 1078768, "internal_node_id": "0.0-166.0"}}, {"uniqueid": "MTK0827:32VNZTT0A8B9FMNCMC5LSUB5SRG4RF", "current_trial": 230, "dateTime": 1512764819519, "trialdata": {"rt": -1, "stimulus": "<p id=\"stim\">ACTRESS</p>", "key_press": -1, "type": "PRES_VIS", "word": "actress", "wordID": 5, "conditions": [24, 800, "v", 12000], "trial": 6, "serialpos": 5, "trial_type": "single-stim", "trial_index": 230, "time_elapsed": 1080754, "internal_node_id": "0.0-167.0"}}, {"uniqueid": "MTK0827:32VNZTT0A8B9FMNCMC5LSUB5SRG4RF", "current_trial": 231, "dateTime": 1512764821203, "trialdata": {"rt": -1, "stimulus": "<p id=\"stim\">ACTOR</p>", "key_press": -1, "type": "PRES_VIS", "word": "actor", "wordID": 4, "conditions": [24, 800, "v", 12000], "trial": 6, "serialpos": 6, "trial_type": "single-stim", "trial_index": 231, "time_elapsed": 1082438, "internal_node_id": "0.0-168.0"}}, {"uniqueid": "MTK0827:32VNZTT0A8B9FMNCMC5LSUB5SRG4RF", "current_trial": 232, "dateTime": 1512764823102, "trialdata": {"rt": -1, "stimulus": "<p id=\"stim\">FILM</p>", "key_press": -1, "type": "PRES_VIS", "word": "film", "wordID": 564, "conditions": [24, 800, "v", 12000], "trial": 6, "serialpos": 7, "trial_type": "single-stim", "trial_index": 232, "time_elapsed": 1084337, "internal_node_id": "0.0-169.0"}}, {"uniqueid": "MTK0827:32VNZTT0A8B9FMNCMC5LSUB5SRG4RF", "current_trial": 233, "dateTime": 1512764824748, "trialdata": {"rt": -1, "stimulus": "<p id=\"stim\">AWARD</p>", "key_press": -1, "type": "PRES_VIS", "word": "award", "wordID": 62, "conditions": [24, 800, "v", 12000], "trial": 6, "serialpos": 8, "trial_type": "single-stim", "trial_index": 233, "time_elapsed": 1085982, "internal_node_id": "0.0-170.0"}}, {"uniqueid": "MTK0827:32VNZTT0A8B9FMNCMC5LSUB5SRG4RF", "current_trial": 234, "dateTime": 1512764826703, "trialdata": {"rt": -1, "stimulus": "<p id=\"stim\">SHELF</p>", "key_press": -1, "type": "PRES_VIS", "word": "shelf", "wordID": 1279, "conditions": [24, 800, "v", 12000], "trial": 6, "serialpos": 9, "trial_type": "single-stim", "trial_index": 234, "time_elapsed": 1087937, "internal_node_id": "0.0-171.0"}}, {"uniqueid": "MTK0827:32VNZTT0A8B9FMNCMC5LSUB5SRG4RF", "current_trial": 235, "dateTime": 1512764828345, "trialdata": {"rt": -1, "stimulus": "<p id=\"stim\">CHAUFFEUR</p>", "key_press": -1, "type": "PRES_VIS", "word": "chauffeur", "wordID": 282, "conditions": [24, 800, "v", 12000], "trial": 6, "serialpos": 10, "trial_type": "single-stim", "trial_index": 235, "time_elapsed": 1089579, "internal_node_id": "0.0-172.0"}}, {"uniqueid": "MTK0827:32VNZTT0A8B9FMNCMC5LSUB5SRG4RF", "current_trial": 236, "dateTime": 1512764830192, "trialdata": {"rt": -1, "stimulus": "<p id=\"stim\">WARDROBE</p>", "key_press": -1, "type": "PRES_VIS", "word": "wardrobe", "wordID": 1586, "conditions": [24, 800, "v", 12000], "trial": 6, "serialpos": 11, "trial_type": "single-stim", "trial_index": 236, "time_elapsed": 1091427, "internal_node_id": "0.0-173.0"}}, {"uniqueid": "MTK0827:32VNZTT0A8B9FMNCMC5LSUB5SRG4RF", "current_trial": 237, "dateTime": 1512764832065, "trialdata": {"rt": -1, "stimulus": "<p id=\"stim\">SHORTCAKE</p>", "key_press": -1, "type": "PRES_VIS", "word": "shortcake", "wordID": 1291, "conditions": [24, 800, "v", 12000], "trial": 6, "serialpos": 12, "trial_type": "single-stim", "trial_index": 237, "time_elapsed": 1093300, "internal_node_id": "0.0-174.0"}}, {"uniqueid": "MTK0827:32VNZTT0A8B9FMNCMC5LSUB5SRG4RF", "current_trial": 238, "dateTime": 1512764833959, "trialdata": {"rt": -1, "stimulus": "<p id=\"stim\">LILY</p>", "key_press": -1, "type": "PRES_VIS", "word": "lily", "wordID": 820, "conditions": [24, 800, "v", 12000], "trial": 6, "serialpos": 13, "trial_type": "single-stim", "trial_index": 238, "time_elapsed": 1095194, "internal_node_id": "0.0-175.0"}}, {"uniqueid": "MTK0827:32VNZTT0A8B9FMNCMC5LSUB5SRG4RF", "current_trial": 239, "dateTime": 1512764835955, "trialdata": {"rt": -1, "stimulus": "<p id=\"stim\">KNAPSACK</p>", "key_press": -1, "type": "PRES_VIS", "word": "knapsack", "wordID": 782, "conditions": [24, 800, "v", 12000], "trial": 6, "serialpos": 14, "trial_type": "single-stim", "trial_index": 239, "time_elapsed": 1097189, "internal_node_id": "0.0-176.0"}}, {"uniqueid": "MTK0827:32VNZTT0A8B9FMNCMC5LSUB5SRG4RF", "current_trial": 240, "dateTime": 1512764837741, "trialdata": {"rt": -1, "stimulus": "<p id=\"stim\">POWDER</p>", "key_press": -1, "type": "PRES_VIS", "word": "powder", "wordID": 1116, "conditions": [24, 800, "v", 12000], "trial": 6, "serialpos": 15, "trial_type": "single-stim", "trial_index": 240, "time_elapsed": 1098976, "internal_node_id": "0.0-177.0"}}, {"uniqueid": "MTK0827:32VNZTT0A8B9FMNCMC5LSUB5SRG4RF", "current_trial": 241, "dateTime": 1512764839589, "trialdata": {"rt": -1, "stimulus": "<p id=\"stim\">SIBLING</p>", "key_press": -1, "type": "PRES_VIS", "word": "sibling", "wordID": 1300, "conditions": [24, 800, "v", 12000], "trial": 6, "serialpos": 16, "trial_type": "single-stim", "trial_index": 241, "time_elapsed": 1100823, "internal_node_id": "0.0-178.0"}}, {"uniqueid": "MTK0827:32VNZTT0A8B9FMNCMC5LSUB5SRG4RF", "current_trial": 242, "dateTime": 1512764841386, "trialdata": {"rt": -1, "stimulus": "<p id=\"stim\">COUSIN</p>", "key_press": -1, "type": "PRES_VIS", "word": "cousin", "wordID": 391, "conditions": [24, 800, "v", 12000], "trial": 6, "serialpos": 17, "trial_type": "single-stim", "trial_index": 242, "time_elapsed": 1102620, "internal_node_id": "0.0-179.0"}}, {"uniqueid": "MTK0827:32VNZTT0A8B9FMNCMC5LSUB5SRG4RF", "current_trial": 243, "dateTime": 1512764843097, "trialdata": {"rt": -1, "stimulus": "<p id=\"stim\">ORANGE</p>", "key_press": -1, "type": "PRES_VIS", "word": "orange", "wordID": 979, "conditions": [24, 800, "v", 12000], "trial": 6, "serialpos": 18, "trial_type": "single-stim", "trial_index": 243, "time_elapsed": 1104331, "internal_node_id": "0.0-180.0"}}, {"uniqueid": "MTK0827:32VNZTT0A8B9FMNCMC5LSUB5SRG4RF", "current_trial": 244, "dateTime": 1512764844756, "trialdata": {"rt": -1, "stimulus": "<p id=\"stim\">FRUIT</p>", "key_press": -1, "type": "PRES_VIS", "word": "fruit", "wordID": 609, "conditions": [24, 800, "v", 12000], "trial": 6, "serialpos": 19, "trial_type": "single-stim", "trial_index": 244, "time_elapsed": 1105990, "internal_node_id": "0.0-181.0"}}, {"uniqueid": "MTK0827:32VNZTT0A8B9FMNCMC5LSUB5SRG4RF", "current_trial": 245, "dateTime": 1512764846528, "trialdata": {"rt": -1, "stimulus": "<p id=\"stim\">FRECKLE</p>", "key_press": -1, "type": "PRES_VIS", "word": "freckle", "wordID": 601, "conditions": [24, 800, "v", 12000], "trial": 6, "serialpos": 20, "trial_type": "single-stim", "trial_index": 245, "time_elapsed": 1107763, "internal_node_id": "0.0-182.0"}}, {"uniqueid": "MTK0827:32VNZTT0A8B9FMNCMC5LSUB5SRG4RF", "current_trial": 246, "dateTime": 1512764848245, "trialdata": {"rt": -1, "stimulus": "<p id=\"stim\">SALT</p>", "key_press": -1, "type": "PRES_VIS", "word": "salt", "wordID": 1228, "conditions": [24, 800, "v", 12000], "trial": 6, "serialpos": 21, "trial_type": "single-stim", "trial_index": 246, "time_elapsed": 1109480, "internal_node_id": "0.0-183.0"}}, {"uniqueid": "MTK0827:32VNZTT0A8B9FMNCMC5LSUB5SRG4RF", "current_trial": 247, "dateTime": 1512764850186, "trialdata": {"rt": -1, "stimulus": "<p id=\"stim\">PASTA</p>", "key_press": -1, "type": "PRES_VIS", "word": "pasta", "wordID": 1020, "conditions": [24, 800, "v", 12000], "trial": 6, "serialpos": 22, "trial_type": "single-stim", "trial_index": 247, "time_elapsed": 1111421, "internal_node_id": "0.0-184.0"}}, {"uniqueid": "MTK0827:32VNZTT0A8B9FMNCMC5LSUB5SRG4RF", "current_trial": 248, "dateTime": 1512764851940, "trialdata": {"rt": -1, "stimulus": "<p id=\"stim\">SLUG</p>", "key_press": -1, "type": "PRES_VIS", "word": "slug", "wordID": 1328, "conditions": [24, 800, "v", 12000], "trial": 6, "serialpos": 23, "trial_type": "single-stim", "trial_index": 248, "time_elapsed": 1113175, "internal_node_id": "0.0-185.0"}}, {"uniqueid": "MTK0827:32VNZTT0A8B9FMNCMC5LSUB5SRG4RF", "current_trial": 249, "dateTime": 1512764854052, "trialdata": {"rt": -1, "stimulus": "", "key_press": -1, "type": "PRE_RECALL_DELAY", "trial_type": "single-stim", "trial_index": 249, "time_elapsed": 1115286, "internal_node_id": "0.0-186.0-0.0"}}, {"uniqueid": "MTK0827:32VNZTT0A8B9FMNCMC5LSUB5SRG4RF", "current_trial": 250, "dateTime": 1512764854554, "trialdata": {"rt": -1000, "stimulus": "/static/audio/400Hz.wav", "key_press": -1, "type": "PRE_RECALL_ALERT", "trial_type": "single-audio", "trial_index": 250, "time_elapsed": 1115788, "internal_node_id": "0.0-187.0"}}, {"uniqueid": "MTK0827:32VNZTT0A8B9FMNCMC5LSUB5SRG4RF", "current_trial": 251, "dateTime": 1512764914571, "trialdata": {"rt": [3226, 4587, 8290, 10610, 12362, 14179, 18595, 21059, 24042, 26593, 31682, 35634, 41019, 43259, 45771], "recwords": ["slug", "pasta", "freckle", "fruit", "orange", "sibling", "knapsack", "lilly", "shortcake", "actress", "film", "award", "shelf", "wardrobe", "cousin"], "type": "FREE_RECALL", "conditions": [24, 800, "v", 12000], "trial": 6, "trial_type": "free-recall", "trial_index": 251, "time_elapsed": 1175796, "internal_node_id": "0.0-188.0-0.0"}}, {"uniqueid": "MTK0827:32VNZTT0A8B9FMNCMC5LSUB5SRG4RF", "current_trial": 252, "dateTime": 1512764916978, "trialdata": {"rt": 405, "key_press": 32, "type": "INSTRUCTIONS", "trial_type": "text", "trial_index": 252, "time_elapsed": 1178213, "internal_node_id": "0.0-189.0"}}, {"uniqueid": "MTK0827:32VNZTT0A8B9FMNCMC5LSUB5SRG4RF", "current_trial": 253, "dateTime": 1512764942984, "trialdata": {"rt": [], "responses": [], "num1": [8], "num2": [1], "num3": [4], "type": "DISTRACTOR", "conditions": [24, 800, "v", 24000], "trial": 7, "trial_type": "math-distractor", "trial_index": 253, "time_elapsed": 1204219, "internal_node_id": "0.0-190.0"}}, {"uniqueid": "MTK0827:32VNZTT0A8B9FMNCMC5LSUB5SRG4RF", "current_trial": 254, "dateTime": 1512764945988, "trialdata": {"rt": -1, "stimulus": "<p id=\"stim\">10</p>", "key_press": -1, "trial_type": "single-stim", "trial_index": 254, "time_elapsed": 1207222, "internal_node_id": "0.0-191.0-0.0"}}, {"uniqueid": "MTK0827:32VNZTT0A8B9FMNCMC5LSUB5SRG4RF", "current_trial": 255, "dateTime": 1512764946990, "trialdata": {"rt": -1, "stimulus": "<p id=\"stim\">9</p>", "key_press": -1, "trial_type": "single-stim", "trial_index": 255, "time_elapsed": 1208225, "internal_node_id": "0.0-191.0-1.0"}}, {"uniqueid": "MTK0827:32VNZTT0A8B9FMNCMC5LSUB5SRG4RF", "current_trial": 256, "dateTime": 1512764947993, "trialdata": {"rt": -1, "stimulus": "<p id=\"stim\">8</p>", "key_press": -1, "trial_type": "single-stim", "trial_index": 256, "time_elapsed": 1209227, "internal_node_id": "0.0-191.0-2.0"}}, {"uniqueid": "MTK0827:32VNZTT0A8B9FMNCMC5LSUB5SRG4RF", "current_trial": 257, "dateTime": 1512764948995, "trialdata": {"rt": -1, "stimulus": "<p id=\"stim\">7</p>", "key_press": -1, "trial_type": "single-stim", "trial_index": 257, "time_elapsed": 1210229, "internal_node_id": "0.0-191.0-3.0"}}, {"uniqueid": "MTK0827:32VNZTT0A8B9FMNCMC5LSUB5SRG4RF", "current_trial": 258, "dateTime": 1512764949998, "trialdata": {"rt": -1, "stimulus": "<p id=\"stim\">6</p>", "key_press": -1, "trial_type": "single-stim", "trial_index": 258, "time_elapsed": 1211232, "internal_node_id": "0.0-191.0-4.0"}}, {"uniqueid": "MTK0827:32VNZTT0A8B9FMNCMC5LSUB5SRG4RF", "current_trial": 259, "dateTime": 1512764951000, "trialdata": {"rt": -1, "stimulus": "<p id=\"stim\">5</p>", "key_press": -1, "trial_type": "single-stim", "trial_index": 259, "time_elapsed": 1212235, "internal_node_id": "0.0-191.0-5.0"}}, {"uniqueid": "MTK0827:32VNZTT0A8B9FMNCMC5LSUB5SRG4RF", "current_trial": 260, "dateTime": 1512764952002, "trialdata": {"rt": -1, "stimulus": "<p id=\"stim\">4</p>", "key_press": -1, "trial_type": "single-stim", "trial_index": 260, "time_elapsed": 1213237, "internal_node_id": "0.0-191.0-6.0"}}, {"uniqueid": "MTK0827:32VNZTT0A8B9FMNCMC5LSUB5SRG4RF", "current_trial": 261, "dateTime": 1512764953004, "trialdata": {"rt": -1, "stimulus": "<p id=\"stim\">3</p>", "key_press": -1, "trial_type": "single-stim", "trial_index": 261, "time_elapsed": 1214239, "internal_node_id": "0.0-191.0-7.0"}}, {"uniqueid": "MTK0827:32VNZTT0A8B9FMNCMC5LSUB5SRG4RF", "current_trial": 262, "dateTime": 1512764954007, "trialdata": {"rt": -1, "stimulus": "<p id=\"stim\">2</p>", "key_press": -1, "trial_type": "single-stim", "trial_index": 262, "time_elapsed": 1215241, "internal_node_id": "0.0-191.0-8.0"}}, {"uniqueid": "MTK0827:32VNZTT0A8B9FMNCMC5LSUB5SRG4RF", "current_trial": 263, "dateTime": 1512764955009, "trialdata": {"rt": -1, "stimulus": "<p id=\"stim\">1</p>", "key_press": -1, "trial_type": "single-stim", "trial_index": 263, "time_elapsed": 1216244, "internal_node_id": "0.0-191.0-9.0"}}, {"uniqueid": "MTK0827:32VNZTT0A8B9FMNCMC5LSUB5SRG4RF", "current_trial": 264, "dateTime": 1512764956511, "trialdata": {"rt": -1, "stimulus": "<p id=\"stim\">+</p>", "key_press": -1, "type": "FIXATION", "trial_type": "single-stim", "trial_index": 264, "time_elapsed": 1217746, "internal_node_id": "0.0-192.0-0.0"}}, {"uniqueid": "MTK0827:32VNZTT0A8B9FMNCMC5LSUB5SRG4RF", "current_trial": 265, "dateTime": 1512764957314, "trialdata": {"rt": -1, "stimulus": "<p id=\"stim\">CLOUD</p>", "key_press": -1, "type": "PRES_VIS", "word": "cloud", "wordID": 327, "conditions": [24, 800, "v", 24000], "trial": 7, "serialpos": 0, "trial_type": "single-stim", "trial_index": 265, "time_elapsed": 1218548, "internal_node_id": "0.0-193.0"}}, {"uniqueid": "MTK0827:32VNZTT0A8B9FMNCMC5LSUB5SRG4RF", "current_trial": 266, "dateTime": 1512764959170, "trialdata": {"rt": -1, "stimulus": "<p id=\"stim\">HONEY</p>", "key_press": -1, "type": "PRES_VIS", "word": "honey", "wordID": 712, "conditions": [24, 800, "v", 24000], "trial": 7, "serialpos": 1, "trial_type": "single-stim", "trial_index": 266, "time_elapsed": 1220404, "internal_node_id": "0.0-194.0"}}, {"uniqueid": "MTK0827:32VNZTT0A8B9FMNCMC5LSUB5SRG4RF", "current_trial": 267, "dateTime": 1512764960993, "trialdata": {"rt": -1, "stimulus": "<p id=\"stim\">TWEEZERS</p>", "key_press": -1, "type": "PRES_VIS", "word": "tweezers", "wordID": 1525, "conditions": [24, 800, "v", 24000], "trial": 7, "serialpos": 2, "trial_type": "single-stim", "trial_index": 267, "time_elapsed": 1222228, "internal_node_id": "0.0-195.0"}}, {"uniqueid": "MTK0827:32VNZTT0A8B9FMNCMC5LSUB5SRG4RF", "current_trial": 268, "dateTime": 1512764962864, "trialdata": {"rt": -1, "stimulus": "<p id=\"stim\">LIZARD</p>", "key_press": -1, "type": "PRES_VIS", "word": "lizard", "wordID": 833, "conditions": [24, 800, "v", 24000], "trial": 7, "serialpos": 3, "trial_type": "single-stim", "trial_index": 268, "time_elapsed": 1224098, "internal_node_id": "0.0-196.0"}}, {"uniqueid": "MTK0827:32VNZTT0A8B9FMNCMC5LSUB5SRG4RF", "current_trial": 269, "dateTime": 1512764964533, "trialdata": {"rt": -1, "stimulus": "<p id=\"stim\">CARRIAGE</p>", "key_press": -1, "type": "PRES_VIS", "word": "carriage", "wordID": 247, "conditions": [24, 800, "v", 24000], "trial": 7, "serialpos": 4, "trial_type": "single-stim", "trial_index": 269, "time_elapsed": 1225768, "internal_node_id": "0.0-197.0"}}, {"uniqueid": "MTK0827:32VNZTT0A8B9FMNCMC5LSUB5SRG4RF", "current_trial": 270, "dateTime": 1512764966401, "trialdata": {"rt": -1, "stimulus": "<p id=\"stim\">BOX</p>", "key_press": -1, "type": "PRES_VIS", "word": "box", "wordID": 158, "conditions": [24, 800, "v", 24000], "trial": 7, "serialpos": 5, "trial_type": "single-stim", "trial_index": 270, "time_elapsed": 1227636, "internal_node_id": "0.0-198.0"}}, {"uniqueid": "MTK0827:32VNZTT0A8B9FMNCMC5LSUB5SRG4RF", "current_trial": 271, "dateTime": 1512764968385, "trialdata": {"rt": -1, "stimulus": "<p id=\"stim\">SHARK</p>", "key_press": -1, "type": "PRES_VIS", "word": "shark", "wordID": 1274, "conditions": [24, 800, "v", 24000], "trial": 7, "serialpos": 6, "trial_type": "single-stim", "trial_index": 271, "time_elapsed": 1229619, "internal_node_id": "0.0-199.0"}}, {"uniqueid": "MTK0827:32VNZTT0A8B9FMNCMC5LSUB5SRG4RF", "current_trial": 272, "dateTime": 1512764970352, "trialdata": {"rt": -1, "stimulus": "<p id=\"stim\">TURTLE</p>", "key_press": -1, "type": "PRES_VIS", "word": "turtle", "wordID": 1521, "conditions": [24, 800, "v", 24000], "trial": 7, "serialpos": 7, "trial_typ