{"condition": 0, "counterbalance": 246, "assignmentId": "3RYC5T2D740V4F9VKWX9VSM0FSFRP2", "workerId": "MTK0061", "hitId": "3S1WOPCJFG08MG3YDB3NA55LEPNJE3", "currenttrial": 625, "bonus": 0, "data": [{"uniqueid": "MTK0061:3RYC5T2D740V4F9VKWX9VSM0FSFRP2", "current_trial": 0, "dateTime": 1509061492880, "trialdata": {"rt": 9218, "key_press": 32, "type": "INSTRUCTIONS", "trial_type": "text", "trial_index": 0, "time_elapsed": 9224, "internal_node_id": "0.0-0.0"}}, {"uniqueid": "MTK0061:3RYC5T2D740V4F9VKWX9VSM0FSFRP2", "current_trial": 1, "dateTime": 1509061494203, "trialdata": {"rt": 1316, "key_press": 32, "type": "INSTRUCTIONS", "trial_type": "text", "trial_index": 1, "time_elapsed": 10548, "internal_node_id": "0.0-1.0"}}, {"uniqueid": "MTK0061:3RYC5T2D740V4F9VKWX9VSM0FSFRP2", "current_trial": 2, "dateTime": 1509061501154, "trialdata": {"rt": [451, 6875], "responses": ["", "ocean"], "type": "AUDIO_TEST", "trial_type": "audio-test", "trial_index": 2, "time_elapsed": 17496, "internal_node_id": "0.0-2.0"}}, {"uniqueid": "MTK0061:3RYC5T2D740V4F9VKWX9VSM0FSFRP2", "current_trial": 3, "dateTime": 1509061510029, "trialdata": {"rt": [8827], "responses": ["crystal"], "type": "AUDIO_TEST", "trial_type": "audio-test", "trial_index": 3, "time_elapsed": 26374, "internal_node_id": "0.0-3.0"}}, {"uniqueid": "MTK0061:3RYC5T2D740V4F9VKWX9VSM0FSFRP2", "current_trial": 4, "dateTime": 1509061514652, "trialdata": {"rt": [4579], "responses": ["spice"], "type": "AUDIO_TEST", "trial_type": "audio-test", "trial_index": 4, "time_elapsed": 30997, "internal_node_id": "0.0-4.0"}}, {"uniqueid": "MTK0061:3RYC5T2D740V4F9VKWX9VSM0FSFRP2", "current_trial": 5, "dateTime": 1509061516822, "trialdata": {"rt": 1412, "key_press": 32, "type": "INSTRUCTIONS", "trial_type": "text", "trial_index": 5, "time_elapsed": 33166, "internal_node_id": "0.0-5.0"}}, {"uniqueid": "MTK0061:3RYC5T2D740V4F9VKWX9VSM0FSFRP2", "current_trial": 6, "dateTime": 1509061519556, "trialdata": {"rt": 2721, "key_press": 38, "type": "INSTRUCTIONS", "trial_type": "text", "trial_index": 6, "time_elapsed": 35896, "internal_node_id": "0.0-6.0"}}, {"uniqueid": "MTK0061:3RYC5T2D740V4F9VKWX9VSM0FSFRP2", "current_trial": 7, "dateTime": 1509061522499, "trialdata": {"rt": 2937, "key_press": 13, "type": "INSTRUCTIONS", "trial_type": "text", "trial_index": 7, "time_elapsed": 38845, "internal_node_id": "0.0-7.0"}}, {"uniqueid": "MTK0061:3RYC5T2D740V4F9VKWX9VSM0FSFRP2", "current_trial": 8, "dateTime": 1509061524419, "trialdata": {"rt": 1918, "key_press": 13, "type": "INSTRUCTIONS", "trial_type": "text", "trial_index": 8, "time_elapsed": 40764, "internal_node_id": "0.0-8.0"}}, {"uniqueid": "MTK0061:3RYC5T2D740V4F9VKWX9VSM0FSFRP2", "current_trial": 9, "dateTime": 1509061543442, "trialdata": {"rt": [13721], "responses": ["18"], "num1": [9, 2], "num2": [3, 5], "num3": [6, 3], "type": "DISTRACTOR", "conditions": [18, 1200, "v", 18000], "trial": 0, "trial_type": "math-distractor", "trial_index": 9, "time_elapsed": 59787, "internal_node_id": "0.0-9.0"}}, {"uniqueid": "MTK0061:3RYC5T2D740V4F9VKWX9VSM0FSFRP2", "current_trial": 10, "dateTime": 1509061546526, "trialdata": {"rt": -1, "stimulus": "<p id=\"stim\">10</p>", "key_press": -1, "trial_type": "single-stim", "trial_index": 10, "time_elapsed": 62872, "internal_node_id": "0.0-10.0-0.0"}}, {"uniqueid": "MTK0061:3RYC5T2D740V4F9VKWX9VSM0FSFRP2", "current_trial": 11, "dateTime": 1509061547555, "trialdata": {"rt": 172, "stimulus": "<p id=\"stim\">9</p>", "key_press": 13, "trial_type": "single-stim", "trial_index": 11, "time_elapsed": 63901, "internal_node_id": "0.0-10.0-1.0"}}, {"uniqueid": "MTK0061:3RYC5T2D740V4F9VKWX9VSM0FSFRP2", "current_trial": 12, "dateTime": 1509061548631, "trialdata": {"rt": -1, "stimulus": "<p id=\"stim\">8</p>", "key_press": -1, "trial_type": "single-stim", "trial_index": 12, "time_elapsed": 64977, "internal_node_id": "0.0-10.0-2.0"}}, {"uniqueid": "MTK0061:3RYC5T2D740V4F9VKWX9VSM0FSFRP2", "current_trial": 13, "dateTime": 1509061549661, "trialdata": {"rt": -1, "stimulus": "<p id=\"stim\">7</p>", "key_press": -1, "trial_type": "single-stim", "trial_index": 13, "time_elapsed": 66006, "internal_node_id": "0.0-10.0-3.0"}}, {"uniqueid": "MTK0061:3RYC5T2D740V4F9VKWX9VSM0FSFRP2", "current_trial": 14, "dateTime": 1509061550760, "trialdata": {"rt": -1, "stimulus": "<p id=\"stim\">6</p>", "key_press": -1, "trial_type": "single-stim", "trial_index": 14, "time_elapsed": 67105, "internal_node_id": "0.0-10.0-4.0"}}, {"uniqueid": "MTK0061:3RYC5T2D740V4F9VKWX9VSM0FSFRP2", "current_trial": 15, "dateTime": 1509061551792, "trialdata": {"rt": -1, "stimulus": "<p id=\"stim\">5</p>", "key_press": -1, "trial_type": "single-stim", "trial_index": 15, "time_elapsed": 68137, "internal_node_id": "0.0-10.0-5.0"}}, {"uniqueid": "MTK0061:3RYC5T2D740V4F9VKWX9VSM0FSFRP2", "current_trial": 16, "dateTime": 1509061552873, "trialdata": {"rt": -1, "stimulus": "<p id=\"stim\">4</p>", "key_press": -1, "trial_type": "single-stim", "trial_index": 16, "time_elapsed": 69218, "internal_node_id": "0.0-10.0-6.0"}}, {"uniqueid": "MTK0061:3RYC5T2D740V4F9VKWX9VSM0FSFRP2", "current_trial": 17, "dateTime": 1509061553897, "trialdata": {"rt": -1, "stimulus": "<p id=\"stim\">3</p>", "key_press": -1, "trial_type": "single-stim", "trial_index": 17, "time_elapsed": 70243, "internal_node_id": "0.0-10.0-7.0"}}, {"uniqueid": "MTK0061:3RYC5T2D740V4F9VKWX9VSM0FSFRP2", "current_trial": 18, "dateTime": 1509061554979, "trialdata": {"rt": -1, "stimulus": "<p id=\"stim\">2</p>", "key_press": -1, "trial_type": "single-stim", "trial_index": 18, "time_elapsed": 71325, "internal_node_id": "0.0-10.0-8.0"}}, {"uniqueid": "MTK0061:3RYC5T2D740V4F9VKWX9VSM0FSFRP2", "current_trial": 19, "dateTime": 1509061556003, "trialdata": {"rt": -1, "stimulus": "<p id=\"stim\">1</p>", "key_press": -1, "trial_type": "single-stim", "trial_index": 19, "time_elapsed": 72349, "internal_node_id": "0.0-10.0-9.0"}}, {"uniqueid": "MTK0061:3RYC5T2D740V4F9VKWX9VSM0FSFRP2", "current_trial": 20, "dateTime": 1509061557511, "trialdata": {"rt": -1, "stimulus": "<p id=\"stim\">+</p>", "key_press": -1, "type": "FIXATION", "trial_type": "single-stim", "trial_index": 20, "time_elapsed": 73854, "internal_node_id": "0.0-11.0-0.0"}}, {"uniqueid": "MTK0061:3RYC5T2D740V4F9VKWX9VSM0FSFRP2", "current_trial": 21, "dateTime": 1509061558722, "trialdata": {"rt": -1, "stimulus": "<p id=\"stim\">NOVEL</p>", "key_press": -1, "type": "PRES_VIS", "word": "novel", "wordID": 959, "conditions": [18, 1200, "v", 18000], "trial": 0, "serialpos": 0, "trial_type": "single-stim", "trial_index": 21, "time_elapsed": 75065, "internal_node_id": "0.0-12.0"}}, {"uniqueid": "MTK0061:3RYC5T2D740V4F9VKWX9VSM0FSFRP2", "current_trial": 22, "dateTime": 1509061561099, "trialdata": {"rt": -1, "stimulus": "<p id=\"stim\">AIRPLANE</p>", "key_press": -1, "type": "PRES_VIS", "word": "airplane", "wordID": 11, "conditions": [18, 1200, "v", 18000], "trial": 0, "serialpos": 1, "trial_type": "single-stim", "trial_index": 22, "time_elapsed": 77444, "internal_node_id": "0.0-13.0"}}, {"uniqueid": "MTK0061:3RYC5T2D740V4F9VKWX9VSM0FSFRP2", "current_trial": 23, "dateTime": 1509061563268, "trialdata": {"rt": -1, "stimulus": "<p id=\"stim\">COUNTRY</p>", "key_press": -1, "type": "PRES_VIS", "word": "country", "wordID": 387, "conditions": [18, 1200, "v", 18000], "trial": 0, "serialpos": 2, "trial_type": "single-stim", "trial_index": 23, "time_elapsed": 79612, "internal_node_id": "0.0-14.0"}}, {"uniqueid": "MTK0061:3RYC5T2D740V4F9VKWX9VSM0FSFRP2", "current_trial": 24, "dateTime": 1509061565516, "trialdata": {"rt": -1, "stimulus": "<p id=\"stim\">BROTHER</p>", "key_press": -1, "type": "PRES_VIS", "word": "brother", "wordID": 178, "conditions": [18, 1200, "v", 18000], "trial": 0, "serialpos": 3, "trial_type": "single-stim", "trial_index": 24, "time_elapsed": 81861, "internal_node_id": "0.0-15.0"}}, {"uniqueid": "MTK0061:3RYC5T2D740V4F9VKWX9VSM0FSFRP2", "current_trial": 25, "dateTime": 1509061567673, "trialdata": {"rt": -1, "stimulus": "<p id=\"stim\">SHIRT</p>", "key_press": -1, "type": "PRES_VIS", "word": "shirt", "wordID": 1286, "conditions": [18, 1200, "v", 18000], "trial": 0, "serialpos": 4, "trial_type": "single-stim", "trial_index": 25, "time_elapsed": 84018, "internal_node_id": "0.0-16.0"}}, {"uniqueid": "MTK0061:3RYC5T2D740V4F9VKWX9VSM0FSFRP2", "current_trial": 26, "dateTime": 1509061569901, "trialdata": {"rt": -1, "stimulus": "<p id=\"stim\">PENGUIN</p>", "key_press": -1, "type": "PRES_VIS", "word": "penguin", "wordID": 1043, "conditions": [18, 1200, "v", 18000], "trial": 0, "serialpos": 5, "trial_type": "single-stim", "trial_index": 26, "time_elapsed": 86247, "internal_node_id": "0.0-17.0"}}, {"uniqueid": "MTK0061:3RYC5T2D740V4F9VKWX9VSM0FSFRP2", "current_trial": 27, "dateTime": 1509061572256, "trialdata": {"rt": -1, "stimulus": "<p id=\"stim\">MARINE</p>", "key_press": -1, "type": "PRES_VIS", "word": "marine", "wordID": 868, "conditions": [18, 1200, "v", 18000], "trial": 0, "serialpos": 6, "trial_type": "single-stim", "trial_index": 27, "time_elapsed": 88602, "internal_node_id": "0.0-18.0"}}, {"uniqueid": "MTK0061:3RYC5T2D740V4F9VKWX9VSM0FSFRP2", "current_trial": 28, "dateTime": 1509061574490, "trialdata": {"rt": -1, "stimulus": "<p id=\"stim\">WITNESS</p>", "key_press": -1, "type": "PRES_VIS", "word": "witness", "wordID": 1617, "conditions": [18, 1200, "v", 18000], "trial": 0, "serialpos": 7, "trial_type": "single-stim", "trial_index": 28, "time_elapsed": 90834, "internal_node_id": "0.0-19.0"}}, {"uniqueid": "MTK0061:3RYC5T2D740V4F9VKWX9VSM0FSFRP2", "current_trial": 29, "dateTime": 1509061576679, "trialdata": {"rt": -1, "stimulus": "<p id=\"stim\">PASSAGE</p>", "key_press": -1, "type": "PRES_VIS", "word": "passage", "wordID": 1018, "conditions": [18, 1200, "v", 18000], "trial": 0, "serialpos": 8, "trial_type": "single-stim", "trial_index": 29, "time_elapsed": 93023, "internal_node_id": "0.0-20.0"}}, {"uniqueid": "MTK0061:3RYC5T2D740V4F9VKWX9VSM0FSFRP2", "current_trial": 30, "dateTime": 1509061578843, "trialdata": {"rt": -1, "stimulus": "<p id=\"stim\">PERCH</p>", "key_press": -1, "type": "PRES_VIS", "word": "perch", "wordID": 1047, "conditions": [18, 1200, "v", 18000], "trial": 0, "serialpos": 9, "trial_type": "single-stim", "trial_index": 30, "time_elapsed": 95186, "internal_node_id": "0.0-21.0"}}, {"uniqueid": "MTK0061:3RYC5T2D740V4F9VKWX9VSM0FSFRP2", "current_trial": 31, "dateTime": 1509061581146, "trialdata": {"rt": -1, "stimulus": "<p id=\"stim\">PLAID</p>", "key_press": -1, "type": "PRES_VIS", "word": "plaid", "wordID": 1079, "conditions": [18, 1200, "v", 18000], "trial": 0, "serialpos": 10, "trial_type": "single-stim", "trial_index": 31, "time_elapsed": 97491, "internal_node_id": "0.0-22.0"}}, {"uniqueid": "MTK0061:3RYC5T2D740V4F9VKWX9VSM0FSFRP2", "current_trial": 32, "dateTime": 1509061583222, "trialdata": {"rt": -1, "stimulus": "<p id=\"stim\">PASTA</p>", "key_press": -1, "type": "PRES_VIS", "word": "pasta", "wordID": 1020, "conditions": [18, 1200, "v", 18000], "trial": 0, "serialpos": 11, "trial_type": "single-stim", "trial_index": 32, "time_elapsed": 99567, "internal_node_id": "0.0-23.0"}}, {"uniqueid": "MTK0061:3RYC5T2D740V4F9VKWX9VSM0FSFRP2", "current_trial": 33, "dateTime": 1509061585417, "trialdata": {"rt": -1, "stimulus": "<p id=\"stim\">AUTHOR</p>", "key_press": -1, "type": "PRES_VIS", "word": "author", "wordID": 60, "conditions": [18, 1200, "v", 18000], "trial": 0, "serialpos": 12, "trial_type": "single-stim", "trial_index": 33, "time_elapsed": 101762, "internal_node_id": "0.0-24.0"}}, {"uniqueid": "MTK0061:3RYC5T2D740V4F9VKWX9VSM0FSFRP2", "current_trial": 34, "dateTime": 1509061587562, "trialdata": {"rt": -1, "stimulus": "<p id=\"stim\">FLIPPER</p>", "key_press": -1, "type": "PRES_VIS", "word": "flipper", "wordID": 579, "conditions": [18, 1200, "v", 18000], "trial": 0, "serialpos": 13, "trial_type": "single-stim", "trial_index": 34, "time_elapsed": 103906, "internal_node_id": "0.0-25.0"}}, {"uniqueid": "MTK0061:3RYC5T2D740V4F9VKWX9VSM0FSFRP2", "current_trial": 35, "dateTime": 1509061589640, "trialdata": {"rt": -1, "stimulus": "<p id=\"stim\">ATLAS</p>", "key_press": -1, "type": "PRES_VIS", "word": "atlas", "wordID": 52, "conditions": [18, 1200, "v", 18000], "trial": 0, "serialpos": 14, "trial_type": "single-stim", "trial_index": 35, "time_elapsed": 105986, "internal_node_id": "0.0-26.0"}}, {"uniqueid": "MTK0061:3RYC5T2D740V4F9VKWX9VSM0FSFRP2", "current_trial": 36, "dateTime": 1509061591996, "trialdata": {"rt": -1, "stimulus": "<p id=\"stim\">WINDOW</p>", "key_press": -1, "type": "PRES_VIS", "word": "window", "wordID": 1610, "conditions": [18, 1200, "v", 18000], "trial": 0, "serialpos": 15, "trial_type": "single-stim", "trial_index": 36, "time_elapsed": 108339, "internal_node_id": "0.0-27.0"}}, {"uniqueid": "MTK0061:3RYC5T2D740V4F9VKWX9VSM0FSFRP2", "current_trial": 37, "dateTime": 1509061594270, "trialdata": {"rt": -1, "stimulus": "<p id=\"stim\">SUITCASE</p>", "key_press": -1, "type": "PRES_VIS", "word": "suitcase", "wordID": 1402, "conditions": [18, 1200, "v", 18000], "trial": 0, "serialpos": 16, "trial_type": "single-stim", "trial_index": 37, "time_elapsed": 110615, "internal_node_id": "0.0-28.0"}}, {"uniqueid": "MTK0061:3RYC5T2D740V4F9VKWX9VSM0FSFRP2", "current_trial": 38, "dateTime": 1509061596484, "trialdata": {"rt": -1, "stimulus": "<p id=\"stim\">FIDDLE</p>", "key_press": -1, "type": "PRES_VIS", "word": "fiddle", "wordID": 560, "conditions": [18, 1200, "v", 18000], "trial": 0, "serialpos": 17, "trial_type": "single-stim", "trial_index": 38, "time_elapsed": 112829, "internal_node_id": "0.0-29.0"}}, {"uniqueid": "MTK0061:3RYC5T2D740V4F9VKWX9VSM0FSFRP2", "current_trial": 39, "dateTime": 1509061598620, "trialdata": {"rt": -1, "stimulus": "", "key_press": -1, "type": "PRE_RECALL_DELAY", "trial_type": "single-stim", "trial_index": 39, "time_elapsed": 114962, "internal_node_id": "0.0-30.0-0.0"}}, {"uniqueid": "MTK0061:3RYC5T2D740V4F9VKWX9VSM0FSFRP2", "current_trial": 40, "dateTime": 1509061599130, "trialdata": {"rt": -1000, "stimulus": "/static/audio/400Hz.wav", "key_press": -1, "type": "PRE_RECALL_ALERT", "trial_type": "single-audio", "trial_index": 40, "time_elapsed": 115475, "internal_node_id": "0.0-31.0"}}, {"uniqueid": "MTK0061:3RYC5T2D740V4F9VKWX9VSM0FSFRP2", "current_trial": 41, "dateTime": 1509061659153, "trialdata": {"rt": [8418, 10685, 12681, 16512, 17889, 22265, 25123, 27093, 28747, 32218, 34731, 36834, 38366, 40114, 43833, 46674, 48801, 51578, 53975, 57399], "recwords": ["novel", "brother", "shirt", "penguin", "marine", "witness", "passage", "perch", "plaid", "pasta", "author", "flipper", "atlas", "window", "suitcase", "airport", "motel", "oax", "kitchen", "twister"], "type": "FREE_RECALL", "conditions": [18, 1200, "v", 18000], "trial": 0, "trial_type": "free-recall", "trial_index": 41, "time_elapsed": 175497, "internal_node_id": "0.0-32.0-0.0"}}, {"uniqueid": "MTK0061:3RYC5T2D740V4F9VKWX9VSM0FSFRP2", "current_trial": 42, "dateTime": 1509061666210, "trialdata": {"rt": 5049, "key_press": 13, "type": "INSTRUCTIONS", "trial_type": "text", "trial_index": 42, "time_elapsed": 182554, "internal_node_id": "0.0-33.0"}}, {"uniqueid": "MTK0061:3RYC5T2D740V4F9VKWX9VSM0FSFRP2", "current_trial": 43, "dateTime": 1509061686234, "trialdata": {"rt": [8417, 16805], "responses": ["10", "25"], "num1": [5, 5, 9], "num2": [4, 9, 4], "num3": [1, 8, 4], "type": "DISTRACTOR", "conditions": [18, 1200, "a", 18000], "trial": 1, "trial_type": "math-distractor", "trial_index": 43, "time_elapsed": 202579, "internal_node_id": "0.0-34.0"}}, {"uniqueid": "MTK0061:3RYC5T2D740V4F9VKWX9VSM0FSFRP2", "current_trial": 44, "dateTime": 1509061689244, "trialdata": {"rt": -1, "stimulus": "<p id=\"stim\">10</p>", "key_press": -1, "trial_type": "single-stim", "trial_index": 44, "time_elapsed": 205589, "internal_node_id": "0.0-35.0-0.0"}}, {"uniqueid": "MTK0061:3RYC5T2D740V4F9VKWX9VSM0FSFRP2", "current_trial": 45, "dateTime": 1509061690250, "trialdata": {"rt": -1, "stimulus": "<p id=\"stim\">9</p>", "key_press": -1, "trial_type": "single-stim", "trial_index": 45, "time_elapsed": 206594, "internal_node_id": "0.0-35.0-1.0"}}, {"uniqueid": "MTK0061:3RYC5T2D740V4F9VKWX9VSM0FSFRP2", "current_trial": 46, "dateTime": 1509061691258, "trialdata": {"rt": -1, "stimulus": "<p id=\"stim\">8</p>", "key_press": -1, "trial_type": "single-stim", "trial_index": 46, "time_elapsed": 207602, "internal_node_id": "0.0-35.0-2.0"}}, {"uniqueid": "MTK0061:3RYC5T2D740V4F9VKWX9VSM0FSFRP2", "current_trial": 47, "dateTime": 1509061692267, "trialdata": {"rt": -1, "stimulus": "<p id=\"stim\">7</p>", "key_press": -1, "trial_type": "single-stim", "trial_index": 47, "time_elapsed": 208610, "internal_node_id": "0.0-35.0-3.0"}}, {"uniqueid": "MTK0061:3RYC5T2D740V4F9VKWX9VSM0FSFRP2", "current_trial": 48, "dateTime": 1509061693276, "trialdata": {"rt": -1, "stimulus": "<p id=\"stim\">6</p>", "key_press": -1, "trial_type": "single-stim", "trial_index": 48, "time_elapsed": 209622, "internal_node_id": "0.0-35.0-4.0"}}, {"uniqueid": "MTK0061:3RYC5T2D740V4F9VKWX9VSM0FSFRP2", "current_trial": 49, "dateTime": 1509061694305, "trialdata": {"rt": -1, "stimulus": "<p id=\"stim\">5</p>", "key_press": -1, "trial_type": "single-stim", "trial_index": 49, "time_elapsed": 210650, "internal_node_id": "0.0-35.0-5.0"}}, {"uniqueid": "MTK0061:3RYC5T2D740V4F9VKWX9VSM0FSFRP2", "current_trial": 50, "dateTime": 1509061695340, "trialdata": {"rt": -1, "stimulus": "<p id=\"stim\">4</p>", "key_press": -1, "trial_type": "single-stim", "trial_index": 50, "time_elapsed": 211685, "internal_node_id": "0.0-35.0-6.0"}}, {"uniqueid": "MTK0061:3RYC5T2D740V4F9VKWX9VSM0FSFRP2", "current_trial": 51, "dateTime": 1509061696418, "trialdata": {"rt": -1, "stimulus": "<p id=\"stim\">3</p>", "key_press": -1, "trial_type": "single-stim", "trial_index": 51, "time_elapsed": 212762, "internal_node_id": "0.0-35.0-7.0"}}, {"uniqueid": "MTK0061:3RYC5T2D740V4F9VKWX9VSM0FSFRP2", "current_trial": 52, "dateTime": 1509061697500, "trialdata": {"rt": -1, "stimulus": "<p id=\"stim\">2</p>", "key_press": -1, "trial_type": "single-stim", "trial_index": 52, "time_elapsed": 213846, "internal_node_id": "0.0-35.0-8.0"}}, {"uniqueid": "MTK0061:3RYC5T2D740V4F9VKWX9VSM0FSFRP2", "current_trial": 53, "dateTime": 1509061698534, "trialdata": {"rt": -1, "stimulus": "<p id=\"stim\">1</p>", "key_press": -1, "trial_type": "single-stim", "trial_index": 53, "time_elapsed": 214879, "internal_node_id": "0.0-35.0-9.0"}}, {"uniqueid": "MTK0061:3RYC5T2D740V4F9VKWX9VSM0FSFRP2", "current_trial": 54, "dateTime": 1509061700039, "trialdata": {"rt": -1, "stimulus": "<p id=\"stim\">+</p>", "key_press": -1, "type": "FIXATION", "trial_type": "single-stim", "trial_index": 54, "time_elapsed": 216384, "internal_node_id": "0.0-36.0-0.0"}}, {"uniqueid": "MTK0061:3RYC5T2D740V4F9VKWX9VSM0FSFRP2", "current_trial": 55, "dateTime": 1509061702098, "trialdata": {"rt": -1000, "stimulus": "/static/audio/wordpool/AIRPORT.wav", "key_press": -1, "type": "PRES_AUD", "word": "airport", "wordID": 12, "conditions": [18, 1200, "a", 18000], "trial": 1, "serialpos": 0, "trial_type": "single-audio", "trial_index": 55, "time_elapsed": 218443, "internal_node_id": "0.0-37.0"}}, {"uniqueid": "MTK0061:3RYC5T2D740V4F9VKWX9VSM0FSFRP2", "current_trial": 56, "dateTime": 1509061704470, "trialdata": {"rt": -1000, "stimulus": "/static/audio/wordpool/ATOM.wav", "key_press": -1, "type": "PRES_AUD", "word": "atom", "wordID": 54, "conditions": [18, 1200, "a", 18000], "trial": 1, "serialpos": 1, "trial_type": "single-audio", "trial_index": 56, "time_elapsed": 220815, "internal_node_id": "0.0-38.0"}}, {"uniqueid": "MTK0061:3RYC5T2D740V4F9VKWX9VSM0FSFRP2", "current_trial": 57, "dateTime": 1509061706744, "trialdata": {"rt": -1000, "stimulus": "/static/audio/wordpool/RIVER.wav", "key_press": -1, "type": "PRES_AUD", "word": "river", "wordID": 1193, "conditions": [18, 1200, "a", 18000], "trial": 1, "serialpos": 2, "trial_type": "single-audio", "trial_index": 57, "time_elapsed": 223087, "internal_node_id": "0.0-39.0"}}, {"uniqueid": "MTK0061:3RYC5T2D740V4F9VKWX9VSM0FSFRP2", "current_trial": 58, "dateTime": 1509061708986, "trialdata": {"rt": -1000, "stimulus": "/static/audio/wordpool/MOTEL.wav", "key_press": -1, "type": "PRES_AUD", "word": "motel", "wordID": 918, "conditions": [18, 1200, "a", 18000], "trial": 1, "serialpos": 3, "trial_type": "single-audio", "trial_index": 58, "time_elapsed": 225329, "internal_node_id": "0.0-40.0"}}, {"uniqueid": "MTK0061:3RYC5T2D740V4F9VKWX9VSM0FSFRP2", "current_trial": 59, "dateTime": 1509061711313, "trialdata": {"rt": -1000, "stimulus": "/static/audio/wordpool/COLLEGE.wav", "key_press": -1, "type": "PRES_AUD", "word": "college", "wordID": 345, "conditions": [18, 1200, "a", 18000], "trial": 1, "serialpos": 4, "trial_type": "single-audio", "trial_index": 59, "time_elapsed": 227657, "internal_node_id": "0.0-41.0"}}, {"uniqueid": "MTK0061:3RYC5T2D740V4F9VKWX9VSM0FSFRP2", "current_trial": 60, "dateTime": 1509061713632, "trialdata": {"rt": -1000, "stimulus": "/static/audio/wordpool/OX.wav", "key_press": -1, "type": "PRES_AUD", "word": "ox", "wordID": 993, "conditions": [18, 1200, "a", 18000], "trial": 1, "serialpos": 5, "trial_type": "single-audio", "trial_index": 60, "time_elapsed": 229977, "internal_node_id": "0.0-42.0"}}, {"uniqueid": "MTK0061:3RYC5T2D740V4F9VKWX9VSM0FSFRP2", "current_trial": 61, "dateTime": 1509061715695, "trialdata": {"rt": -1000, "stimulus": "/static/audio/wordpool/TWISTER.wav", "key_press": -1, "type": "PRES_AUD", "word": "twister", "wordID": 1529, "conditions": [18, 1200, "a", 18000], "trial": 1, "serialpos": 6, "trial_type": "single-audio", "trial_index": 61, "time_elapsed": 232040, "internal_node_id": "0.0-43.0"}}, {"uniqueid": "MTK0061:3RYC5T2D740V4F9VKWX9VSM0FSFRP2", "current_trial": 62, "dateTime": 1509061717801, "trialdata": {"rt": -1000, "stimulus": "/static/audio/wordpool/SPOOL.wav", "key_press": -1, "type": "PRES_AUD", "word": "spool", "wordID": 1355, "conditions": [18, 1200, "a", 18000], "trial": 1, "serialpos": 7, "trial_type": "single-audio", "trial_index": 62, "time_elapsed": 234145, "internal_node_id": "0.0-44.0"}}, {"uniqueid": "MTK0061:3RYC5T2D740V4F9VKWX9VSM0FSFRP2", "current_trial": 63, "dateTime": 1509061720169, "trialdata": {"rt": -1000, "stimulus": "/static/audio/wordpool/STREAM.wav", "key_press": -1, "type": "PRES_AUD", "word": "stream", "wordID": 1391, "conditions": [18, 1200, "a", 18000], "trial": 1, "serialpos": 8, "trial_type": "single-audio", "trial_index": 63, "time_elapsed": 236512, "internal_node_id": "0.0-45.0"}}, {"uniqueid": "MTK0061:3RYC5T2D740V4F9VKWX9VSM0FSFRP2", "current_trial": 64, "dateTime": 1509061722371, "trialdata": {"rt": -1000, "stimulus": "/static/audio/wordpool/KITCHEN.wav", "key_press": -1, "type": "PRES_AUD", "word": "kitchen", "wordID": 777, "conditions": [18, 1200, "a", 18000], "trial": 1, "serialpos": 9, "trial_type": "single-audio", "trial_index": 64, "time_elapsed": 238713, "internal_node_id": "0.0-46.0"}}, {"uniqueid": "MTK0061:3RYC5T2D740V4F9VKWX9VSM0FSFRP2", "current_trial": 65, "dateTime": 1509061724728, "trialdata": {"rt": -1000, "stimulus": "/static/audio/wordpool/TYPIST.wav", "key_press": -1, "type": "PRES_AUD", "word": "typist", "wordID": 1531, "conditions": [18, 1200, "a", 18000], "trial": 1, "serialpos": 10, "trial_type": "single-audio", "trial_index": 65, "time_elapsed": 241072, "internal_node_id": "0.0-47.0"}}, {"uniqueid": "MTK0061:3RYC5T2D740V4F9VKWX9VSM0FSFRP2", "current_trial": 66, "dateTime": 1509061726907, "trialdata": {"rt": -1000, "stimulus": "/static/audio/wordpool/BREAST.wav", "key_press": -1, "type": "PRES_AUD", "word": "breast", "wordID": 170, "conditions": [18, 1200, "a", 18000], "trial": 1, "serialpos": 11, "trial_type": "single-audio", "trial_index": 66, "time_elapsed": 243250, "internal_node_id": "0.0-48.0"}}, {"uniqueid": "MTK0061:3RYC5T2D740V4F9VKWX9VSM0FSFRP2", "current_trial": 67, "dateTime": 1509061729097, "trialdata": {"rt": -1000, "stimulus": "/static/audio/wordpool/CUSTARD.wav", "key_press": -1, "type": "PRES_AUD", "word": "custard", "wordID": 428, "conditions": [18, 1200, "a", 18000], "trial": 1, "serialpos": 12, "trial_type": "single-audio", "trial_index": 67, "time_elapsed": 245439, "internal_node_id": "0.0-49.0"}}, {"uniqueid": "MTK0061:3RYC5T2D740V4F9VKWX9VSM0FSFRP2", "current_trial": 68, "dateTime": 1509061731334, "trialdata": {"rt": -1000, "stimulus": "/static/audio/wordpool/BRANDY.wav", "key_press": -1, "type": "PRES_AUD", "word": "brandy", "wordID": 168, "conditions": [18, 1200, "a", 18000], "trial": 1, "serialpos": 13, "trial_type": "single-audio", "trial_index": 68, "time_elapsed": 247678, "internal_node_id": "0.0-50.0"}}, {"uniqueid": "MTK0061:3RYC5T2D740V4F9VKWX9VSM0FSFRP2", "current_trial": 69, "dateTime": 1509061733665, "trialdata": {"rt": -1000, "stimulus": "/static/audio/wordpool/FRUIT.wav", "key_press": -1, "type": "PRES_AUD", "word": "fruit", "wordID": 609, "conditions": [18, 1200, "a", 18000], "trial": 1, "serialpos": 14, "trial_type": "single-audio", "trial_index": 69, "time_elapsed": 250010, "internal_node_id": "0.0-51.0"}}, {"uniqueid": "MTK0061:3RYC5T2D740V4F9VKWX9VSM0FSFRP2", "current_trial": 70, "dateTime": 1509061735920, "trialdata": {"rt": -1000, "stimulus": "/static/audio/wordpool/PISTON.wav", "key_press": -1, "type": "PRES_AUD", "word": "piston", "wordID": 1075, "conditions": [18, 1200, "a", 18000], "trial": 1, "serialpos": 15, "trial_type": "single-audio", "trial_index": 70, "time_elapsed": 252265, "internal_node_id": "0.0-52.0"}}, {"uniqueid": "MTK0061:3RYC5T2D740V4F9VKWX9VSM0FSFRP2", "current_trial": 71, "dateTime": 1509061738177, "trialdata": {"rt": -1000, "stimulus": "/static/audio/wordpool/QUAIL.wav", "key_press": -1, "type": "PRES_AUD", "word": "quail", "wordID": 1146, "conditions": [18, 1200, "a", 18000], "trial": 1, "serialpos": 16, "trial_type": "single-audio", "trial_index": 71, "time_elapsed": 254522, "internal_node_id": "0.0-53.0"}}, {"uniqueid": "MTK0061:3RYC5T2D740V4F9VKWX9VSM0FSFRP2", "current_trial": 72, "dateTime": 1509061740346, "trialdata": {"rt": -1000, "stimulus": "/static/audio/wordpool/SERVER.wav", "key_press": -1, "type": "PRES_AUD", "word": "server", "wordID": 1271, "conditions": [18, 1200, "a", 18000], "trial": 1, "serialpos": 17, "trial_type": "single-audio", "trial_index": 72, "time_elapsed": 256691, "internal_node_id": "0.0-54.0"}}, {"uniqueid": "MTK0061:3RYC5T2D740V4F9VKWX9VSM0FSFRP2", "current_trial": 73, "dateTime": 1509061741600, "trialdata": {"rt": -1, "stimulus": "", "key_press": -1, "type": "PRE_RECALL_DELAY", "trial_type": "single-stim", "trial_index": 73, "time_elapsed": 257941, "internal_node_id": "0.0-55.0-0.0"}}, {"uniqueid": "MTK0061:3RYC5T2D740V4F9VKWX9VSM0FSFRP2", "current_trial": 74, "dateTime": 1509061742110, "trialdata": {"rt": -1000, "stimulus": "/static/audio/400Hz.wav", "key_press": -1, "type": "PRE_RECALL_ALERT", "trial_type": "single-audio", "trial_index": 74, "time_elapsed": 258455, "internal_node_id": "0.0-56.0"}}, {"uniqueid": "MTK0061:3RYC5T2D740V4F9VKWX9VSM0FSFRP2", "current_trial": 75, "dateTime": 1509061802137, "trialdata": {"rt": [7486, 9951, 11413, 13445, 16624, 18869, 22256, 27097, 29939, 32720, 35859, 38096, 40721, 45403, 53781, 57559], "recwords": ["airport", "atom", "river", "motel", "college", "pax", "twister", "school", "stream", "kitchen", "typist", "breast", "custer", "brandy", "fruit", "piston"], "type": "FREE_RECALL", "conditions": [18, 1200, "a", 18000], "trial": 1, "trial_type": "free-recall", "trial_index": 75, "time_elapsed": 318481, "internal_node_id": "0.0-57.0-0.0"}}, {"uniqueid": "MTK0061:3RYC5T2D740V4F9VKWX9VSM0FSFRP2", "current_trial": 76, "dateTime": 1509061807233, "trialdata": {"rt": 3083, "key_press": 32, "type": "INSTRUCTIONS", "trial_type": "text", "trial_index": 76, "time_elapsed": 323576, "internal_node_id": "0.0-58.0"}}, {"uniqueid": "MTK0061:3RYC5T2D740V4F9VKWX9VSM0FSFRP2", "current_trial": 77, "dateTime": 1509061820257, "trialdata": {"rt": [], "responses": [], "num1": [9], "num2": [6], "num3": [6], "type": "DISTRACTOR", "conditions": [12, 1600, "v", 12000], "trial": 2, "trial_type": "math-distractor", "trial_index": 77, "time_elapsed": 336597, "internal_node_id": "0.0-59.0"}}, {"uniqueid": "MTK0061:3RYC5T2D740V4F9VKWX9VSM0FSFRP2", "current_trial": 78, "dateTime": 1509061823269, "trialdata": {"rt": -1, "stimulus": "<p id=\"stim\">10</p>", "key_press": -1, "trial_type": "single-stim", "trial_index": 78, "time_elapsed": 339612, "internal_node_id": "0.0-60.0-0.0"}}, {"uniqueid": "MTK0061:3RYC5T2D740V4F9VKWX9VSM0FSFRP2", "current_trial": 79, "dateTime": 1509061824277, "trialdata": {"rt": -1, "stimulus": "<p id=\"stim\">9</p>", "key_press": -1, "trial_type": "single-stim", "trial_index": 79, "time_elapsed": 340619, "internal_node_id": "0.0-60.0-1.0"}}, {"uniqueid": "MTK0061:3RYC5T2D740V4F9VKWX9VSM0FSFRP2", "current_trial": 80, "dateTime": 1509061825283, "trialdata": {"rt": -1, "stimulus": "<p id=\"stim\">8</p>", "key_press": -1, "trial_type": "single-stim", "trial_index": 80, "time_elapsed": 341628, "internal_node_id": "0.0-60.0-2.0"}}, {"uniqueid": "MTK0061:3RYC5T2D740V4F9VKWX9VSM0FSFRP2", "current_trial": 81, "dateTime": 1509061826290, "trialdata": {"rt": -1, "stimulus": "<p id=\"stim\">7</p>", "key_press": -1, "trial_type": "single-stim", "trial_index": 81, "time_elapsed": 342635, "internal_node_id": "0.0-60.0-3.0"}}, {"uniqueid": "MTK0061:3RYC5T2D740V4F9VKWX9VSM0FSFRP2", "current_trial": 82, "dateTime": 1509061827294, "trialdata": {"rt": -1, "stimulus": "<p id=\"stim\">6</p>", "key_press": -1, "trial_type": "single-stim", "trial_index": 82, "time_elapsed": 343639, "internal_node_id": "0.0-60.0-4.0"}}, {"uniqueid": "MTK0061:3RYC5T2D740V4F9VKWX9VSM0FSFRP2", "current_trial": 83, "dateTime": 1509061828300, "trialdata": {"rt": -1, "stimulus": "<p id=\"stim\">5</p>", "key_press": -1, "trial_type": "single-stim", "trial_index": 83, "time_elapsed": 344645, "internal_node_id": "0.0-60.0-5.0"}}, {"uniqueid": "MTK0061:3RYC5T2D740V4F9VKWX9VSM0FSFRP2", "current_trial": 84, "dateTime": 1509061829304, "trialdata": {"rt": -1, "stimulus": "<p id=\"stim\">4</p>", "key_press": -1, "trial_type": "single-stim", "trial_index": 84, "time_elapsed": 345649, "internal_node_id": "0.0-60.0-6.0"}}, {"uniqueid": "MTK0061:3RYC5T2D740V4F9VKWX9VSM0FSFRP2", "current_trial": 85, "dateTime": 1509061830315, "trialdata": {"rt": -1, "stimulus": "<p id=\"stim\">3</p>", "key_press": -1, "trial_type": "single-stim", "trial_index": 85, "time_elapsed": 346655, "internal_node_id": "0.0-60.0-7.0"}}, {"uniqueid": "MTK0061:3RYC5T2D740V4F9VKWX9VSM0FSFRP2", "current_trial": 86, "dateTime": 1509061831321, "trialdata": {"rt": -1, "stimulus": "<p id=\"stim\">2</p>", "key_press": -1, "trial_type": "single-stim", "trial_index": 86, "time_elapsed": 347666, "internal_node_id": "0.0-60.0-8.0"}}, {"uniqueid": "MTK0061:3RYC5T2D740V4F9VKWX9VSM0FSFRP2", "current_trial": 87, "dateTime": 1509061832327, "trialdata": {"rt": -1, "stimulus": "<p id=\"stim\">1</p>", "key_press": -1, "trial_type": "single-stim", "trial_index": 87, "time_elapsed": 348672, "internal_node_id": "0.0-60.0-9.0"}}, {"uniqueid": "MTK0061:3RYC5T2D740V4F9VKWX9VSM0FSFRP2", "current_trial": 88, "dateTime": 1509061833834, "trialdata": {"rt": -1, "stimulus": "<p id=\"stim\">+</p>", "key_press": -1, "type": "FIXATION", "trial_type": "single-stim", "trial_index": 88, "time_elapsed": 350179, "internal_node_id": "0.0-61.0-0.0"}}, {"uniqueid": "MTK0061:3RYC5T2D740V4F9VKWX9VSM0FSFRP2", "current_trial": 89, "dateTime": 1509061835438, "trialdata": {"rt": -1, "stimulus": "<p id=\"stim\">CHAUFFEUR</p>", "key_press": -1, "type": "PRES_VIS", "word": "chauffeur", "wordID": 282, "conditions": [12, 1600, "v", 12000], "trial": 2, "serialpos": 0, "trial_type": "single-stim", "trial_index": 89, "time_elapsed": 351783, "internal_node_id": "0.0-62.0"}}, {"uniqueid": "MTK0061:3RYC5T2D740V4F9VKWX9VSM0FSFRP2", "current_trial": 90, "dateTime": 1509061838144, "trialdata": {"rt": -1, "stimulus": "<p id=\"stim\">PIANO</p>", "key_press": -1, "type": "PRES_VIS", "word": "piano", "wordID": 1056, "conditions": [12, 1600, "v", 12000], "trial": 2, "serialpos": 1, "trial_type": "single-stim", "trial_index": 90, "time_elapsed": 354489, "internal_node_id": "0.0-63.0"}}, {"uniqueid": "MTK0061:3RYC5T2D740V4F9VKWX9VSM0FSFRP2", "current_trial": 91, "dateTime": 1509061840935, "trialdata": {"rt": -1, "stimulus": "<p id=\"stim\">SPACE</p>", "key_press": -1, "type": "PRES_VIS", "word": "space", "wordID": 1344, "conditions": [12, 1600, "v", 12000], "trial": 2, "serialpos": 2, "trial_type": "single-stim", "trial_index": 91, "time_elapsed": 357280, "internal_node_id": "0.0-64.0"}}, {"uniqueid": "MTK0061:3RYC5T2D740V4F9VKWX9VSM0FSFRP2", "current_trial": 92, "dateTime": 1509061843468, "trialdata": {"rt": -1, "stimulus": "<p id=\"stim\">CRAYON</p>", "key_press": -1, "type": "PRES_VIS", "word": "crayon", "wordID": 400, "conditions": [12, 1600, "v", 12000], "trial": 2, "serialpos": 3, "trial_type": "single-stim", "trial_index": 92, "time_elapsed": 359813, "internal_node_id": "0.0-65.0"}}, {"uniqueid": "MTK0061:3RYC5T2D740V4F9VKWX9VSM0FSFRP2", "current_trial": 93, "dateTime": 1509061846038, "trialdata": {"rt": -1, "stimulus": "<p id=\"stim\">SALMON</p>", "key_press": -1, "type": "PRES_VIS", "word": "salmon", "wordID": 1226, "conditions": [12, 1600, "v", 12000], "trial": 2, "serialpos": 4, "trial_type": "single-stim", "trial_index": 93, "time_elapsed": 362383, "internal_node_id": "0.0-66.0"}}, {"uniqueid": "MTK0061:3RYC5T2D740V4F9VKWX9VSM0FSFRP2", "current_trial": 94, "dateTime": 1509061848809, "trialdata": {"rt": -1, "stimulus": "<p id=\"stim\">CRAB</p>", "key_press": -1, "type": "PRES_VIS", "word": "crab", "wordID": 396, "conditions": [12, 1600, "v", 12000], "trial": 2, "serialpos": 5, "trial_type": "single-stim", "trial_index": 94, "time_elapsed": 365155, "internal_node_id": "0.0-67.0"}}, {"uniqueid": "MTK0061:3RYC5T2D740V4F9VKWX9VSM0FSFRP2", "current_trial": 95, "dateTime": 1509061851495, "trialdata": {"rt": -1, "stimulus": "<p id=\"stim\">DANCER</p>", "key_press": -1, "type": "PRES_VIS", "word": "dancer", "wordID": 436, "conditions": [12, 1600, "v", 12000], "trial": 2, "serialpos": 6, "trial_type": "single-stim", "trial_index": 95, "time_elapsed": 367838, "internal_node_id": "0.0-68.0"}}, {"uniqueid": "MTK0061:3RYC5T2D740V4F9VKWX9VSM0FSFRP2", "current_trial": 96, "dateTime": 1509061854129, "trialdata": {"rt": -1, "stimulus": "<p id=\"stim\">SKETCH</p>", "key_press": -1, "type": "PRES_VIS", "word": "sketch", "wordID": 1314, "conditions": [12, 1600, "v", 12000], "trial": 2, "serialpos": 7, "trial_type": "single-stim", "trial_index": 96, "time_elapsed": 370475, "internal_node_id": "0.0-69.0"}}, {"uniqueid": "MTK0061:3RYC5T2D740V4F9VKWX9VSM0FSFRP2", "current_trial": 97, "dateTime": 1509061856850, "trialdata": {"rt": -1, "stimulus": "<p id=\"stim\">CHEST</p>", "key_press": -1, "type": "PRES_VIS", "word": "chest", "wordID": 294, "conditions": [12, 1600, "v", 12000], "trial": 2, "serialpos": 8, "trial_type": "single-stim", "trial_index": 97, "time_elapsed": 373192, "internal_node_id": "0.0-70.0"}}, {"uniqueid": "MTK0061:3RYC5T2D740V4F9VKWX9VSM0FSFRP2", "current_trial": 98, "dateTime": 1509061859689, "trialdata": {"rt": -1, "stimulus": "<p id=\"stim\">GARDEN</p>", "key_press": -1, "type": "PRES_VIS", "word": "garden", "wordID": 622, "conditions": [12, 1600, "v", 12000], "trial": 2, "serialpos": 9, "trial_type": "single-stim", "trial_index": 98, "time_elapsed": 376034, "internal_node_id": "0.0-71.0"}}, {"uniqueid": "MTK0061:3RYC5T2D740V4F9VKWX9VSM0FSFRP2", "current_trial": 99, "dateTime": 1509061862209, "trialdata": {"rt": -1, "stimulus": "<p id=\"stim\">GYMNAST</p>", "key_press": -1, "type": "PRES_VIS", "word": "gymnast", "wordID": 674, "conditions": [12, 1600, "v", 12000], "trial": 2, "serialpos": 10, "trial_type": "single-stim", "trial_index": 99, "time_elapsed": 378552, "internal_node_id": "0.0-72.0"}}, {"uniqueid": "MTK0061:3RYC5T2D740V4F9VKWX9VSM0FSFRP2", "current_trial": 100, "dateTime": 1509061864895, "trialdata": {"rt": -1, "stimulus": "<p id=\"stim\">PEPPER</p>", "key_press": -1, "type": "PRES_VIS", "word": "pepper", "wordID": 1046, "conditions": [12, 1600, "v", 12000], "trial": 2, "serialpos": 11, "trial_type": "single-stim", "trial_index": 100, "time_elapsed": 381240, "internal_node_id": "0.0-73.0"}}, {"uniqueid": "MTK0061:3RYC5T2D740V4F9VKWX9VSM0FSFRP2", "current_trial": 101, "dateTime": 1509061867320, "trialdata": {"rt": -1, "stimulus": "", "key_press": -1, "type": "PRE_RECALL_DELAY", "trial_type": "single-stim", "trial_index": 101, "time_elapsed": 383665, "internal_node_id": "0.0-74.0-0.0"}}, {"uniqueid": "MTK0061:3RYC5T2D740V4F9VKWX9VSM0FSFRP2", "current_trial": 102, "dateTime": 1509061867830, "trialdata": {"rt": -1000, "stimulus": "/static/audio/400Hz.wav", "key_press": -1, "type": "PRE_RECALL_ALERT", "trial_type": "single-audio", "trial_index": 102, "time_elapsed": 384173, "internal_node_id": "0.0-75.0"}}, {"uniqueid": "MTK0061:3RYC5T2D740V4F9VKWX9VSM0FSFRP2", "current_trial": 103, "dateTime": 1509061927850, "trialdata": {"rt": [5429, 8083, 12052, 14939, 17815, 19911, 22257, 27037, 30239, 32334, 36329, 39807, 43183, 47111, 49804, 55757], "recwords": ["chaffur", "piano", "space", "crayon", "salmon", "crab", "dancer", "skecth", "chest", "garden", "gymnast", "pepper", "mat", "breast", "piano", "crayon"], "type": "FREE_RECALL", "conditions": [12, 1600, "v", 12000], "trial": 2, "trial_type": "free-recall", "trial_index": 103, "time_elapsed": 444194, "internal_node_id": "0.0-76.0-0.0"}}, {"uniqueid": "MTK0061:3RYC5T2D740V4F9VKWX9VSM0FSFRP2", "current_trial": 104, "dateTime": 1509061931415, "trialdata": {"rt": 1558, "key_press": 32, "type": "INSTRUCTIONS", "trial_type": "text", "trial_index": 104, "time_elapsed": 447760, "internal_node_id": "0.0-77.0"}}, {"uniqueid": "MTK0061:3RYC5T2D740V4F9VKWX9VSM0FSFRP2", "current_trial": 105, "dateTime": 1509061945494, "trialdata": {"rt": [], "responses": [], "num1": [5], "num2": [3], "num3": [6], "type": "DISTRACTOR", "conditions": [24, 1600, "a", 12000], "trial": 3, "trial_type": "math-distractor", "trial_index": 105, "time_elapsed": 461838, "internal_node_id": "0.0-78.0"}}, {"uniqueid": "MTK0061:3RYC5T2D740V4F9VKWX9VSM0FSFRP2", "current_trial": 106, "dateTime": 1509061948504, "trialdata": {"rt": -1, "stimulus": "<p id=\"stim\">10</p>", "key_press": -1, "trial_type": "single-stim", "trial_index": 106, "time_elapsed": 464847, "internal_node_id": "0.0-79.0-0.0"}}, {"uniqueid": "MTK0061:3RYC5T2D740V4F9VKWX9VSM0FSFRP2", "current_trial": 107, "dateTime": 1509061949515, "trialdata": {"rt": -1, "stimulus": "<p id=\"stim\">9</p>", "key_press": -1, "trial_type": "single-stim", "trial_index": 107, "time_elapsed": 465858, "internal_node_id": "0.0-79.0-1.0"}}, {"uniqueid": "MTK0061:3RYC5T2D740V4F9VKWX9VSM0FSFRP2", "current_trial": 108, "dateTime": 1509061950523, "trialdata": {"rt": -1, "stimulus": "<p id=\"stim\">8</p>", "key_press": -1, "trial_type": "single-stim", "trial_index": 108, "time_elapsed": 466867, "internal_node_id": "0.0-79.0-2.0"}}, {"uniqueid": "MTK0061:3RYC5T2D740V4F9VKWX9VSM0FSFRP2", "current_trial": 109, "dateTime": 1509061951529, "trialdata": {"rt": -1, "stimulus": "<p id=\"stim\">7</p>", "key_press": -1, "trial_type": "single-stim", "trial_index": 109, "time_elapsed": 467874, "internal_node_id": "0.0-79.0-3.0"}}, {"uniqueid": "MTK0061:3RYC5T2D740V4F9VKWX9VSM0FSFRP2", "current_trial": 110, "dateTime": 1509061952537, "trialdata": {"rt": -1, "stimulus": "<p id=\"stim\">6</p>", "key_press": -1, "trial_type": "single-stim", "trial_index": 110, "time_elapsed": 468881, "internal_node_id": "0.0-79.0-4.0"}}, {"uniqueid": "MTK0061:3RYC5T2D740V4F9VKWX9VSM0FSFRP2", "current_trial": 111, "dateTime": 1509061953541, "trialdata": {"rt": -1, "stimulus": "<p id=\"stim\">5</p>", "key_press": -1, "trial_type": "single-stim", "trial_index": 111, "time_elapsed": 469886, "internal_node_id": "0.0-79.0-5.0"}}, {"uniqueid": "MTK0061:3RYC5T2D740V4F9VKWX9VSM0FSFRP2", "current_trial": 112, "dateTime": 1509061954546, "trialdata": {"rt": -1, "stimulus": "<p id=\"stim\">4</p>", "key_press": -1, "trial_type": "single-stim", "trial_index": 112, "time_elapsed": 470891, "internal_node_id": "0.0-79.0-6.0"}}, {"uniqueid": "MTK0061:3RYC5T2D740V4F9VKWX9VSM0FSFRP2", "current_trial": 113, "dateTime": 1509061955551, "trialdata": {"rt": -1, "stimulus": "<p id=\"stim\">3</p>", "key_press": -1, "trial_type": "single-stim", "trial_index": 113, "time_elapsed": 471896, "internal_node_id": "0.0-79.0-7.0"}}, {"uniqueid": "MTK0061:3RYC5T2D740V4F9VKWX9VSM0FSFRP2", "current_trial": 114, "dateTime": 1509061956563, "trialdata": {"rt": -1, "stimulus": "<p id=\"stim\">2</p>", "key_press": -1, "trial_type": "single-stim", "trial_index": 114, "time_elapsed": 472905, "internal_node_id": "0.0-79.0-8.0"}}, {"uniqueid": "MTK0061:3RYC5T2D740V4F9VKWX9VSM0FSFRP2", "current_trial": 115, "dateTime": 1509061957582, "trialdata": {"rt": -1, "stimulus": "<p id=\"stim\">1</p>", "key_press": -1, "trial_type": "single-stim", "trial_index": 115, "time_elapsed": 473928, "internal_node_id": "0.0-79.0-9.0"}}, {"uniqueid": "MTK0061:3RYC5T2D740V4F9VKWX9VSM0FSFRP2", "current_trial": 116, "dateTime": 1509061959088, "trialdata": {"rt": -1, "stimulus": "<p id=\"stim\">+</p>", "key_press": -1, "type": "FIXATION", "trial_type": "single-stim", "trial_index": 116, "time_elapsed": 475433, "internal_node_id": "0.0-80.0-0.0"}}, {"uniqueid": "MTK0061:3RYC5T2D740V4F9VKWX9VSM0FSFRP2", "current_trial": 117, "dateTime": 1509061961828, "trialdata": {"rt": -1000, "stimulus": "/static/audio/wordpool/TART.wav", "key_press": -1, "type": "PRES_AUD", "word": "tart", "wordID": 1435, "conditions": [24, 1600, "a", 12000], "trial": 3, "serialpos": 0, "trial_type": "single-audio", "trial_index": 117, "time_elapsed": 478173, "internal_node_id": "0.0-81.0"}}, {"uniqueid": "MTK0061:3RYC5T2D740V4F9VKWX9VSM0FSFRP2", "current_trial": 118, "dateTime": 1509061964483, "trialdata": {"rt": -1000, "stimulus": "/static/audio/wordpool/VICTIM.wav", "key_press": -1, "type": "PRES_AUD", "word": "victim", "wordID": 1561, "conditions": [24, 1600, "a", 12000], "trial": 3, "serialpos": 1, "trial_type": "single-audio", "trial_index": 118, "time_elapsed": 480829, "internal_node_id": "0.0-82.0"}}, {"uniqueid": "MTK0061:3RYC5T2D740V4F9VKWX9VSM0FSFRP2", "current_trial": 119, "dateTime": 1509061967230, "trialdata": {"rt": -1000, "stimulus": "/static/audio/wordpool/ANTLER.wav", "key_press": -1, "type": "PRES_AUD", "word": "antler", "wordID": 28, "conditions": [24, 1600, "a", 12000], "trial": 3, "serialpos": 2, "trial_type": "single-audio", "trial_index": 119, "time_elapsed": 483575, "internal_node_id": "0.0-83.0"}}, {"uniqueid": "MTK0061:3RYC5T2D740V4F9VKWX9VSM0FSFRP2", "current_trial": 120, "dateTime": 1509061969683, "trialdata": {"rt": -1000, "stimulus": "/static/audio/wordpool/HONEY.wav", "key_press": -1, "type": "PRES_AUD", "word": "honey", "wordID": 712, "conditions": [24, 1600, "a", 12000], "trial": 3, "serialpos": 3, "trial_type": "single-audio", "trial_index": 120, "time_elapsed": 486028, "internal_node_id": "0.0-84.0"}}, {"uniqueid": "MTK0061:3RYC5T2D740V4F9VKWX9VSM0FSFRP2", "current_trial": 121, "dateTime": 1509061972164, "trialdata": {"rt": -1000, "stimulus": "/static/audio/wordpool/DOUGHNUT.wav", "key_press": -1, "type": "PRES_AUD", "word": "doughnut", "wordID": 489, "conditions": [24, 1600, "a", 12000], "trial": 3, "serialpos": 4, "trial_type": "single-audio", "trial_index": 121, "time_elapsed": 488509, "internal_node_id": "0.0-85.0"}}, {"uniqueid": "MTK0061:3RYC5T2D740V4F9VKWX9VSM0FSFRP2", "current_trial": 122, "dateTime": 1509061974922, "trialdata": {"rt": -1000, "stimulus": "/static/audio/wordpool/OMELET.wav", "key_press": -1, "type": "PRES_AUD", "word": "omelet", "wordID": 975, "conditions": [24, 1600, "a", 12000], "trial": 3, "serialpos": 5, "trial_type": "single-audio", "trial_index": 122, "time_elapsed": 491267, "internal_node_id": "0.0-86.0"}}, {"uniqueid": "MTK0061:3RYC5T2D740V4F9VKWX9VSM0FSFRP2", "current_trial": 123, "dateTime": 1509061977524, "trialdata": {"rt": -1000, "stimulus": "/static/audio/wordpool/TROUT.wav", "key_press": -1, "type": "PRES_AUD", "word": "trout", "wordID": 1510, "conditions": [24, 1600, "a", 12000], "trial": 3, "serialpos": 6, "trial_type": "single-audio", "trial_index": 123, "time_elapsed": 493869, "internal_node_id": "0.0-87.0"}}, {"uniqueid": "MTK0061:3RYC5T2D740V4F9VKWX9VSM0FSFRP2", "current_trial": 124, "dateTime": 1509061979963, "trialdata": {"rt": -1000, "stimulus": "/static/audio/wordpool/RAZOR.wav", "key_press": -1, "type": "PRES_AUD", "word": "razor", "wordID": 1170, "conditions": [24, 1600, "a", 12000], "trial": 3, "serialpos": 7, "trial_type": "single-audio", "trial_index": 124, "time_elapsed": 496308, "internal_node_id": "0.0-88.0"}}, {"uniqueid": "MTK0061:3RYC5T2D740V4F9VKWX9VSM0FSFRP2", "current_trial": 125, "dateTime": 1509061982762, "trialdata": {"rt": -1000, "stimulus": "/static/audio/wordpool/SCALPEL.wav", "key_press": -1, "type": "PRES_AUD", "word": "scalpel", "wordID": 1242, "conditions": [24, 1600, "a", 12000], "trial": 3, "serialpos": 8, "trial_type": "single-audio", "trial_index": 125, "time_elapsed": 499107, "internal_node_id": "0.0-89.0"}}, {"uniqueid": "MTK0061:3RYC5T2D740V4F9VKWX9VSM0FSFRP2", "current_trial": 126, "dateTime": 1509061985202, "trialdata": {"rt": -1000, "stimulus": "/static/audio/wordpool/SHORTCAKE.wav", "key_press": -1, "type": "PRES_AUD", "word": "shortcake", "wordID": 1291, "conditions": [24, 1600, "a", 12000], "trial": 3, "serialpos": 9, "trial_type": "single-audio", "trial_index": 126, "time_elapsed": 501547, "internal_node_id": "0.0-90.0"}}, {"uniqueid": "MTK0061:3RYC5T2D740V4F9VKWX9VSM0FSFRP2", "current_trial": 127, "dateTime": 1509061987990, "trialdata": {"rt": -1000, "stimulus": "/static/audio/wordpool/BUREAU.wav", "key_press": -1, "type": "PRES_AUD", "word": "bureau", "wordID": 198, "conditions": [24, 1600, "a", 12000], "trial": 3, "serialpos": 10, "trial_type": "single-audio", "trial_index": 127, "time_elapsed": 504335, "internal_node_id": "0.0-91.0"}}, {"uniqueid": "MTK0061:3RYC5T2D740V4F9VKWX9VSM0FSFRP2", "current_trial": 128, "dateTime": 1509061990494, "trialdata": {"rt": -1000, "stimulus": "/static/audio/wordpool/SCALLOP.wav", "key_press": -1, "type": "PRES_AUD", "word": "scallop", "wordID": 1241, "conditions": [24, 1600, "a", 12000], "trial": 3, "serialpos": 11, "trial_type": "single-audio", "trial_index": 128, "time_elapsed": 506839, "internal_node_id": "0.0-92.0"}}, {"uniqueid": "MTK0061:3RYC5T2D740V4F9VKWX9VSM0FSFRP2", "current_trial": 129, "dateTime": 1509061993212, "trialdata": {"rt": -1000, "stimulus": "/static/audio/wordpool/SERVANT.wav", "key_press": -1, "type": "PRES_AUD", "word": "servant", "wordID": 1270, "conditions": [24, 1600, "a", 12000], "trial": 3, "serialpos": 12, "trial_type": "single-audio", "trial_index": 129, "time_elapsed": 509557, "internal_node_id": "0.0-93.0"}}, {"uniqueid": "MTK0061:3RYC5T2D740V4F9VKWX9VSM0FSFRP2", "current_trial": 130, "dateTime": 1509061995877, "trialdata": {"rt": -1000, "stimulus": "/static/audio/wordpool/COWBOY.wav", "key_press": -1, "type": "PRES_AUD", "word": "cowboy", "wordID": 394, "conditions": [24, 1600, "a", 12000], "trial": 3, "serialpos": 13, "trial_type": "single-audio", "trial_index": 130, "time_elapsed": 512222, "internal_node_id": "0.0-94.0"}}, {"uniqueid": "MTK0061:3RYC5T2D740V4F9VKWX9VSM0FSFRP2", "current_trial": 131, "dateTime": 1509061998487, "trialdata": {"rt": -1000, "stimulus": "/static/audio/wordpool/JUNGLE.wav", "key_press": -1, "type": "PRES_AUD", "word": "jungle", "wordID": 763, "conditions": [24, 1600, "a", 12000], "trial": 3, "serialpos": 14, "trial_type": "single-audio", "trial_index": 131, "time_elapsed": 514830, "internal_node_id": "0.0-95.0"}}, {"uniqueid": "MTK0061:3RYC5T2D740V4F9VKWX9VSM0FSFRP2", "current_trial": 132, "dateTime": 1509062001263, "trialdata": {"rt": -1000, "stimulus": "/static/audio/wordpool/CRATER.wav", "key_press": -1, "type": "PRES_AUD", "word": "crater", "wordID": 399, "conditions": [24, 1600, "a", 12000], "trial": 3, "serialpos": 15, "trial_type": "single-audio", "trial_index": 132, "time_elapsed": 517606, "internal_node_id": "0.0-96.0"}}, {"uniqueid": "MTK0061:3RYC5T2D740V4F9VKWX9VSM0FSFRP2", "current_trial": 133, "dateTime": 1509062003965, "trialdata": {"rt": -1000, "stimulus": "/static/audio/wordpool/LAVA.wav", "key_press": -1, "type": "PRES_AUD", "word": "lava", "wordID": 803, "conditions": [24, 1600, "a", 12000], "trial": 3, "serialpos": 16, "trial_type": "single-audio", "trial_index": 133, "time_elapsed": 520309, "internal_node_id": "0.0-97.0"}}, {"uniqueid": "MTK0061:3RYC5T2D740V4F9VKWX9VSM0FSFRP2", "current_trial": 134, "dateTime": 1509062006658, "trialdata": {"rt": -1000, "stimulus": "/static/audio/wordpool/STICKER.wav", "key_press": -1, "type": "PRES_AUD", "word": "sticker", "wordID": 1381, "conditions": [24, 1600, "a", 12000], "trial": 3, "serialpos": 17, "trial_type": "single-audio", "trial_index": 134, "time_elapsed": 523001, "internal_node_id": "0.0-98.0"}}, {"uniqueid": "MTK0061:3RYC5T2D740V4F9VKWX9VSM0FSFRP2", "current_trial": 135, "dateTime": 1509062009349, "trialdata": {"rt": -1000, "stimulus": "/static/audio/wordpool/DRESSER.wav", "key_press": -1, "type": "PRES_AUD", "word": "dresser", "wordID": 495, "conditions": [24, 1600, "a", 12000], "trial": 3, "serialpos": 18, "trial_type": "single-audio", "trial_index": 135, "time_elapsed": 525692, "internal_node_id": "0.0-99.0"}}, {"uniqueid": "MTK0061:3RYC5T2D740V4F9VKWX9VSM0FSFRP2", "current_trial": 136, "dateTime": 1509062012085, "trialdata": {"rt": -1000, "stimulus": "/static/audio/wordpool/SCISSORS.wav", "key_press": -1, "type": "PRES_AUD", "word": "scissors", "wordID": 1249, "conditions": [24, 1600, "a", 12000], "trial": 3, "serialpos": 19, "trial_type": "single-audio", "trial_index": 136, "time_elapsed": 528430, "internal_node_id": "0.0-100.0"}}, {"uniqueid": "MTK0061:3RYC5T2D740V4F9VKWX9VSM0FSFRP2", "current_trial": 137, "dateTime": 1509062014826, "trialdata": {"rt": -1000, "stimulus": "/static/audio/wordpool/SHOULDER.wav", "key_press": -1, "type": "PRES_AUD", "word": "shoulder", "wordID": 1293, "conditions": [24, 1600, "a", 12000], "trial": 3, "serialpos": 20, "trial_type": "single-audio", "trial_index": 137, "time_elapsed": 531167, "internal_node_id": "0.0-101.0"}}, {"uniqueid": "MTK0061:3RYC5T2D740V4F9VKWX9VSM0FSFRP2", "current_trial": 138, "dateTime": 1509062017631, "trialdata": {"rt": -1000, "stimulus": "/static/audio/wordpool/BARREL.wav", "key_press": -1, "type": "PRES_AUD", "word": "barrel", "wordID": 90, "conditions": [24, 1600, "a", 12000], "trial": 3, "serialpos": 21, "trial_type": "single-audio", "trial_index": 138, "time_elapsed": 533974, "internal_node_id": "0.0-102.0"}}, {"uniqueid": "MTK0061:3RYC5T2D740V4F9VKWX9VSM0FSFRP2", "current_trial": 139, "dateTime": 1509062020216, "trialdata": {"rt": -1000, "stimulus": "/static/audio/wordpool/KNIFE.wav", "key_press": -1, "type": "PRES_AUD", "word": "knife", "wordID": 784, "conditions": [24, 1600, "a", 12000], "trial": 3, "serialpos": 22, "trial_type": "single-audio", "trial_index": 139, "time_elapsed": 536561, "internal_node_id": "0.0-103.0"}}, {"uniqueid": "MTK0061:3RYC5T2D740V4F9VKWX9VSM0FSFRP2", "current_trial": 140, "dateTime": 1509062022770, "trialdata": {"rt": -1000, "stimulus": "/static/audio/wordpool/PEANUT.wav", "key_press": -1, "type": "PRES_AUD", "word": "peanut", "wordID": 1031, "conditions": [24, 1600, "a", 12000], "trial": 3, "serialpos": 23, "trial_type": "single-audio", "trial_index": 140, "time_elapsed": 539116, "internal_node_id": "0.0-104.0"}}, {"uniqueid": "MTK0061:3RYC5T2D740V4F9VKWX9VSM0FSFRP2", "current_trial": 141, "dateTime": 1509062024012, "trialdata": {"rt": -1, "stimulus": "", "key_press": -1, "type": "PRE_RECALL_DELAY", "trial_type": "single-stim", "trial_index": 141, "time_elapsed": 540356, "internal_node_id": "0.0-105.0-0.0"}}, {"uniqueid": "MTK0061:3RYC5T2D740V4F9VKWX9VSM0FSFRP2", "current_trial": 142, "dateTime": 1509062024519, "trialdata": {"rt": -1000, "stimulus": "/static/audio/400Hz.wav", "key_press": -1, "type": "PRE_RECALL_ALERT", "trial_type": "single-audio", "trial_index": 142, "time_elapsed": 540864, "internal_node_id": "0.0-106.0"}}, {"uniqueid": "MTK0061:3RYC5T2D740V4F9VKWX9VSM0FSFRP2", "current_trial": 143, "dateTime": 1509062084540, "trialdata": {"rt": [4764, 6917, 9230, 12108, 14084, 17730, 20800, 24639, 29528, 32908, 37000, 38931, 43359, 45884, 48637, 51326], "recwords": ["chart", "victim", "antler", "honey", "doughnut", "drought", "razor", "shortcake", "servant", "cowboy", "jungle", "crater", "sticker", "shoulder", "knife", "peanut"], "type": "FREE_RECALL", "conditions": [24, 1600, "a", 12000], "trial": 3, "trial_type": "free-recall", "trial_index": 143, "time_elapsed": 600883, "internal_node_id": "0.0-107.0-0.0"}}, {"uniqueid": "MTK0061:3RYC5T2D740V4F9VKWX9VSM0FSFRP2", "current_trial": 144, "dateTime": 1509062088212, "trialdata": {"rt": 1658, "key_press": 32, "type": "INSTRUCTIONS", "trial_type": "text", "trial_index": 144, "time_elapsed": 604553, "internal_node_id": "0.0-108.0"}}, {"uniqueid": "MTK0061:3RYC5T2D740V4F9VKWX9VSM0FSFRP2", "current_trial": 145, "dateTime": 1509062114239, "trialdata": {"rt": [6801, 10111, 13748], "responses": ["17", "16", "16"], "num1": [1, 2, 8, 2], "num2": [8, 7, 4, 6], "num3": [9, 7, 4, 4], "type": "DISTRACTOR", "conditions": [12, 1600, "v", 24000], "trial": 4, "trial_type": "math-distractor", "trial_index": 145, "time_elapsed": 630584, "internal_node_id": "0.0-109.0"}}, {"uniqueid": "MTK0061:3RYC5T2D740V4F9VKWX9VSM0FSFRP2", "current_trial": 146, "dateTime": 1509062117249, "trialdata": {"rt": -1, "stimulus": "<p id=\"stim\">10</p>", "key_press": -1, "trial_type": "single-stim", "trial_index": 146, "time_elapsed": 633592, "internal_node_id": "0.0-110.0-0.0"}}, {"uniqueid": "MTK0061:3RYC5T2D740V4F9VKWX9VSM0FSFRP2", "current_trial": 147, "dateTime": 1509062118256, "trialdata": {"rt": -1, "stimulus": "<p id=\"stim\">9</p>", "key_press": -1, "trial_type": "single-stim", "trial_index": 147, "time_elapsed": 634599, "internal_node_id": "0.0-110.0-1.0"}}, {"uniqueid": "MTK0061:3RYC5T2D740V4F9VKWX9VSM0FSFRP2", "current_trial": 148, "dateTime": 1509062119284, "trialdata": {"rt": -1, "stimulus": "<p id=\"stim\">8</p>", "key_press": -1, "trial_type": "single-stim", "trial_index": 148, "time_elapsed": 635629, "internal_node_id": "0.0-110.0-2.0"}}, {"uniqueid": "MTK0061:3RYC5T2D740V4F9VKWX9VSM0FSFRP2", "current_trial": 149, "dateTime": 1509062120290, "trialdata": {"rt": -1, "stimulus": "<p id=\"stim\">7</p>", "key_press": -1, "trial_type": "single-stim", "trial_index": 149, "time_elapsed": 636634, "internal_node_id": "0.0-110.0-3.0"}}, {"uniqueid": "MTK0061:3RYC5T2D740V4F9VKWX9VSM0FSFRP2", "current_trial": 150, "dateTime": 1509062121295, "trialdata": {"rt": -1, "stimulus": "<p id=\"stim\">6</p>", "key_press": -1, "trial_type": "single-stim", "trial_index": 150, "time_elapsed": 637640, "internal_node_id": "0.0-110.0-4.0"}}, {"uniqueid": "MTK0061:3RYC5T2D740V4F9VKWX9VSM0FSFRP2", "current_trial": 151, "dateTime": 1509062122300, "trialdata": {"rt": -1, "stimulus": "<p id=\"stim\">5</p>", "key_press": -1, "trial_type": "single-stim", "trial_index": 151, "time_elapsed": 638645, "internal_node_id": "0.0-110.0-5.0"}}, {"uniqueid": "MTK0061:3RYC5T2D740V4F9VKWX9VSM0FSFRP2", "current_trial": 152, "dateTime": 1509062123306, "trialdata": {"rt": -1, "stimulus": "<p id=\"stim\">4</p>", "key_press": -1, "trial_type": "single-stim", "trial_index": 152, "time_elapsed": 639650, "internal_node_id": "0.0-110.0-6.0"}}, {"uniqueid": "MTK0061:3RYC5T2D740V4F9VKWX9VSM0FSFRP2", "current_trial": 153, "dateTime": 1509062124318, "trialdata": {"rt": -1, "stimulus": "<p id=\"stim\">3</p>", "key_press": -1, "trial_type": "single-stim", "trial_index": 153, "time_elapsed": 640658, "internal_node_id": "0.0-110.0-7.0"}}, {"uniqueid": "MTK0061:3RYC5T2D740V4F9VKWX9VSM0FSFRP2", "current_trial": 154, "dateTime": 1509062125334, "trialdata": {"rt": -1, "stimulus": "<p id=\"stim\">2</p>", "key_press": -1, "trial_type": "single-stim", "trial_index": 154, "time_elapsed": 641670, "internal_node_id": "0.0-110.0-8.0"}}, {"uniqueid": "MTK0061:3RYC5T2D740V4F9VKWX9VSM0FSFRP2", "current_trial": 155, "dateTime": 1509062126340, "trialdata": {"rt": -1, "stimulus": "<p id=\"stim\">1</p>", "key_press": -1, "trial_type": "single-stim", "trial_index": 155, "time_elapsed": 642685, "internal_node_id": "0.0-110.0-9.0"}}, {"uniqueid": "MTK0061:3RYC5T2D740V4F9VKWX9VSM0FSFRP2", "current_trial": 156, "dateTime": 1509062127883, "trialdata": {"rt": -1, "stimulus": "<p id=\"stim\">+</p>", "key_press": -1, "type": "FIXATION", "trial_type": "single-stim", "trial_index": 156, "time_elapsed": 644228, "internal_node_id": "0.0-111.0-0.0"}}, {"uniqueid": "MTK0061:3RYC5T2D740V4F9VKWX9VSM0FSFRP2", "current_trial": 157, "dateTime": 1509062129486, "trialdata": {"rt": -1, "stimulus": "<p id=\"stim\">SKILLET</p>", "key_press": -1, "type": "PRES_VIS", "word": "skillet", "wordID": 1316, "conditions": [12, 1600, "v", 24000], "trial": 4, "serialpos": 0, "trial_type": "single-stim", "trial_index": 157, "time_elapsed": 645831, "internal_node_id": "0.0-112.0"}}, {"uniqueid": "MTK0061:3RYC5T2D740V4F9VKWX9VSM0FSFRP2", "current_trial": 158, "dateTime": 1509062132087, "trialdata": {"rt": -1, "stimulus": "<p id=\"stim\">POLICE</p>", "key_press": -1, "type": "PRES_VIS", "word": "police", "wordID": 1097, "conditions": [12, 1600, "v", 24000], "trial": 4, "serialpos": 1, "trial_type": "single-stim", "trial_index": 158, "time_elapsed": 648431, "internal_node_id": "0.0-113.0"}}, {"uniqueid": "MTK0061:3RYC5T2D740V4F9VKWX9VSM0FSFRP2", "current_trial": 159, "dateTime": 1509062134829, "trialdata": {"rt": -1, "stimulus": "<p id=\"stim\">BEEF</p>", "key_press": -1, "type": "PRES_VIS", "word": "beef", "wordID": 112, "conditions": [12, 1600, "v", 24000], "trial": 4, "serialpos": 2, "trial_type": "single-stim", "trial_index": 159, "time_elapsed": 651174, "internal_node_id": "0.0-114.0"}}, {"uniqueid": "MTK0061:3RYC5T2D740V4F9VKWX9VSM0FSFRP2", "current_trial": 160, "dateTime": 1509062137335, "trialdata": {"rt": -1, "stimulus": "<p id=\"stim\">CATTLE</p>", "key_press": -1, "type": "PRES_VIS", "word": "cattle", "wordID": 260, "conditions": [12, 1600, "v", 24000], "trial": 4, "serialpos": 3, "trial_type": "single-stim", "trial_index": 160, "time_elapsed": 653681, "internal_node_id": "0.0-115.0"}}, {"uniqueid": "MTK0061:3RYC5T2D740V4F9VKWX9VSM0FSFRP2", "current_trial": 161, "dateTime": 1509062140108, "trialdata": {"rt": -1, "stimulus": "<p id=\"stim\">ACTOR</p>", "key_press": -1, "type": "PRES_VIS", "word": "actor", "wordID": 4, "conditions": [12, 1600, "v", 24000], "trial": 4, "serialpos": 4, "trial_type": "single-stim", "trial_index": 161, "time_elapsed": 656453, "internal_node_id": "0.0-116.0"}}, {"uniqueid": "MTK0061:3RYC5T2D740V4F9VKWX9VSM0FSFRP2", "current_trial": 162, "dateTime": 1509062142668, "trialdata": {"rt": -1, "stimulus": "<p id=\"stim\">VENUS</p>", "key_press": -1, "type": "PRES_VIS", "word": "venus", "wordID": 1556, "conditions": [12, 1600, "v", 24000], "trial": 4, "serialpos": 5, "trial_type": "single-stim", "trial_index": 162, "time_elapsed": 659013, "internal_node_id": "0.0-117.0"}}, {"uniqueid": "MTK0061:3RYC5T2D740V4F9VKWX9VSM0FSFRP2", "current_trial": 163, "dateTime": 1509062145374, "trialdata": {"rt": -1, "stimulus": "<p id=\"stim\">BANKER</p>", "key_press": -1, "type": "PRES_VIS", "word": "banker", "wordID": 83, "conditions": [12, 1600, "v", 24000], "trial": 4, "serialpos": 6, "trial_type": "single-stim", "trial_index": 163, "time_elapsed": 661717, "internal_node_id": "0.0-118.0"}}, {"uniqueid": "MTK0061:3RYC5T2D740V4F9VKWX9VSM0FSFRP2", "current_trial": 164, "dateTime": 1509062147795, "trialdata": {"rt": -1, "stimulus": "<p id=\"stim\">ACTRESS</p>", "key_press": -1, "type": "PRES_VIS", "word": "actress", "wordID": 5, "conditions": [12, 1600, "v", 24000], "trial": 4, "serialpos": 7, "trial_type": "single-stim", "trial_index": 164, "time_elapsed": 664136, "internal_node_id": "0.0-119.0"}}, {"uniqueid": "MTK0061:3RYC5T2D740V4F9VKWX9VSM0FSFRP2", "current_trial": 165, "dateTime": 1509062150723, "trialdata": {"rt": -1, "stimulus": "<p id=\"stim\">GIRL</p>", "key_press": -1, "type": "PRES_VIS", "word": "girl", "wordID": 636, "conditions": [12, 1600, "v", 24000], "trial": 4, "serialpos": 8, "trial_type": "single-stim", "trial_index": 165, "time_elapsed": 667065, "internal_node_id": "0.0-120.0"}}, {"uniqueid": "MTK0061:3RYC5T2D740V4F9VKWX9VSM0FSFRP2", "current_trial": 166, "dateTime": 1509062153279, "trialdata": {"rt": -1, "stimulus": "<p id=\"stim\">EMPIRE</p>", "key_press": -1, "type": "PRES_VIS", "word": "empire", "wordID": 529, "conditions": [12, 1600, "v", 24000], "trial": 4, "serialpos": 9, "trial_type": "single-stim", "trial_index": 166, "time_elapsed": 669622, "internal_node_id": "0.0-121.0"}}, {"uniqueid": "MTK0061:3RYC5T2D740V4F9VKWX9VSM0FSFRP2", "current_trial": 167, "dateTime": 1509062155948, "trialdata": {"rt": -1, "stimulus": "<p id=\"stim\">VIRUS</p>", "key_press": -1, "type": "PRES_VIS", "word": "virus", "wordID": 1571, "conditions": [12, 1600, "v", 24000], "trial": 4, "serialpos": 10, "trial_type": "single-stim", "trial_index": 167, "time_elapsed": 672291, "internal_node_id": "0.0-122.0"}}, {"uniqueid": "MTK0061:3RYC5T2D740V4F9VKWX9VSM0FSFRP2", "current_trial": 168, "dateTime": 1509062158604, "trialdata": {"rt": -1, "stimulus": "<p id=\"stim\">PANTHER</p>", "key_press": -1, "type": "PRES_VIS", "word": "panther", "wordID": 1008, "conditions": [12, 1600, "v", 24000], "trial": 4, "serialpos": 11, "trial_type": "single-stim", "trial_index": 168, "time_elapsed": 674945, "internal_node_id": "0.0-123.0"}}, {"uniqueid": "MTK0061:3RYC5T2D740V4F9VKWX9VSM0FSFRP2", "current_trial": 169, "dateTime": 1509062160919, "trialdata": {"rt": -1, "stimulus": "", "key_press": -1, "type": "PRE_RECALL_DELAY", "trial_type": "single-stim", "trial_index": 169, "time_elapsed": 677262, "internal_node_id": "0.0-124.0-0.0"}}, {"uniqueid": "MTK0061:3RYC5T2D740V4F9VKWX9VSM0FSFRP2", "current_trial": 170, "dateTime": 1509062161427, "trialdata": {"rt": -1000, "stimulus": "/static/audio/400Hz.wav", "key_press": -1, "type": "PRE_RECALL_ALERT", "trial_type": "single-audio", "trial_index": 170, "time_elapsed": 677771, "internal_node_id": "0.0-125.0"}}, {"uniqueid": "MTK0061:3RYC5T2D740V4F9VKWX9VSM0FSFRP2", "current_trial": 171, "dateTime": 1509062221459, "trialdata": {"rt": [4334, 10372, 13097, 14767, 16825, 19226, 21746, 29243, 33139, 35187, 37348, 39140], "recwords": ["skillet", "police", "beef", "cattle", "actor", "venus", "banker", "actress", "girl", "empire", "virus", "panther"], "type": "FREE_RECALL", "conditions": [12, 1600, "v", 24000], "trial": 4, "trial_type": "free-recall", "trial_index": 171, "time_elapsed": 737801, "internal_node_id": "0.0-126.0-0.0"}}, {"uniqueid": "MTK0061:3RYC5T2D740V4F9VKWX9VSM0FSFRP2", "current_trial": 172, "dateTime": 1509062227566, "trialdata": {"rt": 4100, "key_press": 32, "type": "INSTRUCTIONS", "trial_type": "text", "trial_index": 172, "time_elapsed": 743909, "internal_node_id": "0.0-127.0"}}, {"uniqueid": "MTK0061:3RYC5T2D740V4F9VKWX9VSM0FSFRP2", "current_trial": 173, "dateTime": 1509062253599, "trialdata": {"rt": [6180, 11002], "responses": ["10", "22"], "num1": [2, 6, 5], "num2": [9, 5, 6], "num3": [7, 8, 8], "type": "DISTRACTOR", "conditions": [12, 1600, "a", 24000], "trial": 5, "trial_type": "math-distractor", "trial_index": 173, "time_elapsed": 769940, "internal_node_id": "0.0-128.0"}}, {"uniqueid": "MTK0061:3RYC5T2D740V4F9VKWX9VSM0FSFRP2", "current_trial": 174, "dateTime": 1509062256610, "trialdata": {"rt": -1, "stimulus": "<p id=\"stim\">10</p>", "key_press": -1, "trial_type": "single-stim", "trial_index": 174, "time_elapsed": 772952, "internal_node_id": "0.0-129.0-0.0"}}, {"uniqueid": "MTK0061:3RYC5T2D740V4F9VKWX9VSM0FSFRP2", "current_trial": 175, "dateTime": 1509062257616, "trialdata": {"rt": -1, "stimulus": "<p id=\"stim\">9</p>", "key_press": -1, "trial_type": "single-stim", "trial_index": 175, "time_elapsed": 773961, "internal_node_id": "0.0-129.0-1.0"}}, {"uniqueid": "MTK0061:3RYC5T2D740V4F9VKWX9VSM0FSFRP2", "current_trial": 176, "dateTime": 1509062258619, "trialdata": {"rt": -1, "stimulus": "<p id=\"stim\">8</p>", "key_press": -1, "trial_type": "single-stim", "trial_index": 176, "time_elapsed": 774965, "internal_node_id": "0.0-129.0-2.0"}}, {"uniqueid": "MTK0061:3RYC5T2D740V4F9VKWX9VSM0FSFRP2", "current_trial": 177, "dateTime": 1509062259694, "trialdata": {"rt": -1, "stimulus": "<p id=\"stim\">7</p>", "key_press": -1, "trial_type": "single-stim", "trial_index": 177, "time_elapsed": 776039, "internal_node_id": "0.0-129.0-3.0"}}, {"uniqueid": "MTK0061:3RYC5T2D740V4F9VKWX9VSM0FSFRP2", "current_trial": 178, "dateTime": 1509062260724, "trialdata": {"rt": -1, "stimulus": "<p id=\"stim\">6</p>", "key_press": -1, "trial_type": "single-stim", "trial_index": 178, "time_elapsed": 777070, "internal_node_id": "0.0-129.0-4.0"}}, {"uniqueid": "MTK0061:3RYC5T2D740V4F9VKWX9VSM0FSFRP2", "current_trial": 179, "dateTime": 1509062261808, "trialdata": {"rt": -1, "stimulus": "<p id=\"stim\">5</p>", "key_press": -1, "trial_type": "single-stim", "trial_index": 179, "time_elapsed": 778153, "internal_node_id": "0.0-129.0-5.0"}}, {"uniqueid": "MTK0061:3RYC5T2D740V4F9VKWX9VSM0FSFRP2", "current_trial": 180, "dateTime": 1509062262838, "trialdata": {"rt": -1, "stimulus": "<p id=\"stim\">4</p>", "key_press": -1, "trial_type": "single-stim", "trial_index": 180, "time_elapsed": 779183, "internal_node_id": "0.0-129.0-6.0"}}, {"uniqueid": "MTK0061:3RYC5T2D740V4F9VKWX9VSM0FSFRP2", "current_trial": 181, "dateTime": 1509062263916, "trialdata": {"rt": -1, "stimulus": "<p id=\"stim\">3</p>", "key_press": -1, "trial_type": "single-stim", "trial_index": 181, "time_elapsed": 780260, "internal_node_id": "0.0-129.0-7.0"}}, {"uniqueid": "MTK0061:3RYC5T2D740V4F9VKWX9VSM0FSFRP2", "current_trial": 182, "dateTime": 1509062264948, "trialdata": {"rt": -1, "stimulus": "<p id=\"stim\">2</p>", "key_press": -1, "trial_type": "single-stim", "trial_index": 182, "time_elapsed": 781293, "internal_node_id": "0.0-129.0-8.0"}}, {"uniqueid": "MTK0061:3RYC5T2D740V4F9VKWX9VSM0FSFRP2", "current_trial": 183, "dateTime": 1509062266026, "trialdata": {"rt": -1, "stimulus": "<p id=\"stim\">1</p>", "key_press": -1, "trial_type": "single-stim", "trial_index": 183, "time_elapsed": 782371, "internal_node_id": "0.0-129.0-9.0"}}, {"uniqueid": "MTK0061:3RYC5T2D740V4F9VKWX9VSM0FSFRP2", "current_trial": 184, "dateTime": 1509062267551, "trialdata": {"rt": -1, "stimulus": "<p id=\"stim\">+</p>", "key_press": -1, "type": "FIXATION", "trial_type": "single-stim", "trial_index": 184, "time_elapsed": 783897, "internal_node_id": "0.0-130.0-0.0"}}, {"uniqueid": "MTK0061:3RYC5T2D740V4F9VKWX9VSM0FSFRP2", "current_trial": 185, "dateTime": 1509062270311, "trialdata": {"rt": -1000, "stimulus": "/static/audio/wordpool/PICNIC.wav", "key_press": -1, "type": "PRES_AUD", "word": "picnic", "wordID": 1059, "conditions": [12, 1600, "a", 24000], "trial": 5, "serialpos": 0, "trial_type": "single-audio", "trial_index": 185, "time_elapsed": 786657, "internal_node_id": "0.0-131.0"}}, {"uniqueid": "MTK0061:3RYC5T2D740V4F9VKWX9VSM0FSFRP2", "current_trial": 186, "dateTime": 1509062272980, "trialdata": {"rt": -1000, "stimulus": "/static/audio/wordpool/BULLET.wav", "key_press": -1, "type": "PRES_AUD", "word": "bullet", "wordID": 193, "conditions": [12, 1600, "a", 24000], "trial": 5, "serialpos": 1, "trial_type": "single-audio", "trial_index": 186, "time_elapsed": 789325, "internal_node_id": "0.0-132.0"}}, {"uniqueid": "MTK0061:3RYC5T2D740V4F9VKWX9VSM0FSFRP2", "current_trial": 187, "dateTime": 1509062275648, "trialdata": {"rt": -1000, "stimulus": "/static/audio/wordpool/DORM.wav", "key_press": -1, "type": "PRES_AUD", "word": "dorm", "wordID": 487, "conditions": [12, 1600, "a", 24000], "trial": 5, "serialpos": 2, "trial_type": "single-audio", "trial_index": 187, "time_elapsed": 791993, "internal_node_id": "0.0-133.0"}}, {"uniqueid": "MTK0061:3RYC5T2D740V4F9VKWX9VSM0FSFRP2", "current_trial": 188, "dateTime": 1509062278190, "trialdata": {"rt": -1000, "stimulus": "/static/audio/wordpool/STUDENT.wav", "key_press": -1, "type": "PRES_AUD", "word": "student", "wordID": 1394, "conditions": [12, 1600, "a", 24000], "trial": 5, "serialpos": 3, "trial_type": "single-audio", "trial_index": 188, "time_elapsed": 794535, "internal_node_id": "0.0-134.0"}}, {"uniqueid": "MTK0061:3RYC5T2D740V4F9VKWX9VSM0FSFRP2", "current_trial": 189, "dateTime": 1509062280666, "trialdata": {"rt": -1000, "stimulus": "/static/audio/wordpool/SANDWICH.wav", "key_press": -1, "type": "PRES_AUD", "word": "sandwich", "wordID": 1231, "conditions": [12, 1600, "a", 24000], "trial": 5, "serialpos": 4, "trial_type": "single-audio", "trial_index": 189, "time_elapsed": 797011, "internal_node_id": "0.0-135.0"}}, {"uniqueid": "MTK0061:3RYC5T2D740V4F9VKWX9VSM0FSFRP2", "current_trial": 190, "dateTime": 1509062283176, "trialdata": {"rt": -1000, "stimulus": "/static/audio/wordpool/BLADE.wav", "key_press": -1, "type": "PRES_AUD", "word": "blade", "wordID": 133, "conditions": [12, 1600, "a", 24000], "trial": 5, "serialpos": 5, "trial_type": "single-audio", "trial_index": 190, "time_elapsed": 799521, "internal_node_id": "0.0-136.0"}}, {"uniqueid": "MTK0061:3RYC5T2D740V4F9VKWX9VSM0FSFRP2", "current_trial": 191, "dateTime": 1509062285934, "trialdata": {"rt": -1000, "stimulus": "/static/audio/wordpool/ZIPPER.wav", "key_press": -1, "type": "PRES_AUD", "word": "zipper", "wordID": 1635, "conditions": [12, 1600, "a", 24000], "trial": 5, "serialpos": 6, "trial_type": "single-audio", "trial_index": 191, "time_elapsed": 802279, "internal_node_id": "0.0-137.0"}}, {"uniqueid": "MTK0061:3RYC5T2D740V4F9VKWX9VSM0FSFRP2", "current_trial": 192, "dateTime": 1509062288467, "trialdata": {"rt": -1000, "stimulus": "/static/audio/wordpool/SHELF.wav", "key_press": -1, "type": "PRES_AUD", "word": "shelf", "wordID": 1279, "conditions": [12, 1600, "a", 24000], "trial": 5, "serialpos": 7, "trial_type": "single-audio", "trial_index": 192, "time_elapsed": 804810, "internal_node_id": "0.0-138.0"}}, {"uniqueid": "MTK0061:3RYC5T2D740V4F9VKWX9VSM0FSFRP2", "current_trial": 193, "dateTime": 1509062291128, "trialdata": {"rt": -1000, "stimulus": "/static/audio/wordpool/PASTRY.wav", "key_press": -1, "type": "PRES_AUD", "word": "pastry", "wordID": 1021, "conditions": [12, 1600, "a", 24000], "trial": 5, "serialpos": 8, "trial_type": "single-audio", "trial_index": 193, "time_elapsed": 807471, "internal_node_id": "0.0-139.0"}}, {"uniqueid": "MTK0061:3RYC5T2D740V4F9VKWX9VSM0FSFRP2", "current_trial": 194, "dateTime": 1509062293849, "trialdata": {"rt": -1000, "stimulus": "/static/audio/wordpool/TUNNEL.wav", "key_press": -1, "type": "PRES_AUD", "word": "tunnel", "wordID": 1518, "conditions": [12, 1600, "a", 24000], "trial": 5, "serialpos": 9, "trial_type": "single-audio", "trial_index": 194, "time_elapsed": 810190, "internal_node_id": "0.0-140.0"}}, {"uniqueid": "MTK0061:3RYC5T2D740V4F9VKWX9VSM0FSFRP2", "current_trial": 195, "dateTime": 1509062296332, "trialdata": {"rt": -1000, "stimulus": "/static/audio/wordpool/PILOT.wav", "key_press": -1, "type": "PRES_AUD", "word": "pilot", "wordID": 1069, "conditions": [12, 1600, "a", 24000], "trial": 5, "serialpos": 10, "trial_type": "single-audio", "trial_index": 195, "time_elapsed": 812675, "internal_node_id": "0.0-141.0"}}, {"uniqueid": "MTK0061:3RYC5T2D740V4F9VKWX9VSM0FSFRP2", "current_trial": 196, "dateTime": 1509062299063, "trialdata": {"rt": -1000, "stimulus": "/static/audio/wordpool/LIZARD.wav", "key_press": -1, "type": "PRES_AUD", "word": "lizard", "wordID": 833, "conditions": [12, 1600, "a", 24000], "trial": 5, "serialpos": 11, "trial_type": "single-audio", "trial_index": 196, "time_elapsed": 815407, "internal_node_id": "0.0-142.0"}}, {"uniqueid": "MTK0061:3RYC5T2D740V4F9VKWX9VSM0FSFRP2", "current_trial": 197, "dateTime": 1509062300402, "trialdata": {"rt": -1, "stimulus": "", "key_press": -1, "type": "PRE_RECALL_DELAY", "trial_type": "single-stim", "trial_index": 197, "time_elapsed": 816746, "internal_node_id": "0.0-143.0-0.0"}}, {"uniqueid": "MTK0061:3RYC5T2D740V4F9VKWX9VSM0FSFRP2", "current_trial": 198, "dateTime": 1509062300914, "trialdata": {"rt": -1000, "stimulus": "/static/audio/400Hz.wav", "key_press": -1, "type": "PRE_RECALL_ALERT", "trial_type": "single-audio", "trial_index": 198, "time_elapsed": 817256, "internal_node_id": "0.0-144.0"}}, {"uniqueid": "MTK0061:3RYC5T2D740V4F9VKWX9VSM0FSFRP2", "current_trial": 199, "dateTime": 1509062360933, "trialdata": {"rt": [3094, 5875, 10043, 12819, 15867, 18488, 21021, 25090, 26423, 30716, 33664], "recwords": ["pinic", "dorm", "student", "sandwich", "blade", "zipper", "shelve", "tunnel", "pi", "pilot", "lizard"], "type": "FREE_RECALL", "conditions": [12, 1600, "a", 24000], "trial": 5, "trial_type": "free-recall", "trial_index": 199, "time_elapsed": 877278, "internal_node_id": "0.0-145.0-0.0"}}, {"uniqueid": "MTK0061:3RYC5T2D740V4F9VKWX9VSM0FSFRP2", "current_trial": 200, "dateTime": 1509062365474, "trialdata": {"rt": 1983, "key_press": 32, "type": "INSTRUCTIONS", "trial_type": "text", "trial_index": 200, "time_elapsed": 881817, "internal_node_id": "0.0-146.0"}}, {"uniqueid": "MTK0061:3RYC5T2D740V4F9VKWX9VSM0FSFRP2", "current_trial": 201, "dateTime": 1509062391506, "trialdata": {"rt": [6660, 12510, 19067], "responses": ["17", "18", "15"], "num1": [6, 4, 5, 5], "num2": [9, 8, 7, 8], "num3": [5, 8, 2, 6], "type": "DISTRACTOR", "conditions": [12, 800, "v", 24000], "trial": 6, "trial_type": "math-distractor", "trial_index": 201, "time_elapsed": 907847, "internal_node_id": "0.0-147.0"}}, {"uniqueid": "MTK0061:3RYC5T2D740V4F9VKWX9VSM0FSFRP2", "current_trial": 202, "dateTime": 1509062394520, "trialdata": {"rt": -1, "stimulus": "<p id=\"stim\">10</p>", "key_press": -1, "trial_type": "single-stim", "trial_index": 202, "time_elapsed": 910862, "internal_node_id": "0.0-148.0-0.0"}}, {"uniqueid": "MTK0061:3RYC5T2D740V4F9VKWX9VSM0FSFRP2", "current_trial": 203, "dateTime": 1509062395527, "trialdata": {"rt": -1, "stimulus": "<p id=\"stim\">9</p>", "key_press": -1, "trial_type": "single-stim", "trial_index": 203, "time_elapsed": 911872, "internal_node_id": "0.0-148.0-1.0"}}, {"uniqueid": "MTK0061:3RYC5T2D740V4F9VKWX9VSM0FSFRP2", "current_trial": 204, "dateTime": 1509062396536, "trialdata": {"rt": -1, "stimulus": "<p id=\"stim\">8</p>", "key_press": -1, "trial_type": "single-stim", "trial_index": 204, "time_elapsed": 912879, "internal_node_id": "0.0-148.0-2.0"}}, {"uniqueid": "MTK0061:3RYC5T2D740V4F9VKWX9VSM0FSFRP2", "current_trial": 205, "dateTime": 1509062397541, "trialdata": {"rt": -1, "stimulus": "<p id=\"stim\">7</p>", "key_press": -1, "trial_type": "single-stim", "trial_index": 205, "time_elapsed": 913886, "internal_node_id": "0.0-148.0-3.0"}}, {"uniqueid": "MTK0061:3RYC5T2D740V4F9VKWX9VSM0FSFRP2", "current_trial": 206, "dateTime": 1509062398549, "trialdata": {"rt": -1, "stimulus": "<p id=\"stim\">6</p>", "key_press": -1, "trial_type": "single-stim", "trial_index": 206, "time_elapsed": 914893, "internal_node_id": "0.0-148.0-4.0"}}, {"uniqueid": "MTK0061:3RYC5T2D740V4F9VKWX9VSM0FSFRP2", "current_trial": 207, "dateTime": 1509062399554, "trialdata": {"rt": -1, "stimulus": "<p id=\"stim\">5</p>", "key_press": -1, "trial_type": "single-stim", "trial_index": 207, "time_elapsed": 915898, "internal_node_id": "0.0-148.0-5.0"}}, {"uniqueid": "MTK0061:3RYC5T2D740V4F9VKWX9VSM0FSFRP2", "current_trial": 208, "dateTime": 1509062400559, "trialdata": {"rt": -1, "stimulus": "<p id=\"stim\">4</p>", "key_press": -1, "trial_type": "single-stim", "trial_index": 208, "time_elapsed": 916904, "internal_node_id": "0.0-148.0-6.0"}}, {"uniqueid": "MTK0061:3RYC5T2D740V4F9VKWX9VSM0FSFRP2", "current_trial": 209, "dateTime": 1509062401565, "trialdata": {"rt": -1, "stimulus": "<p id=\"stim\">3</p>", "key_press": -1, "trial_type": "single-stim", "trial_index": 209, "time_elapsed": 917908, "internal_node_id": "0.0-148.0-7.0"}}, {"uniqueid": "MTK0061:3RYC5T2D740V4F9VKWX9VSM0FSFRP2", "current_trial": 210, "dateTime": 1509062402572, "trialdata": {"rt": -1, "stimulus": "<p id=\"stim\">2</p>", "key_press": -1, "trial_type": "single-stim", "trial_index": 210, "time_elapsed": 918916, "internal_node_id": "0.0-148.0-8.0"}}, {"uniqueid": "MTK0061:3RYC5T2D740V4F9VKWX9VSM0FSFRP2", "current_trial": 211, "dateTime": 1509062403577, "trialdata": {"rt": -1, "stimulus": "<p id=\"stim\">1</p>", "key_press": -1, "trial_type": "single-stim", "trial_index": 211, "time_elapsed": 919921, "internal_node_id": "0.0-148.0-9.0"}}, {"uniqueid": "MTK0061:3RYC5T2D740V4F9VKWX9VSM0FSFRP2", "current_trial": 212, "dateTime": 1509062405084, "trialdata": {"rt": -1, "stimulus": "<p id=\"stim\">+</p>", "key_press": -1, "type": "FIXATION", "trial_type": "single-stim", "trial_index": 212, "time_elapsed": 921429, "internal_node_id": "0.0-149.0-0.0"}}, {"uniqueid": "MTK0061:3RYC5T2D740V4F9VKWX9VSM0FSFRP2", "current_trial": 213, "dateTime": 1509062405890, "trialdata": {"rt": -1, "stimulus": "<p id=\"stim\">TABLE</p>", "key_press": -1, "type": "PRES_VIS", "word": "table", "wordID": 1425, "conditions": [12, 800, "v", 24000], "trial": 6, "serialpos": 0, "trial_type": "single-stim", "trial_index": 213, "time_elapsed": 922234, "internal_node_id": "0.0-150.0"}}, {"uniqueid": "MTK0061:3RYC5T2D740V4F9VKWX9VSM0FSFRP2", "current_trial": 214, "dateTime": 1509062407815, "trialdata": {"rt": -1, "stimulus": "<p id=\"stim\">WRIST</p>", "key_press": -1, "type": "PRES_VIS", "word": "wrist", "wordID": 1625, "conditions": [12, 800, "v", 24000], "trial": 6, "serialpos": 1, "trial_type": "single-stim", "trial_index": 214, "time_elapsed": 924159, "internal_node_id": "0.0-151.0"}}, {"uniqueid": "MTK0061:3RYC5T2D740V4F9VKWX9VSM0FSFRP2", "current_trial": 215, "dateTime": 1509062409452, "trialdata": {"rt": -1, "stimulus": "<p id=\"stim\">CLAM</p>", "key_press": -1, "type": "PRES_VIS", "word": "clam", "wordID": 314, "conditions": [12, 800, "v", 24000], "trial": 6, "serialpos": 2, "trial_type": "single-stim", "trial_index": 215, "time_elapsed": 925797, "internal_node_id": "0.0-152.0"}}, {"uniqueid": "MTK0061:3RYC5T2D740V4F9VKWX9VSM0FSFRP2", "current_trial": 216, "dateTime": 1509062411246, "trialdata": {"rt": -1, "stimulus": "<p id=\"stim\">SPARROW</p>", "key_press": -1, "type": "PRES_VIS", "word": "sparrow", "wordID": 1346, "conditions": [12, 800, "v", 24000], "trial": 6, "serialpos": 3, "trial_type": "single-stim", "trial_index": 216, "time_elapsed": 927591, "internal_node_id": "0.0-153.0"}}, {"uniqueid": "MTK0061:3RYC5T2D740V4F9VKWX9VSM0FSFRP2", "current_trial": 217, "dateTime": 1509062412937, "trialdata": {"rt": -1, "stimulus": "<p id=\"stim\">SADDLE</p>", "key_press": -1, "type": "PRES_VIS", "word": "saddle", "wordID": 1220, "conditions": [12, 800, "v", 24000], "trial": 6, "serialpos": 4, "trial_type": "single-stim", "trial_index": 217, "time_elapsed": 929283, "internal_node_id": "0.0-154.0"}}, {"uniqueid": "MTK0061:3RYC5T2D740V4F9VKWX9VSM0FSFRP2", "current_trial": 218, "dateTime": 1509062414618, "trialdata": {"rt": -1, "stimulus": "<p id=\"stim\">HORNET</p>", "key_press": -1, "type": "PRES_VIS", "word": "hornet", "wordID": 717, "conditions": [12, 800, "v", 24000], "trial": 6, "serialpos": 5, "trial_type": "single-stim", "trial_index": 218, "time_elapsed": 930963, "internal_node_id": "0.0-155.0"}}, {"uniqueid": "MTK0061:3RYC5T2D740V4F9VKWX9VSM0FSFRP2", "current_trial": 219, "dateTime": 1509062416434, "trialdata": {"rt": -1, "stimulus": "<p id=\"stim\">WASP</p>", "key_press": -1, "type": "PRES_VIS", "word": "wasp", "wordID": 1592, "conditions": [12, 800, "v", 24000], "trial": 6, "serialpos": 6, "trial_type": "single-stim", "trial_index": 219, "time_elapsed": 932778, "internal_node_id": "0.0-156.0"}}, {"uniqueid": "MTK0061:3RYC5T2D740V4F9VKWX9VSM0FSFRP2", "current_trial": 220, "dateTime": 1509062418287, "trialdata": {"rt": -1, "stimulus": "<p id=\"stim\">SHOVEL</p>", "key_press": -1, "type": "PRES_VIS", "word": "shovel", "wordID": 1294, "conditions": [12, 800, "v", 24000], "trial": 6, "serialpos": 7, "trial_type": "single-stim", "trial_index": 220, "time_elapsed": 934631, "internal_node_id": "0.0-157.0"}}, {"uniqueid": "MTK0061:3RYC5T2D740V4F9VKWX9VSM0FSFRP2", "current_trial": 221, "dateTime": 1509062420342, "trialdata": {"rt": -1, "stimulus": "<p id=\"stim\">VELVET</p>", "key_press": -1, "type": "PRES_VIS", "word": "velvet", "wordID": 1554, "conditions": [12, 800, "v", 24000], "trial": 6, "serialpos": 8, "trial_type": "single-stim", "trial_index": 221, "time_elapsed": 936687, "internal_node_id": "0.0-158.0"}}, {"uniqueid": "MTK0061:3RYC5T2D740V4F9VKWX9VSM0FSFRP2", "current_trial": 222, "dateTime": 1509062422272, "trialdata": {"rt": -1, "stimulus": "<p id=\"stim\">CHIPMUNK</p>", "key_press": -1, "type": "PRES_VIS", "word": "chipmunk", "wordID": 303, "conditions": [12, 800, "v", 24000], "trial": 6, "serialpos": 9, "trial_type": "single-stim", "trial_index": 222, "time_elapsed": 938616, "internal_node_id": "0.0-159.0"}}, {"uniqueid": "MTK0061:3RYC5T2D740V4F9VKWX9VSM0FSFRP2", "current_trial": 223, "dateTime": 1509062424055, "trialdata": {"rt": -1, "stimulus": "<p id=\"stim\">JELLY</p>", "key_press": -1, "type": "PRES_VIS", "word": "jelly", "wordID": 754, "conditions": [12, 800, "v", 24000], "trial": 6, "serialpos": 10, "trial_type": "single-stim", "trial_index": 223, "time_elapsed": 940391, "internal_node_id": "0.0-160.0"}}, {"uniqueid": "MTK0061:3RYC5T2D740V4F9VKWX9VSM0FSFRP2", "current_trial": 224, "dateTime": 1509062425779, "trialdata": {"rt": -1, "stimulus": "<p id=\"stim\">FINGER</p>", "key_press": -1, "type": "PRES_VIS", "word": "finger", "wordID": 566, "conditions": [12, 800, "v", 24000], "trial": 6, "serialpos": 11, "trial_type": "single-stim", "trial_index": 224, "time_elapsed": 942124, "internal_node_id": "0.0-161.0"}}, {"uniqueid": "MTK0061:3RYC5T2D740V4F9VKWX9VSM0FSFRP2", "current_trial": 225, "dateTime": 1509062427953, "trialdata": {"rt": -1, "stimulus": "", "key_press": -1, "type": "PRE_RECALL_DELAY", "trial_type": "single-stim", "trial_index": 225, "time_elapsed": 944297, "internal_node_id": "0.0-162.0-0.0"}}, {"uniqueid": "MTK0061:3RYC5T2D740V4F9VKWX9VSM0FSFRP2", "current_trial": 226, "dateTime": 1509062428458, "trialdata": {"rt": -1000, "stimulus": "/static/audio/400Hz.wav", "key_press": -1, "type": "PRE_RECALL_ALERT", "trial_type": "single-audio", "trial_index": 226, "time_elapsed": 944803, "internal_node_id": "0.0-163.0"}}, {"uniqueid": "MTK0061:3RYC5T2D740V4F9VKWX9VSM0FSFRP2", "current_trial": 227, "dateTime": 1509062488476, "trialdata": {"rt": [3752, 6016, 8199, 10210, 13071, 15014, 17437, 20616, 24045, 25754, 30434], "recwords": ["table", "wrist", "saddle", "hornet", "wasp", "shovel", "velvet", "chipmunk", "jelly", "finger", "servant"], "type": "FREE_RECALL", "conditions": [12, 800, "v", 24000], "trial": 6, "trial_type": "free-recall", "trial_index": 227, "time_elapsed": 1004820, "internal_node_id": "0.0-164.0-0.0"}}, {"uniqueid": "MTK0061:3RYC5T2D740V4F9VKWX9VSM0FSFRP2", "current_trial": 228, "dateTime": 1509062494658, "trialdata": {"rt": 4178, "key_press": 32, "type": "INSTRUCTIONS", "trial_type": "text", "trial_index": 228, "time_elapsed": 1011003, "internal_node_id": "0.0-165.0"}}, {"uniqueid": "MTK0061:3RYC5T2D740V4F9VKWX9VSM0FSFRP2", "current_trial": 229, "dateTime": 1509062520708, "trialdata": {"rt": [5059, 10238, 12255, 16912, 19135, 22217], "responses": ["17", "1", "20", "21", "6", "18"], "num1": [4, 9, 9, 6, 3, 8, 9], "num2": [9, 8, 6, 8, 1, 8, 5], "num3": [8, 2, 7, 7, 2, 2, 1], "type": "DISTRACTOR", "conditions": [24, 800, "v", 24000], "trial": 7, "trial_type": "math-distractor", "trial_index": 229, "time_elapsed": 1037052, "internal_node_id": "0.0-166.0"}}, {"uniqueid": "MTK0061:3RYC5T2D740V4F9VKWX9VSM0FSFRP2", "current_trial": 230, "dateTime": 1509062524232, "trialdata": {"rt": -1, "stimulus": "<p id=\"stim\">10</p>", "key_press": -1, "trial_type": "single-stim", "trial_index": 230, "time_elapsed": 1040576, "internal_node_id": "0.0-167.0-0.0"}}, {"uniqueid": "MTK0061:3RYC5T2D740V4F9VKWX9VSM0FSFRP2", "current_trial": 231, "dateTime": 1509062525277, "trialdata": {"rt": -1, "stimulus": "<p id=\"stim\">9</p>", "key_press": -1, "trial_type": "single-stim", "trial_index": 231, "time_elapsed": 1041621, "internal_node_id": "0.0-167.0-1.0"}}, {"uniqueid": "MTK0061:3RYC5T2D740V4F9VKWX9VSM0FSFRP2", "current_trial": 232, "dateTime": 1509062526367, "trialdata": {"rt": -1, "stimulus": "<p id=\"stim\">8</p>", "key_press": -1, "trial_type": "single-stim", "trial_index": 232, "time_elapsed": 1042711, "internal_node_id": "0.0-167.0-2.0"}}, {"uniqueid": "MTK0061:3RYC5T2D740V4F9VKWX9VSM0FSFRP2", "current_trial": 233, "dateTime": 1509062527400, "trialdata": {"rt": -1, "stimulus": "<p id=\"stim\">7</p>", "key_press": -1, "trial_type": "single-stim", "trial_index": 233, "time_elapsed": 1043745, "internal_node_id": "0.0-167.0-3.0"}}, {"uniqueid": "MTK0061:3RYC5T2D740V4F9VKWX9VSM0FSFRP2", "current_trial": 234, "dateTime": 1509062528493, "trialdata": {"rt": -1, "stimulus": "<p id=\"stim\">6</p>", "key_press": -1, "trial_type": "single-stim", "trial_index": 234, "time_elapsed": 1044838, "internal_node_id": "0.0-167.0-4.0"}}, {"uniqueid": "MTK0061:3RYC5T2D740V4F9VKWX9VSM0FSFRP2", "current_trial": 235, "dateTime": 1509062529529, "trialdata": {"rt": -1, "stimulus": "<p id=\"stim\">5</p>", "key_press": -1, "trial_type": "single-stim", "trial_index": 235, "time_elapsed": 1045874, "internal_node_id": "0.0-167.0-5.0"}}, {"uniqueid": "MTK0061:3RYC5T2D740V4F9VKWX9VSM0FSFRP2", "current_trial": 236, "dateTime": 1509062530610, "trialdata": {"rt": -1, "stimulus": "<p id=\"stim\">4</p>", "key_press": -1, "trial_type": "single-stim", "trial_index": 236, "time_elapsed": 1046955, "internal_node_id": "0.0-167.0-6.0"}}, {"uniqueid": "MTK0061:3RYC5T2D740V4F9VKWX9VSM0FSFRP2", "current_trial": 237, "dateTime": 1509062531653, "trialdata": {"rt": -1, "stimulus": "<p id=\"stim\">3</p>", "key_press": -1, "trial_type": "single-stim", "trial_index": 237, "time_elapsed": 1047998, "internal_node_id": "0.0-167.0-7.0"}}, {"uniqueid": "MTK0061:3RYC5T2D740V4F9VKWX9VSM0FSFRP2", "current_trial": 238, "dateTime": 1509062532792, "trialdata": {"rt": -1, "stimulus": "<p id=\"stim\">2</p>", "key_press": -1, "trial_type": "single-stim", "trial_index": 238, "time_elapsed": 1049138, "internal_node_id": "0.0-167.0-8.0"}}, {"uniqueid": "MTK0061:3RYC5T2D740V4F9VKWX9VSM0FSFRP2", "current_trial": 239, "dateTime": 1509062533798, "trialdata": {"rt": -1, "stimulus": "<p id=\"stim\">1</p>", "key_press": -1, "trial_type": "single-stim", "trial_index": 239, "time_elapsed": 1050142, "internal_node_id": "0.0-167.0-9.0"}}, {"uniqueid": "MTK0061:3RYC5T2D740V4F9VKWX9VSM0FSFRP2", "current_trial": 240, "dateTime": 1509062535302, "trialdata": {"rt": -1, "stimulus": "<p id=\"stim\">+</p>", "key_press": -1, "type": "FIXATION", "trial_type": "single-stim", "trial_index": 240, "time_elapsed": 1051647, "internal_node_id": "0.0-168.0-0.0"}}, {"uniqueid": "MTK0061:3RYC5T2D740V4F9VKWX9VSM0FSFRP2", "current_trial": 241, "dateTime": 1509062536108, "trialdata": {"rt": -1, "stimulus": "<p id=\"stim\">FLASK</p>", "key_press": -1, "type": "PRES_VIS", "word": "flask", "wordID": 575, "conditions": [24, 800, "v", 24000], "trial": 7, "serialpos": 0, "trial_type": "single-stim", "trial_index": 241, "time_elapsed": 1052452, "internal_node_id": "0.0-169.0"}}, {"uniqueid": "MTK0061:3RYC5T2D740V4F9VKWX9VSM0FSFRP2", "current_trial": 242, "dateTime": 1509062537994, "trialdata": {"rt": -1, "stimulus": "<p id=\"stim\">HERO</p>", "key_press": -1, "type": "PRES_VIS", "word": "hero", "wordID": 705, "conditions": [24, 800, "v", 24000], "trial": 7, "serialpos": 1, "trial_type": "single-stim", "trial_index": 242, "time_elapsed": 1054340, "internal_node_id": "0.0-170.0"}}, {"uniqueid": "MTK0061:3RYC5T2D740V4F9VKWX9VSM0FSFRP2", "current_trial": 243, "dateTime": 1509062539706, "trialdata": {"rt": -1, "stimulus": "<p id=\"stim\">COOK</p>", "key_press": -1, "type": "PRES_VIS", "word": "cook", "wordID": 371, "conditions": [24, 800, "v", 24000], "trial": 7, "serialpos": 2, "trial_type": "single-stim", "trial_index": 243, "time_elapsed": 1056050, "internal_node_id": "0.0-171.0"}}, {"uniqueid": "MTK0061:3RYC5T2D740V4F9VKWX9VSM0FSFRP2", "current_trial": 244, "dateTime": 1509062541610, "trialdata": {"rt": -1, "stimulus": "<p id=\"stim\">BEAKER</p>", "key_press": -1, "type": "PRES_VIS", "word": "beaker", "wordID": 103, "conditions": [24, 800, "v", 24000], "trial": 7, "serialpos": 3, "trial_type": "single-stim", "trial_index": 244, "time_elapsed": 1057949, "internal_node_id": "0.0-172.0"}}, {"uniqueid": "MTK0061:3RYC5T2D740V4F9VKWX9VSM0FSFRP2", "current_trial": 245, "dateTime": 1509062543365, "trialdata": {"rt": -1, "stimulus": "<p id=\"stim\">HOOK</p>", "key_press": -1, "type": "PRES_VIS", "word": "hook", "wordID": 714, "conditions": [24, 800, "v", 24000], "trial": 7, "serialpos": 4, "trial_type": "single-stim", "trial_index": 245, "time_elapsed": 1059709, "internal_node_id": "0.0-173.0"}}, {"uniqueid": "MTK0061:3RYC5T2D740V4F9VKWX9VSM0FSFRP2", "current_trial": 246, "dateTime": 1509062545244, "trialdata": {"rt": -1, "stimulus": "<p id=\"stim\">CANYON</p>", "key_press": -1, "type": "PRES_VIS", "word": "canyon", "wordID": 234, "conditions": [24, 800, "v", 24000], "trial": 7, "serialpos": 5, "trial_type": "single-stim", "trial_index": 246, "time_elapsed": 1061588, "internal_node_id": "0.0-174.0"}}, {"uniqueid": "MTK0061:3RYC5T2D740V4F9VKWX9VSM0FSFRP2", "current_trial": 247, "dateTime": 1509062547021, "trialdata": {"rt": -1, "stimulus": "<p id=\"stim\">PUPPY</p>", "key_press": -1, "type": "PRES_VIS", "word": "puppy", "wordID": 1143, "conditions": [24, 800, "v", 24000], "trial": 7, "serialpos": 6, "trial_type": "single-stim", "trial_index": 247, "time_elapsed": 1063366, "internal_node_id": "0.0-175.0"}}, {"uniqueid": "MTK0061:3RYC5T2D740V4F9VKWX9VSM0FSFRP2", "current_trial": 248, "dateTime": 1509062548827, "trialdata": {"rt": -1, "stimulus": "<p id=\"stim\">BUNNY</p>", "key_press": -1, "type": "PRES_VIS", "word": "bunny", "wordID": 197, "conditions": [24, 800, "v", 24000], "trial": 7, "serialpos": 7, "trial_type": "single-stim", "trial_index": 248, "time_elapsed": 1065171, "internal_node_id": "0.0-176.0"}}, {"uniqueid": "MTK0061:3RYC5T2D740V4F9VKWX9VSM0FSFRP2", "current_trial": 249, "dateTime": 1509062550440, "trialdata": {"rt": -1, "stimulus": "<p id=\"stim\">MISTER</p>", "key_press": -1, "type": "PRES_VIS", "word": "mister", "wordID": 900, "conditions": [24, 800, "v", 24000], "trial": 7, "serialpos": 8, "trial_type": "single-stim", "trial_index": 249, "time_elapsed": 1066784, "internal_node_id": "0.0-177.0"}}, {"uniqueid": "MTK0061:3RYC5T2D740V4F9VKWX9VSM0FSFRP2", "current_trial": 250, "dateTime": 1509062552435, "trialdata": {"rt": -1, "stimulus": "<p id=\"stim\">MATTRESS</p>", "key_press": -1, "type": "PRES_VIS", "word": "mattress", "wordID": 878, "conditions": [24, 800, "v", 24000], "trial": 7, "serialpos": 9, "trial_type": "single-stim", "trial_index": 250, "time_elapsed": 1068779, "internal_node_id": "0.0-178.0"}}, {"uniqueid": "MTK0061:3RYC5T2D740V4F9VKWX9VSM0FSFRP2", "current_trial": 251, "dateTime": 1509062554177, "trialdata": {"rt": -1, "stimulus": "<p id=\"stim\">IGLOO</p>", "key_press": -1, "type": "PRES_VIS", "word": "igloo", "wordID": 733, "conditions": [24, 800, "v", 24000], "trial": 7, "serialpos": 10, "trial_type": "single-stim", "trial_index": 251, "time_elapsed": 1070522, "internal_node_id": "0.0-179.0"}}, {"uniqueid": "MTK0061:3RYC5T2D740V4F9VKWX9VSM0FSFRP2", "current_trial": 252, "dateTime": 1509062555832, "trialdata": {"rt": -1, "stimulus": "<p id=\"stim\">GARBAGE</p>", "key_press": -1, "type": "PRES_VIS", "word": "garbage", "wordID": 621, "conditions": [24, 800, "v", 24000], "trial": 7, "serialpos": 11, "trial_type": "single-stim", "trial_index": 252, "time_elapsed": 1072177, "internal_node_id": "0.0-180.0"}}, {"uniqueid": "MTK0061:3RYC5T2D740V4F9VKWX9VSM0FSFRP2", "current_trial": 253, "dateTime": 1509062557783, "trialdata": {"rt": -1, "stimulus": "<p id=\"stim\">WASHER</p>", "key_press": -1, "type": "PRES_VIS", "word": "washer", "wordID": 1591, "conditions": [24, 800, "v", 24000], "trial": 7, "serialpos": 12, "trial_type": "single-stim", "trial_index": 253, "time_elapsed": 1074128, "internal_node_id": "0.0-181.0"}}, {"uniqueid": "MTK0061:3RYC5T2D740V4F9VKWX9VSM0FSFRP2", "current_trial": 254, "dateTime": 1509062559506, "trialdata": {"rt": -1, "stimulus": "<p id=\"stim\">BADGE</p>", "key_press": -1, "type": "PRES_VIS", "word": "badge", "wordID": 67, "conditions": [24, 800, "v", 24000], "trial": 7, "serialpos": 13, "trial_type": "single-stim", "trial_index": 254, "time_elapsed": 1075850, "internal_node_id": "0.0-182.0"}}, {"uniqueid": "MTK0061:3RYC5T2D740V4F9VKWX9VSM0FSFRP2", "current_trial": 255, "dateTime": 1509062561368, "trialdata": {"rt": -1, "stimulus": "<p id=\"stim\">TRACTOR</p>", "key_press": -1, "type": "PRES_VIS", "word": "tractor", "wordID": 1492, "conditions": [24, 800, "v", 24000], "trial": 7, "serialpos": 14, "trial_type": "single-stim", "trial_index": 255, "time_elapsed": 1077712, "internal_node_id": "0.0-183.0"}}, {"uniqueid": "MTK0061:3RYC5T2D740V4F9VKWX9VSM0FSFRP2", "current_trial": 256, "dateTime": 1509062563151, "trialdata": {"rt": -1, "stimulus": "<p id=\"stim\">TRUCK</p>", "key_press": -1, "type": "PRES_VIS", "word": "truck", "wordID": 1511, "conditions": [24, 800, "v", 24000], "trial": 7, "serialpos": 15, "trial_type": "single-stim", "trial_index": 256, "time_elapsed": 1079497, "internal_node_id": "0.0-184.0"}}, {"uniqueid": "MTK0061:3RYC5T2D740V4F9VKWX9VSM0FSFRP2", "current_trial": 257, "dateTime": 1509062564787, "trialdata": {"rt": -1, "stimulus": "<p id=\"stim\">DUSTPAN</p>", "key_press": -1, "type": "PRES_VIS", "word": "dustpan", "wordID": 508, "conditions": [24, 800, "v", 24000], "trial": 7, "serialpos": 16, "trial_type": "single-stim", "trial_index": 257, "time_elapsed": 1081132, "internal_node_id": "0.0-185.0"}}, {"uniqueid": "MTK0061:3RYC5T2D740V4F9VKWX9VSM0FSFRP2", "current_trial": 258, "dateTime": 1509062566723, "trialdata": {"rt": -1, "stimulus": "<p id=\"stim\">HAND</p>", "key_press": -1, "type": "PRES_VIS", "word": "hand", "wordID": 682, "conditions": [24, 800, "v", 24000], "trial": 7, "serialpos": 17, "trial_type": "single-stim", "trial_index": 258, "time_elapsed": 1083067, "internal_node_id": "0.0-186.0"}}, {"uniqueid": "MTK0061:3RYC5T2D740V4F9VKWX9VSM0FSFRP2", "current_trial": 259, "dateTime": 1509062568630, "trialdata": {"rt": -1, "stimulus": "<p id=\"stim\">LADY</p>", "key_press": -1, "type": "PRES_VIS", "word": "lady", "wordID": 793, "conditions": [24, 800, "v", 24000], "trial": 7, "serialpos": 18, "trial_type": "single-stim", "trial_index": 259, "time_elapsed": 1084975, "internal_node_id": "0.0-187.0"}}, {"uniqueid": "MTK0061:3RYC5T2D740V4F9VKWX9VSM0FSFRP2", "current_trial": 260, "dateTime": 1509062570536, "trialdata": {"rt": -1, "stimulus": "<p id=\"stim\">HANDBAG</p>", "key_press": -1, "type": "PRES_VIS", "word": "handbag", "wordID": 683, "conditions": [24, 800, "v", 24000], "trial": 7, "serialpos": 19, "trial_type": "single-stim", "trial_index": 260, "time_elapsed": 1086881, "internal_node_id": "0.0-188.0"}}, {"uniqueid": "MTK0061:3RYC5T2D740V4F9VKWX9VSM0FSFRP2", "current_trial": 261, "dateTime": 1509062572233, "trialdata": {"rt": -1, "stimulus": "<p id=\"stim\">MAILBOX</p>", "key_press": -1, "type": "PRES_VIS", "word": "mailbox", "wordID": 856, "conditions": [24, 800, "v", 24000], "trial": 7, "serialpos": 20, "trial_type": "single-stim", "trial_index": 261, "time_elapsed": 1088578, "internal_node_id": "0.0-189.0"}}, {"uniqueid": "MTK0061:3RYC5T2D740V4F9VKWX9VSM0FSFRP2", "current_trial": 262, "dateTime": 1509062573902, "trialdata": {"rt": -1, "stimulus": "<p id=\"stim\">WOMAN</p>", "key_press": -1, "type": "PRES_VIS", "word": "woman", "wordID": 1619, "conditions": [24, 800, "v", 24000], "trial": 7, "serialpos": 21, "trial_type": "single-stim", "trial_index": 262, "time_elapsed": 1090247, "internal_node_id": "0.0-190.0"}}, {"uniqueid": "MTK0061:3RYC5T2D740V4F9VKWX9VSM0FSFRP2", "current_trial": 263, "dateTime": 1509062575644, "trialdata": {"rt": -1, "stimulus": "<p id=\"stim\">FRIEND</p>", "key_press": -1, "type": "PRES_VIS", "word": "friend", "wordID": 605, "conditions": [24, 800, "v", 24000], "trial": 7, "serialpos": 22, "trial_type": "single-stim", "trial_index": 263, "time_elapsed": 1091989, "internal_node_id": "0.0-191.0"}}, {"uniqueid": "MTK0061:3RYC5T2D740V4F9VKWX9VSM0FSFRP2", "current_trial": 264, "dateTime": 1509062577566, "trialdata": {"rt": -1, "stimulus": "<p id=\"stim\">ROBBER</p>", "key_press": -1, "type": "PRES_VIS", "word": "robber", "wordID": 1196, "conditions": [24, 800, "v", 24000], "trial": 7, "serialpos": 23, "trial_type": "single-stim", "trial_index": 264, "time_elapsed": 1093911, "internal_node_id": "0.0-192.0"}}, {"uniqueid": "MTK0061:3RYC5T2D740V4F9VKWX9VSM0FSFRP2", "current_trial": 265, "dateTime": 1509062580019, "trialdata": {"rt": -1, "stimulus": "", "key_press": -1, "type": "PRE_RECALL_DELAY", "trial_type": "single-stim", "trial_index": 265, "time_elapsed": 1096365, "internal_node_id": "0.0-193.0-0.0"}}, {"uniqueid": "MTK0061:3RYC5T2D740V4F9VKWX9VSM0FSFRP2", "current_trial": 266, "dateTime": 1509062580523, "trialdata": {"rt": -1000, "stimulus": "/static/audio/400Hz.wav", "key_press": -1, "type": "PRE_RECALL_ALERT", "trial_type": "single-audio", "trial_index": 266, "time_elapsed": 1096868, "internal_node_id": "0.0-194.0"}}, {"uniqueid": "MTK0061:3RYC5T2D740V4F9VKWX9VSM0FSFRP2", "current_trial": 267, "dateTime": 1509062640550, "trialdata": {"rt": [4195, 5977, 8888, 11623, 13534, 15424, 16901, 21403, 26632, 29301, 32088, 33652, 36851, 39658, 43165, 45071, 48016], "recwords": ["flask", "hero", "cook", "breaker", "hook", "canyon", "puppy", "mattress", "badge", "washer", "truck", "hand", "lady", "mailbox", "women", "friend", "robber"], "type": "FREE_RECALL", "conditions": [24, 800, "v", 24000], "trial": 7, "trial_type": "free-recall", "trial_index": 267, "time_elapsed": 1156894, "internal_node_id": "0.0-195.0-0.0"}}, {"uniqueid": "MTK0061:3RYC5T2D740V4F9VKWX9VSM0FSFRP2", "current_trial": 268, "dateTime": 1509062644221, "trialdata": {"rt": 1655, "key_press": 32, "type": "INSTRUCTIONS", "trial_type": "text", "trial_index": 268, "time_elapsed": 1160562, "internal_node_id": "0.0-196.0"}}, {"uniqueid": "MTK0061:3RYC5T2D740V4F9VKWX9VSM0FSFRP2", "current_trial": 269, "dateTime": 1509062670254, "trialdata": {"rt": [4622, 8288, 11471, 16876], "responses": ["15", "20", "15", "11"], "num1": [2, 2, 7, 6, 8], "num2": [7, 8, 1, 5, 4], "num3": [5, 9, 7, 1, 3], "type": "DISTRACTOR", "conditions": [24, 1600, "v", 24000], "trial": 8, "trial_type": "math-distractor", "trial_index": 269, "time_elapsed": 1186597, "internal_node_id": "0.0-197.0"}}, {"uniqueid": "MTK0061:3RYC5T2D740V4F9VKWX9VSM0FSFRP2", "current_trial": 270, "dateTime": 1509062673268, "trialdata": {"rt": -1, "stimulus": "<p id=\"stim\">10</p>", "key_press": -1, "trial_type": "single-stim", "trial_index": 270, "time_elapsed": 1189610, "internal_node_id": "0.0-198.0-0.0"}}, {"uniqueid": "MTK0061:3RYC5T2D740V4F9VKWX9VSM0FSFRP2", "current_trial": 271, "dateTime": 1509062674287, "trialdata": {"rt": -1, "stimulus": "<p id=\"stim\">9</p>", "key_press": -1, "trial_type": "single-stim", "trial_index": 271, "time_elapsed": 1190627, "internal_node_id": "0.0-198.0-1.0"}}, {"uniqueid": "MTK0061:3RYC5T2D740V4F9VKWX9VSM0FSFRP2", "current_trial": 272, "dateTime": 1509062675306, "trialdata": {"rt": -1, "stimulus": "<p id=\"stim\">8</p>", "key_press": -1, "trial_type": "single-stim", "trial_index": 272, "time_elapsed": 1191644, "internal_node_id": "0.0-198.0-2.0"}}, {"uniqueid": "MTK0061:3RYC5T2D740V4F9VKWX9VSM0FSFRP2", "current_trial": 273, "dateTime": 1509062676315, "trialdata": {"rt": -1, "stimulus": "<p i