{"condition": 0, "counterbalance": 2134, "assignmentId": "3U088ZLJVL0XOUMX25SP3QT93U60WP", "workerId": "MTK0803", "hitId": "3VGZ74AYTGNJYGTJ9ECPN4D22PXGCG", "currenttrial": 626, "bonus": 0, "data": [{"uniqueid": "MTK0803:3U088ZLJVL0XOUMX25SP3QT93U60WP", "current_trial": 0, "dateTime": 1512757080853, "trialdata": {"rt": 2163, "key_press": 32, "type": "INSTRUCTIONS", "trial_type": "text", "trial_index": 0, "time_elapsed": 2166, "internal_node_id": "0.0-0.0"}}, {"uniqueid": "MTK0803:3U088ZLJVL0XOUMX25SP3QT93U60WP", "current_trial": 1, "dateTime": 1512757103523, "trialdata": {"rt": 22666, "key_press": 32, "type": "INSTRUCTIONS", "trial_type": "text", "trial_index": 1, "time_elapsed": 24836, "internal_node_id": "0.0-1.0"}}, {"uniqueid": "MTK0803:3U088ZLJVL0XOUMX25SP3QT93U60WP", "current_trial": 2, "dateTime": 1512757126941, "trialdata": {"rt": [22962], "responses": ["ocean"], "type": "AUDIO_TEST", "trial_type": "audio-test", "trial_index": 2, "time_elapsed": 48254, "internal_node_id": "0.0-2.0"}}, {"uniqueid": "MTK0803:3U088ZLJVL0XOUMX25SP3QT93U60WP", "current_trial": 3, "dateTime": 1512757203415, "trialdata": {"rt": [16536, 29392, 76456], "responses": ["chrystal", "christal", "crystal"], "type": "AUDIO_TEST", "trial_type": "audio-test", "trial_index": 3, "time_elapsed": 124728, "internal_node_id": "0.0-3.0"}}, {"uniqueid": "MTK0803:3U088ZLJVL0XOUMX25SP3QT93U60WP", "current_trial": 4, "dateTime": 1512757414976, "trialdata": {"rt": [22536, 47165, 53061, 63381, 69857, 116893, 140189, 150093, 156381, 170917, 196168, 211533], "responses": ["fight", "bite", "bike", "buy", "buys", "psyche", "psyche", "sight", "sights", "stife", "spike", "spice"], "type": "AUDIO_TEST", "trial_type": "audio-test", "trial_index": 4, "time_elapsed": 336289, "internal_node_id": "0.0-4.0"}}, {"uniqueid": "MTK0803:3U088ZLJVL0XOUMX25SP3QT93U60WP", "current_trial": 5, "dateTime": 1512757435780, "trialdata": {"rt": 20049, "responses": "{\"Q0\":\"12 am\",\"Q1\":\"6 am\",\"Q2\":\"4\"}", "type": "SLEEP_SURVEY", "trial_type": "survey-text", "trial_index": 5, "time_elapsed": 357094, "internal_node_id": "0.0-5.0"}}, {"uniqueid": "MTK0803:3U088ZLJVL0XOUMX25SP3QT93U60WP", "current_trial": 6, "dateTime": 1512757442843, "trialdata": {"rt": 6059, "key_press": 32, "type": "INSTRUCTIONS", "trial_type": "text", "trial_index": 6, "time_elapsed": 364156, "internal_node_id": "0.0-6.0"}}, {"uniqueid": "MTK0803:3U088ZLJVL0XOUMX25SP3QT93U60WP", "current_trial": 7, "dateTime": 1512757448818, "trialdata": {"rt": 5472, "key_press": 32, "type": "INSTRUCTIONS", "trial_type": "text", "trial_index": 7, "time_elapsed": 370132, "internal_node_id": "0.0-7.0"}}, {"uniqueid": "MTK0803:3U088ZLJVL0XOUMX25SP3QT93U60WP", "current_trial": 8, "dateTime": 1512757450682, "trialdata": {"rt": 1361, "key_press": 32, "type": "INSTRUCTIONS", "trial_type": "text", "trial_index": 8, "time_elapsed": 371996, "internal_node_id": "0.0-8.0"}}, {"uniqueid": "MTK0803:3U088ZLJVL0XOUMX25SP3QT93U60WP", "current_trial": 9, "dateTime": 1512757469979, "trialdata": {"rt": [6209, 11137, 14737], "responses": ["14", "20", "11"], "num1": [7, 6, 6, 4], "num2": [2, 8, 3, 9], "num3": [6, 6, 2, 3], "type": "DISTRACTOR", "conditions": [18, 1200, "v", 18000], "trial": 0, "trial_type": "math-distractor", "trial_index": 9, "time_elapsed": 391293, "internal_node_id": "0.0-9.0"}}, {"uniqueid": "MTK0803:3U088ZLJVL0XOUMX25SP3QT93U60WP", "current_trial": 10, "dateTime": 1512757472983, "trialdata": {"rt": -1, "stimulus": "<p id=\"stim\">10</p>", "key_press": -1, "trial_type": "single-stim", "trial_index": 10, "time_elapsed": 394296, "internal_node_id": "0.0-10.0-0.0"}}, {"uniqueid": "MTK0803:3U088ZLJVL0XOUMX25SP3QT93U60WP", "current_trial": 11, "dateTime": 1512757473985, "trialdata": {"rt": -1, "stimulus": "<p id=\"stim\">9</p>", "key_press": -1, "trial_type": "single-stim", "trial_index": 11, "time_elapsed": 395298, "internal_node_id": "0.0-10.0-1.0"}}, {"uniqueid": "MTK0803:3U088ZLJVL0XOUMX25SP3QT93U60WP", "current_trial": 12, "dateTime": 1512757474987, "trialdata": {"rt": -1, "stimulus": "<p id=\"stim\">8</p>", "key_press": -1, "trial_type": "single-stim", "trial_index": 12, "time_elapsed": 396301, "internal_node_id": "0.0-10.0-2.0"}}, {"uniqueid": "MTK0803:3U088ZLJVL0XOUMX25SP3QT93U60WP", "current_trial": 13, "dateTime": 1512757475988, "trialdata": {"rt": -1, "stimulus": "<p id=\"stim\">7</p>", "key_press": -1, "trial_type": "single-stim", "trial_index": 13, "time_elapsed": 397302, "internal_node_id": "0.0-10.0-3.0"}}, {"uniqueid": "MTK0803:3U088ZLJVL0XOUMX25SP3QT93U60WP", "current_trial": 14, "dateTime": 1512757476990, "trialdata": {"rt": -1, "stimulus": "<p id=\"stim\">6</p>", "key_press": -1, "trial_type": "single-stim", "trial_index": 14, "time_elapsed": 398304, "internal_node_id": "0.0-10.0-4.0"}}, {"uniqueid": "MTK0803:3U088ZLJVL0XOUMX25SP3QT93U60WP", "current_trial": 15, "dateTime": 1512757478029, "trialdata": {"rt": -1, "stimulus": "<p id=\"stim\">5</p>", "key_press": -1, "trial_type": "single-stim", "trial_index": 15, "time_elapsed": 399342, "internal_node_id": "0.0-10.0-5.0"}}, {"uniqueid": "MTK0803:3U088ZLJVL0XOUMX25SP3QT93U60WP", "current_trial": 16, "dateTime": 1512757479030, "trialdata": {"rt": -1, "stimulus": "<p id=\"stim\">4</p>", "key_press": -1, "trial_type": "single-stim", "trial_index": 16, "time_elapsed": 400344, "internal_node_id": "0.0-10.0-6.0"}}, {"uniqueid": "MTK0803:3U088ZLJVL0XOUMX25SP3QT93U60WP", "current_trial": 17, "dateTime": 1512757480002, "trialdata": {"rt": -1, "stimulus": "<p id=\"stim\">3</p>", "key_press": -1, "trial_type": "single-stim", "trial_index": 17, "time_elapsed": 401315, "internal_node_id": "0.0-10.0-7.0"}}, {"uniqueid": "MTK0803:3U088ZLJVL0XOUMX25SP3QT93U60WP", "current_trial": 18, "dateTime": 1512757481005, "trialdata": {"rt": -1, "stimulus": "<p id=\"stim\">2</p>", "key_press": -1, "trial_type": "single-stim", "trial_index": 18, "time_elapsed": 402319, "internal_node_id": "0.0-10.0-8.0"}}, {"uniqueid": "MTK0803:3U088ZLJVL0XOUMX25SP3QT93U60WP", "current_trial": 19, "dateTime": 1512757482007, "trialdata": {"rt": -1, "stimulus": "<p id=\"stim\">1</p>", "key_press": -1, "trial_type": "single-stim", "trial_index": 19, "time_elapsed": 403320, "internal_node_id": "0.0-10.0-9.0"}}, {"uniqueid": "MTK0803:3U088ZLJVL0XOUMX25SP3QT93U60WP", "current_trial": 20, "dateTime": 1512757483508, "trialdata": {"rt": -1, "stimulus": "<p id=\"stim\">+</p>", "key_press": -1, "type": "FIXATION", "trial_type": "single-stim", "trial_index": 20, "time_elapsed": 404822, "internal_node_id": "0.0-11.0-0.0"}}, {"uniqueid": "MTK0803:3U088ZLJVL0XOUMX25SP3QT93U60WP", "current_trial": 21, "dateTime": 1512757484726, "trialdata": {"rt": -1, "stimulus": "<p id=\"stim\">SLIDE</p>", "key_press": -1, "type": "PRES_VIS", "word": "slide", "wordID": 1325, "conditions": [18, 1200, "v", 18000], "trial": 0, "serialpos": 0, "trial_type": "single-stim", "trial_index": 21, "time_elapsed": 406040, "internal_node_id": "0.0-12.0"}}, {"uniqueid": "MTK0803:3U088ZLJVL0XOUMX25SP3QT93U60WP", "current_trial": 22, "dateTime": 1512757486867, "trialdata": {"rt": -1, "stimulus": "<p id=\"stim\">FLESH</p>", "key_press": -1, "type": "PRES_VIS", "word": "flesh", "wordID": 578, "conditions": [18, 1200, "v", 18000], "trial": 0, "serialpos": 1, "trial_type": "single-stim", "trial_index": 22, "time_elapsed": 408181, "internal_node_id": "0.0-13.0"}}, {"uniqueid": "MTK0803:3U088ZLJVL0XOUMX25SP3QT93U60WP", "current_trial": 23, "dateTime": 1512757489242, "trialdata": {"rt": -1, "stimulus": "<p id=\"stim\">BLOUSE</p>", "key_press": -1, "type": "PRES_VIS", "word": "blouse", "wordID": 138, "conditions": [18, 1200, "v", 18000], "trial": 0, "serialpos": 2, "trial_type": "single-stim", "trial_index": 23, "time_elapsed": 410556, "internal_node_id": "0.0-14.0"}}, {"uniqueid": "MTK0803:3U088ZLJVL0XOUMX25SP3QT93U60WP", "current_trial": 24, "dateTime": 1512757491264, "trialdata": {"rt": -1, "stimulus": "<p id=\"stim\">ARMY</p>", "key_press": -1, "type": "PRES_VIS", "word": "army", "wordID": 38, "conditions": [18, 1200, "v", 18000], "trial": 0, "serialpos": 3, "trial_type": "single-stim", "trial_index": 24, "time_elapsed": 412578, "internal_node_id": "0.0-15.0"}}, {"uniqueid": "MTK0803:3U088ZLJVL0XOUMX25SP3QT93U60WP", "current_trial": 25, "dateTime": 1512757493480, "trialdata": {"rt": -1, "stimulus": "<p id=\"stim\">DUSTPAN</p>", "key_press": -1, "type": "PRES_VIS", "word": "dustpan", "wordID": 508, "conditions": [18, 1200, "v", 18000], "trial": 0, "serialpos": 4, "trial_type": "single-stim", "trial_index": 25, "time_elapsed": 414793, "internal_node_id": "0.0-16.0"}}, {"uniqueid": "MTK0803:3U088ZLJVL0XOUMX25SP3QT93U60WP", "current_trial": 26, "dateTime": 1512757495678, "trialdata": {"rt": -1, "stimulus": "<p id=\"stim\">KNIFE</p>", "key_press": -1, "type": "PRES_VIS", "word": "knife", "wordID": 784, "conditions": [18, 1200, "v", 18000], "trial": 0, "serialpos": 5, "trial_type": "single-stim", "trial_index": 26, "time_elapsed": 416992, "internal_node_id": "0.0-17.0"}}, {"uniqueid": "MTK0803:3U088ZLJVL0XOUMX25SP3QT93U60WP", "current_trial": 27, "dateTime": 1512757497985, "trialdata": {"rt": -1, "stimulus": "<p id=\"stim\">TUBA</p>", "key_press": -1, "type": "PRES_VIS", "word": "tuba", "wordID": 1514, "conditions": [18, 1200, "v", 18000], "trial": 0, "serialpos": 6, "trial_type": "single-stim", "trial_index": 27, "time_elapsed": 419298, "internal_node_id": "0.0-18.0"}}, {"uniqueid": "MTK0803:3U088ZLJVL0XOUMX25SP3QT93U60WP", "current_trial": 28, "dateTime": 1512757500168, "trialdata": {"rt": -1, "stimulus": "<p id=\"stim\">BEAVER</p>", "key_press": -1, "type": "PRES_VIS", "word": "beaver", "wordID": 108, "conditions": [18, 1200, "v", 18000], "trial": 0, "serialpos": 7, "trial_type": "single-stim", "trial_index": 28, "time_elapsed": 421481, "internal_node_id": "0.0-19.0"}}, {"uniqueid": "MTK0803:3U088ZLJVL0XOUMX25SP3QT93U60WP", "current_trial": 29, "dateTime": 1512757502368, "trialdata": {"rt": -1, "stimulus": "<p id=\"stim\">SPIDER</p>", "key_press": -1, "type": "PRES_VIS", "word": "spider", "wordID": 1350, "conditions": [18, 1200, "v", 18000], "trial": 0, "serialpos": 8, "trial_type": "single-stim", "trial_index": 29, "time_elapsed": 423682, "internal_node_id": "0.0-20.0"}}, {"uniqueid": "MTK0803:3U088ZLJVL0XOUMX25SP3QT93U60WP", "current_trial": 30, "dateTime": 1512757504758, "trialdata": {"rt": -1, "stimulus": "<p id=\"stim\">DOUGHNUT</p>", "key_press": -1, "type": "PRES_VIS", "word": "doughnut", "wordID": 489, "conditions": [18, 1200, "v", 18000], "trial": 0, "serialpos": 9, "trial_type": "single-stim", "trial_index": 30, "time_elapsed": 426072, "internal_node_id": "0.0-21.0"}}, {"uniqueid": "MTK0803:3U088ZLJVL0XOUMX25SP3QT93U60WP", "current_trial": 31, "dateTime": 1512757507064, "trialdata": {"rt": -1, "stimulus": "<p id=\"stim\">BUCKET</p>", "key_press": -1, "type": "PRES_VIS", "word": "bucket", "wordID": 183, "conditions": [18, 1200, "v", 18000], "trial": 0, "serialpos": 10, "trial_type": "single-stim", "trial_index": 31, "time_elapsed": 428378, "internal_node_id": "0.0-22.0"}}, {"uniqueid": "MTK0803:3U088ZLJVL0XOUMX25SP3QT93U60WP", "current_trial": 32, "dateTime": 1512757509317, "trialdata": {"rt": -1, "stimulus": "<p id=\"stim\">CANDY</p>", "key_press": -1, "type": "PRES_VIS", "word": "candy", "wordID": 229, "conditions": [18, 1200, "v", 18000], "trial": 0, "serialpos": 11, "trial_type": "single-stim", "trial_index": 32, "time_elapsed": 430631, "internal_node_id": "0.0-23.0"}}, {"uniqueid": "MTK0803:3U088ZLJVL0XOUMX25SP3QT93U60WP", "current_trial": 33, "dateTime": 1512757511554, "trialdata": {"rt": -1, "stimulus": "<p id=\"stim\">GYMNAST</p>", "key_press": -1, "type": "PRES_VIS", "word": "gymnast", "wordID": 674, "conditions": [18, 1200, "v", 18000], "trial": 0, "serialpos": 12, "trial_type": "single-stim", "trial_index": 33, "time_elapsed": 432868, "internal_node_id": "0.0-24.0"}}, {"uniqueid": "MTK0803:3U088ZLJVL0XOUMX25SP3QT93U60WP", "current_trial": 34, "dateTime": 1512757513639, "trialdata": {"rt": -1, "stimulus": "<p id=\"stim\">SNACK</p>", "key_press": -1, "type": "PRES_VIS", "word": "snack", "wordID": 1330, "conditions": [18, 1200, "v", 18000], "trial": 0, "serialpos": 13, "trial_type": "single-stim", "trial_index": 34, "time_elapsed": 434953, "internal_node_id": "0.0-25.0"}}, {"uniqueid": "MTK0803:3U088ZLJVL0XOUMX25SP3QT93U60WP", "current_trial": 35, "dateTime": 1512757515930, "trialdata": {"rt": -1, "stimulus": "<p id=\"stim\">ONION</p>", "key_press": -1, "type": "PRES_VIS", "word": "onion", "wordID": 976, "conditions": [18, 1200, "v", 18000], "trial": 0, "serialpos": 14, "trial_type": "single-stim", "trial_index": 35, "time_elapsed": 437243, "internal_node_id": "0.0-26.0"}}, {"uniqueid": "MTK0803:3U088ZLJVL0XOUMX25SP3QT93U60WP", "current_trial": 36, "dateTime": 1512757518070, "trialdata": {"rt": -1, "stimulus": "<p id=\"stim\">MUMMY</p>", "key_press": -1, "type": "PRES_VIS", "word": "mummy", "wordID": 931, "conditions": [18, 1200, "v", 18000], "trial": 0, "serialpos": 15, "trial_type": "single-stim", "trial_index": 36, "time_elapsed": 439383, "internal_node_id": "0.0-27.0"}}, {"uniqueid": "MTK0803:3U088ZLJVL0XOUMX25SP3QT93U60WP", "current_trial": 37, "dateTime": 1512757520327, "trialdata": {"rt": -1, "stimulus": "<p id=\"stim\">CATTLE</p>", "key_press": -1, "type": "PRES_VIS", "word": "cattle", "wordID": 260, "conditions": [18, 1200, "v", 18000], "trial": 0, "serialpos": 16, "trial_type": "single-stim", "trial_index": 37, "time_elapsed": 441640, "internal_node_id": "0.0-28.0"}}, {"uniqueid": "MTK0803:3U088ZLJVL0XOUMX25SP3QT93U60WP", "current_trial": 38, "dateTime": 1512757522720, "trialdata": {"rt": -1, "stimulus": "<p id=\"stim\">BANJO</p>", "key_press": -1, "type": "PRES_VIS", "word": "banjo", "wordID": 81, "conditions": [18, 1200, "v", 18000], "trial": 0, "serialpos": 17, "trial_type": "single-stim", "trial_index": 38, "time_elapsed": 444034, "internal_node_id": "0.0-29.0"}}, {"uniqueid": "MTK0803:3U088ZLJVL0XOUMX25SP3QT93U60WP", "current_trial": 39, "dateTime": 1512757525187, "trialdata": {"rt": -1, "stimulus": "", "key_press": -1, "type": "PRE_RECALL_DELAY", "trial_type": "single-stim", "trial_index": 39, "time_elapsed": 446501, "internal_node_id": "0.0-30.0-0.0"}}, {"uniqueid": "MTK0803:3U088ZLJVL0XOUMX25SP3QT93U60WP", "current_trial": 40, "dateTime": 1512757525697, "trialdata": {"rt": -1000, "stimulus": "/static/audio/400Hz.wav", "key_press": -1, "type": "PRE_RECALL_ALERT", "trial_type": "single-audio", "trial_index": 40, "time_elapsed": 447011, "internal_node_id": "0.0-31.0"}}, {"uniqueid": "MTK0803:3U088ZLJVL0XOUMX25SP3QT93U60WP", "current_trial": 41, "dateTime": 1512757585712, "trialdata": {"rt": [5422, 10647, 15390], "recwords": ["ladder", "glass", "door"], "type": "FREE_RECALL", "conditions": [18, 1200, "v", 18000], "trial": 0, "trial_type": "free-recall", "trial_index": 41, "time_elapsed": 507017, "internal_node_id": "0.0-32.0-0.0"}}, {"uniqueid": "MTK0803:3U088ZLJVL0XOUMX25SP3QT93U60WP", "current_trial": 42, "dateTime": 1512757629469, "trialdata": {"rt": 41430, "key_press": 32, "type": "INSTRUCTIONS", "trial_type": "text", "trial_index": 42, "time_elapsed": 550782, "internal_node_id": "0.0-33.0"}}, {"uniqueid": "MTK0803:3U088ZLJVL0XOUMX25SP3QT93U60WP", "current_trial": 43, "dateTime": 1512757649672, "trialdata": {"rt": [4751, 7895, 11486, 16647], "responses": ["12", "19", "14", "12"], "num1": [3, 6, 2, 5, 4], "num2": [7, 4, 5, 1, 8], "num3": [2, 9, 7, 6, 6], "type": "DISTRACTOR", "conditions": [18, 1200, "a", 18000], "trial": 1, "trial_type": "math-distractor", "trial_index": 43, "time_elapsed": 570985, "internal_node_id": "0.0-34.0"}}, {"uniqueid": "MTK0803:3U088ZLJVL0XOUMX25SP3QT93U60WP", "current_trial": 44, "dateTime": 1512757652703, "trialdata": {"rt": -1, "stimulus": "<p id=\"stim\">10</p>", "key_press": -1, "trial_type": "single-stim", "trial_index": 44, "time_elapsed": 574016, "internal_node_id": "0.0-35.0-0.0"}}, {"uniqueid": "MTK0803:3U088ZLJVL0XOUMX25SP3QT93U60WP", "current_trial": 45, "dateTime": 1512757653706, "trialdata": {"rt": -1, "stimulus": "<p id=\"stim\">9</p>", "key_press": -1, "trial_type": "single-stim", "trial_index": 45, "time_elapsed": 575020, "internal_node_id": "0.0-35.0-1.0"}}, {"uniqueid": "MTK0803:3U088ZLJVL0XOUMX25SP3QT93U60WP", "current_trial": 46, "dateTime": 1512757654816, "trialdata": {"rt": -1, "stimulus": "<p id=\"stim\">8</p>", "key_press": -1, "trial_type": "single-stim", "trial_index": 46, "time_elapsed": 576129, "internal_node_id": "0.0-35.0-2.0"}}, {"uniqueid": "MTK0803:3U088ZLJVL0XOUMX25SP3QT93U60WP", "current_trial": 47, "dateTime": 1512757655819, "trialdata": {"rt": -1, "stimulus": "<p id=\"stim\">7</p>", "key_press": -1, "trial_type": "single-stim", "trial_index": 47, "time_elapsed": 577132, "internal_node_id": "0.0-35.0-3.0"}}, {"uniqueid": "MTK0803:3U088ZLJVL0XOUMX25SP3QT93U60WP", "current_trial": 48, "dateTime": 1512757656820, "trialdata": {"rt": -1, "stimulus": "<p id=\"stim\">6</p>", "key_press": -1, "trial_type": "single-stim", "trial_index": 48, "time_elapsed": 578133, "internal_node_id": "0.0-35.0-4.0"}}, {"uniqueid": "MTK0803:3U088ZLJVL0XOUMX25SP3QT93U60WP", "current_trial": 49, "dateTime": 1512757657821, "trialdata": {"rt": -1, "stimulus": "<p id=\"stim\">5</p>", "key_press": -1, "trial_type": "single-stim", "trial_index": 49, "time_elapsed": 579135, "internal_node_id": "0.0-35.0-5.0"}}, {"uniqueid": "MTK0803:3U088ZLJVL0XOUMX25SP3QT93U60WP", "current_trial": 50, "dateTime": 1512757658823, "trialdata": {"rt": -1, "stimulus": "<p id=\"stim\">4</p>", "key_press": -1, "trial_type": "single-stim", "trial_index": 50, "time_elapsed": 580137, "internal_node_id": "0.0-35.0-6.0"}}, {"uniqueid": "MTK0803:3U088ZLJVL0XOUMX25SP3QT93U60WP", "current_trial": 51, "dateTime": 1512757659825, "trialdata": {"rt": -1, "stimulus": "<p id=\"stim\">3</p>", "key_press": -1, "trial_type": "single-stim", "trial_index": 51, "time_elapsed": 581139, "internal_node_id": "0.0-35.0-7.0"}}, {"uniqueid": "MTK0803:3U088ZLJVL0XOUMX25SP3QT93U60WP", "current_trial": 52, "dateTime": 1512757660866, "trialdata": {"rt": -1, "stimulus": "<p id=\"stim\">2</p>", "key_press": -1, "trial_type": "single-stim", "trial_index": 52, "time_elapsed": 582180, "internal_node_id": "0.0-35.0-8.0"}}, {"uniqueid": "MTK0803:3U088ZLJVL0XOUMX25SP3QT93U60WP", "current_trial": 53, "dateTime": 1512757661868, "trialdata": {"rt": -1, "stimulus": "<p id=\"stim\">1</p>", "key_press": -1, "trial_type": "single-stim", "trial_index": 53, "time_elapsed": 583181, "internal_node_id": "0.0-35.0-9.0"}}, {"uniqueid": "MTK0803:3U088ZLJVL0XOUMX25SP3QT93U60WP", "current_trial": 54, "dateTime": 1512757663370, "trialdata": {"rt": -1, "stimulus": "<p id=\"stim\">+</p>", "key_press": -1, "type": "FIXATION", "trial_type": "single-stim", "trial_index": 54, "time_elapsed": 584684, "internal_node_id": "0.0-36.0-0.0"}}, {"uniqueid": "MTK0803:3U088ZLJVL0XOUMX25SP3QT93U60WP", "current_trial": 55, "dateTime": 1512757665560, "trialdata": {"rt": -1000, "stimulus": "/static/audio/wordpool/GAZELLE.wav", "key_press": -1, "type": "PRES_AUD", "word": "gazelle", "wordID": 627, "conditions": [18, 1200, "a", 18000], "trial": 1, "serialpos": 0, "trial_type": "single-audio", "trial_index": 55, "time_elapsed": 586874, "internal_node_id": "0.0-37.0"}}, {"uniqueid": "MTK0803:3U088ZLJVL0XOUMX25SP3QT93U60WP", "current_trial": 56, "dateTime": 1512757667920, "trialdata": {"rt": -1000, "stimulus": "/static/audio/wordpool/DENIM.wav", "key_press": -1, "type": "PRES_AUD", "word": "denim", "wordID": 445, "conditions": [18, 1200, "a", 18000], "trial": 1, "serialpos": 1, "trial_type": "single-audio", "trial_index": 56, "time_elapsed": 589233, "internal_node_id": "0.0-38.0"}}, {"uniqueid": "MTK0803:3U088ZLJVL0XOUMX25SP3QT93U60WP", "current_trial": 57, "dateTime": 1512757670164, "trialdata": {"rt": -1000, "stimulus": "/static/audio/wordpool/MESSAGE.wav", "key_press": -1, "type": "PRES_AUD", "word": "message", "wordID": 887, "conditions": [18, 1200, "a", 18000], "trial": 1, "serialpos": 2, "trial_type": "single-audio", "trial_index": 57, "time_elapsed": 591478, "internal_node_id": "0.0-39.0"}}, {"uniqueid": "MTK0803:3U088ZLJVL0XOUMX25SP3QT93U60WP", "current_trial": 58, "dateTime": 1512757672251, "trialdata": {"rt": -1000, "stimulus": "/static/audio/wordpool/TERMITE.wav", "key_press": -1, "type": "PRES_AUD", "word": "termite", "wordID": 1450, "conditions": [18, 1200, "a", 18000], "trial": 1, "serialpos": 3, "trial_type": "single-audio", "trial_index": 58, "time_elapsed": 593564, "internal_node_id": "0.0-40.0"}}, {"uniqueid": "MTK0803:3U088ZLJVL0XOUMX25SP3QT93U60WP", "current_trial": 59, "dateTime": 1512757674296, "trialdata": {"rt": -1000, "stimulus": "/static/audio/wordpool/MOTOR.wav", "key_press": -1, "type": "PRES_AUD", "word": "motor", "wordID": 921, "conditions": [18, 1200, "a", 18000], "trial": 1, "serialpos": 4, "trial_type": "single-audio", "trial_index": 59, "time_elapsed": 595610, "internal_node_id": "0.0-41.0"}}, {"uniqueid": "MTK0803:3U088ZLJVL0XOUMX25SP3QT93U60WP", "current_trial": 60, "dateTime": 1512757676355, "trialdata": {"rt": -1000, "stimulus": "/static/audio/wordpool/SCALLOP.wav", "key_press": -1, "type": "PRES_AUD", "word": "scallop", "wordID": 1241, "conditions": [18, 1200, "a", 18000], "trial": 1, "serialpos": 5, "trial_type": "single-audio", "trial_index": 60, "time_elapsed": 597668, "internal_node_id": "0.0-42.0"}}, {"uniqueid": "MTK0803:3U088ZLJVL0XOUMX25SP3QT93U60WP", "current_trial": 61, "dateTime": 1512757678359, "trialdata": {"rt": -1000, "stimulus": "/static/audio/wordpool/WORKER.wav", "key_press": -1, "type": "PRES_AUD", "word": "worker", "wordID": 1620, "conditions": [18, 1200, "a", 18000], "trial": 1, "serialpos": 6, "trial_type": "single-audio", "trial_index": 61, "time_elapsed": 599673, "internal_node_id": "0.0-43.0"}}, {"uniqueid": "MTK0803:3U088ZLJVL0XOUMX25SP3QT93U60WP", "current_trial": 62, "dateTime": 1512757680718, "trialdata": {"rt": -1000, "stimulus": "/static/audio/wordpool/FOOTBALL.wav", "key_press": -1, "type": "PRES_AUD", "word": "football", "wordID": 590, "conditions": [18, 1200, "a", 18000], "trial": 1, "serialpos": 7, "trial_type": "single-audio", "trial_index": 62, "time_elapsed": 602032, "internal_node_id": "0.0-44.0"}}, {"uniqueid": "MTK0803:3U088ZLJVL0XOUMX25SP3QT93U60WP", "current_trial": 63, "dateTime": 1512757683073, "trialdata": {"rt": -1000, "stimulus": "/static/audio/wordpool/FOX.wav", "key_press": -1, "type": "PRES_AUD", "word": "fox", "wordID": 597, "conditions": [18, 1200, "a", 18000], "trial": 1, "serialpos": 8, "trial_type": "single-audio", "trial_index": 63, "time_elapsed": 604387, "internal_node_id": "0.0-45.0"}}, {"uniqueid": "MTK0803:3U088ZLJVL0XOUMX25SP3QT93U60WP", "current_trial": 64, "dateTime": 1512757685120, "trialdata": {"rt": -1000, "stimulus": "/static/audio/wordpool/GRAVE.wav", "key_press": -1, "type": "PRES_AUD", "word": "grave", "wordID": 657, "conditions": [18, 1200, "a", 18000], "trial": 1, "serialpos": 9, "trial_type": "single-audio", "trial_index": 64, "time_elapsed": 606434, "internal_node_id": "0.0-46.0"}}, {"uniqueid": "MTK0803:3U088ZLJVL0XOUMX25SP3QT93U60WP", "current_trial": 65, "dateTime": 1512757687285, "trialdata": {"rt": -1000, "stimulus": "/static/audio/wordpool/BUBBLE.wav", "key_press": -1, "type": "PRES_AUD", "word": "bubble", "wordID": 182, "conditions": [18, 1200, "a", 18000], "trial": 1, "serialpos": 10, "trial_type": "single-audio", "trial_index": 65, "time_elapsed": 608598, "internal_node_id": "0.0-47.0"}}, {"uniqueid": "MTK0803:3U088ZLJVL0XOUMX25SP3QT93U60WP", "current_trial": 66, "dateTime": 1512757689581, "trialdata": {"rt": -1000, "stimulus": "/static/audio/wordpool/VELVET.wav", "key_press": -1, "type": "PRES_AUD", "word": "velvet", "wordID": 1554, "conditions": [18, 1200, "a", 18000], "trial": 1, "serialpos": 11, "trial_type": "single-audio", "trial_index": 66, "time_elapsed": 610894, "internal_node_id": "0.0-48.0"}}, {"uniqueid": "MTK0803:3U088ZLJVL0XOUMX25SP3QT93U60WP", "current_trial": 67, "dateTime": 1512757691706, "trialdata": {"rt": -1000, "stimulus": "/static/audio/wordpool/TURNIP.wav", "key_press": -1, "type": "PRES_AUD", "word": "turnip", "wordID": 1520, "conditions": [18, 1200, "a", 18000], "trial": 1, "serialpos": 12, "trial_type": "single-audio", "trial_index": 67, "time_elapsed": 613019, "internal_node_id": "0.0-49.0"}}, {"uniqueid": "MTK0803:3U088ZLJVL0XOUMX25SP3QT93U60WP", "current_trial": 68, "dateTime": 1512757694003, "trialdata": {"rt": -1000, "stimulus": "/static/audio/wordpool/LIVER.wav", "key_press": -1, "type": "PRES_AUD", "word": "liver", "wordID": 832, "conditions": [18, 1200, "a", 18000], "trial": 1, "serialpos": 13, "trial_type": "single-audio", "trial_index": 68, "time_elapsed": 615317, "internal_node_id": "0.0-50.0"}}, {"uniqueid": "MTK0803:3U088ZLJVL0XOUMX25SP3QT93U60WP", "current_trial": 69, "dateTime": 1512757696019, "trialdata": {"rt": -1000, "stimulus": "/static/audio/wordpool/YACHT.wav", "key_press": -1, "type": "PRES_AUD", "word": "yacht", "wordID": 1628, "conditions": [18, 1200, "a", 18000], "trial": 1, "serialpos": 14, "trial_type": "single-audio", "trial_index": 69, "time_elapsed": 617333, "internal_node_id": "0.0-51.0"}}, {"uniqueid": "MTK0803:3U088ZLJVL0XOUMX25SP3QT93U60WP", "current_trial": 70, "dateTime": 1512757698156, "trialdata": {"rt": -1000, "stimulus": "/static/audio/wordpool/OYSTER.wav", "key_press": -1, "type": "PRES_AUD", "word": "oyster", "wordID": 994, "conditions": [18, 1200, "a", 18000], "trial": 1, "serialpos": 15, "trial_type": "single-audio", "trial_index": 70, "time_elapsed": 619470, "internal_node_id": "0.0-52.0"}}, {"uniqueid": "MTK0803:3U088ZLJVL0XOUMX25SP3QT93U60WP", "current_trial": 71, "dateTime": 1512757700470, "trialdata": {"rt": -1000, "stimulus": "/static/audio/wordpool/WASP.wav", "key_press": -1, "type": "PRES_AUD", "word": "wasp", "wordID": 1592, "conditions": [18, 1200, "a", 18000], "trial": 1, "serialpos": 16, "trial_type": "single-audio", "trial_index": 71, "time_elapsed": 621784, "internal_node_id": "0.0-53.0"}}, {"uniqueid": "MTK0803:3U088ZLJVL0XOUMX25SP3QT93U60WP", "current_trial": 72, "dateTime": 1512757702820, "trialdata": {"rt": -1000, "stimulus": "/static/audio/wordpool/CATCHER.wav", "key_press": -1, "type": "PRES_AUD", "word": "catcher", "wordID": 257, "conditions": [18, 1200, "a", 18000], "trial": 1, "serialpos": 17, "trial_type": "single-audio", "trial_index": 72, "time_elapsed": 624134, "internal_node_id": "0.0-54.0"}}, {"uniqueid": "MTK0803:3U088ZLJVL0XOUMX25SP3QT93U60WP", "current_trial": 73, "dateTime": 1512757704038, "trialdata": {"rt": -1, "stimulus": "", "key_press": -1, "type": "PRE_RECALL_DELAY", "trial_type": "single-stim", "trial_index": 73, "time_elapsed": 625352, "internal_node_id": "0.0-55.0-0.0"}}, {"uniqueid": "MTK0803:3U088ZLJVL0XOUMX25SP3QT93U60WP", "current_trial": 74, "dateTime": 1512757704540, "trialdata": {"rt": -1000, "stimulus": "/static/audio/400Hz.wav", "key_press": -1, "type": "PRE_RECALL_ALERT", "trial_type": "single-audio", "trial_index": 74, "time_elapsed": 625854, "internal_node_id": "0.0-56.0"}}, {"uniqueid": "MTK0803:3U088ZLJVL0XOUMX25SP3QT93U60WP", "current_trial": 75, "dateTime": 1512757764850, "trialdata": {"rt": [2867, 5139, 11562], "recwords": ["box", "three", "double"], "type": "FREE_RECALL", "conditions": [18, 1200, "a", 18000], "trial": 1, "trial_type": "free-recall", "trial_index": 75, "time_elapsed": 686153, "internal_node_id": "0.0-57.0-0.0"}}, {"uniqueid": "MTK0803:3U088ZLJVL0XOUMX25SP3QT93U60WP", "current_trial": 76, "dateTime": 1512757802290, "trialdata": {"rt": 35400, "key_press": 32, "type": "INSTRUCTIONS", "trial_type": "text", "trial_index": 76, "time_elapsed": 723589, "internal_node_id": "0.0-58.0"}}, {"uniqueid": "MTK0803:3U088ZLJVL0XOUMX25SP3QT93U60WP", "current_trial": 77, "dateTime": 1512757827468, "trialdata": {"rt": [8098, 10882, 13858, 20193], "responses": ["14", "9", "6", "14"], "num1": [5, 4, 2, 1, 7], "num2": [7, 4, 3, 4, 6], "num3": [2, 1, 1, 9, 4], "type": "DISTRACTOR", "conditions": [12, 1600, "a", 24000], "trial": 2, "trial_type": "math-distractor", "trial_index": 77, "time_elapsed": 748781, "internal_node_id": "0.0-59.0"}}, {"uniqueid": "MTK0803:3U088ZLJVL0XOUMX25SP3QT93U60WP", "current_trial": 78, "dateTime": 1512757830582, "trialdata": {"rt": -1, "stimulus": "<p id=\"stim\">10</p>", "key_press": -1, "trial_type": "single-stim", "trial_index": 78, "time_elapsed": 751895, "internal_node_id": "0.0-60.0-0.0"}}, {"uniqueid": "MTK0803:3U088ZLJVL0XOUMX25SP3QT93U60WP", "current_trial": 79, "dateTime": 1512757831682, "trialdata": {"rt": -1, "stimulus": "<p id=\"stim\">9</p>", "key_press": -1, "trial_type": "single-stim", "trial_index": 79, "time_elapsed": 752995, "internal_node_id": "0.0-60.0-1.0"}}, {"uniqueid": "MTK0803:3U088ZLJVL0XOUMX25SP3QT93U60WP", "current_trial": 80, "dateTime": 1512757832685, "trialdata": {"rt": -1, "stimulus": "<p id=\"stim\">8</p>", "key_press": -1, "trial_type": "single-stim", "trial_index": 80, "time_elapsed": 753998, "internal_node_id": "0.0-60.0-2.0"}}, {"uniqueid": "MTK0803:3U088ZLJVL0XOUMX25SP3QT93U60WP", "current_trial": 81, "dateTime": 1512757833691, "trialdata": {"rt": -1, "stimulus": "<p id=\"stim\">7</p>", "key_press": -1, "trial_type": "single-stim", "trial_index": 81, "time_elapsed": 755005, "internal_node_id": "0.0-60.0-3.0"}}, {"uniqueid": "MTK0803:3U088ZLJVL0XOUMX25SP3QT93U60WP", "current_trial": 82, "dateTime": 1512757834713, "trialdata": {"rt": -1, "stimulus": "<p id=\"stim\">6</p>", "key_press": -1, "trial_type": "single-stim", "trial_index": 82, "time_elapsed": 756027, "internal_node_id": "0.0-60.0-4.0"}}, {"uniqueid": "MTK0803:3U088ZLJVL0XOUMX25SP3QT93U60WP", "current_trial": 83, "dateTime": 1512757835716, "trialdata": {"rt": -1, "stimulus": "<p id=\"stim\">5</p>", "key_press": -1, "trial_type": "single-stim", "trial_index": 83, "time_elapsed": 757030, "internal_node_id": "0.0-60.0-5.0"}}, {"uniqueid": "MTK0803:3U088ZLJVL0XOUMX25SP3QT93U60WP", "current_trial": 84, "dateTime": 1512757836718, "trialdata": {"rt": -1, "stimulus": "<p id=\"stim\">4</p>", "key_press": -1, "trial_type": "single-stim", "trial_index": 84, "time_elapsed": 758032, "internal_node_id": "0.0-60.0-6.0"}}, {"uniqueid": "MTK0803:3U088ZLJVL0XOUMX25SP3QT93U60WP", "current_trial": 85, "dateTime": 1512757837727, "trialdata": {"rt": -1, "stimulus": "<p id=\"stim\">3</p>", "key_press": -1, "trial_type": "single-stim", "trial_index": 85, "time_elapsed": 759040, "internal_node_id": "0.0-60.0-7.0"}}, {"uniqueid": "MTK0803:3U088ZLJVL0XOUMX25SP3QT93U60WP", "current_trial": 86, "dateTime": 1512757838749, "trialdata": {"rt": -1, "stimulus": "<p id=\"stim\">2</p>", "key_press": -1, "trial_type": "single-stim", "trial_index": 86, "time_elapsed": 760062, "internal_node_id": "0.0-60.0-8.0"}}, {"uniqueid": "MTK0803:3U088ZLJVL0XOUMX25SP3QT93U60WP", "current_trial": 87, "dateTime": 1512757840003, "trialdata": {"rt": -1, "stimulus": "<p id=\"stim\">1</p>", "key_press": -1, "trial_type": "single-stim", "trial_index": 87, "time_elapsed": 761316, "internal_node_id": "0.0-60.0-9.0"}}, {"uniqueid": "MTK0803:3U088ZLJVL0XOUMX25SP3QT93U60WP", "current_trial": 88, "dateTime": 1512757841517, "trialdata": {"rt": -1, "stimulus": "<p id=\"stim\">+</p>", "key_press": -1, "type": "FIXATION", "trial_type": "single-stim", "trial_index": 88, "time_elapsed": 762830, "internal_node_id": "0.0-61.0-0.0"}}, {"uniqueid": "MTK0803:3U088ZLJVL0XOUMX25SP3QT93U60WP", "current_trial": 89, "dateTime": 1512757844027, "trialdata": {"rt": -1000, "stimulus": "/static/audio/wordpool/BIKE.wav", "key_press": -1, "type": "PRES_AUD", "word": "bike", "wordID": 124, "conditions": [12, 1600, "a", 24000], "trial": 2, "serialpos": 0, "trial_type": "single-audio", "trial_index": 89, "time_elapsed": 765341, "internal_node_id": "0.0-62.0"}}, {"uniqueid": "MTK0803:3U088ZLJVL0XOUMX25SP3QT93U60WP", "current_trial": 90, "dateTime": 1512757846776, "trialdata": {"rt": -1000, "stimulus": "/static/audio/wordpool/DRUG.wav", "key_press": -1, "type": "PRES_AUD", "word": "drug", "wordID": 500, "conditions": [12, 1600, "a", 24000], "trial": 2, "serialpos": 1, "trial_type": "single-audio", "trial_index": 90, "time_elapsed": 768089, "internal_node_id": "0.0-63.0"}}, {"uniqueid": "MTK0803:3U088ZLJVL0XOUMX25SP3QT93U60WP", "current_trial": 91, "dateTime": 1512757849577, "trialdata": {"rt": -1000, "stimulus": "/static/audio/wordpool/SALAD.wav", "key_press": -1, "type": "PRES_AUD", "word": "salad", "wordID": 1223, "conditions": [12, 1600, "a", 24000], "trial": 2, "serialpos": 2, "trial_type": "single-audio", "trial_index": 91, "time_elapsed": 770891, "internal_node_id": "0.0-64.0"}}, {"uniqueid": "MTK0803:3U088ZLJVL0XOUMX25SP3QT93U60WP", "current_trial": 92, "dateTime": 1512757852163, "trialdata": {"rt": -1000, "stimulus": "/static/audio/wordpool/REPORT.wav", "key_press": -1, "type": "PRES_AUD", "word": "report", "wordID": 1183, "conditions": [12, 1600, "a", 24000], "trial": 2, "serialpos": 3, "trial_type": "single-audio", "trial_index": 92, "time_elapsed": 773477, "internal_node_id": "0.0-65.0"}}, {"uniqueid": "MTK0803:3U088ZLJVL0XOUMX25SP3QT93U60WP", "current_trial": 93, "dateTime": 1512757854976, "trialdata": {"rt": -1000, "stimulus": "/static/audio/wordpool/SURVEY.wav", "key_press": -1, "type": "PRES_AUD", "word": "survey", "wordID": 1413, "conditions": [12, 1600, "a", 24000], "trial": 2, "serialpos": 4, "trial_type": "single-audio", "trial_index": 93, "time_elapsed": 776290, "internal_node_id": "0.0-66.0"}}, {"uniqueid": "MTK0803:3U088ZLJVL0XOUMX25SP3QT93U60WP", "current_trial": 94, "dateTime": 1512757857707, "trialdata": {"rt": -1000, "stimulus": "/static/audio/wordpool/POWDER.wav", "key_press": -1, "type": "PRES_AUD", "word": "powder", "wordID": 1116, "conditions": [12, 1600, "a", 24000], "trial": 2, "serialpos": 5, "trial_type": "single-audio", "trial_index": 94, "time_elapsed": 779021, "internal_node_id": "0.0-67.0"}}, {"uniqueid": "MTK0803:3U088ZLJVL0XOUMX25SP3QT93U60WP", "current_trial": 95, "dateTime": 1512757860462, "trialdata": {"rt": -1000, "stimulus": "/static/audio/wordpool/CREVICE.wav", "key_press": -1, "type": "PRES_AUD", "word": "crevice", "wordID": 404, "conditions": [12, 1600, "a", 24000], "trial": 2, "serialpos": 6, "trial_type": "single-audio", "trial_index": 95, "time_elapsed": 781776, "internal_node_id": "0.0-68.0"}}, {"uniqueid": "MTK0803:3U088ZLJVL0XOUMX25SP3QT93U60WP", "current_trial": 96, "dateTime": 1512757862997, "trialdata": {"rt": -1000, "stimulus": "/static/audio/wordpool/CHIPMUNK.wav", "key_press": -1, "type": "PRES_AUD", "word": "chipmunk", "wordID": 303, "conditions": [12, 1600, "a", 24000], "trial": 2, "serialpos": 7, "trial_type": "single-audio", "trial_index": 96, "time_elapsed": 784311, "internal_node_id": "0.0-69.0"}}, {"uniqueid": "MTK0803:3U088ZLJVL0XOUMX25SP3QT93U60WP", "current_trial": 97, "dateTime": 1512757865740, "trialdata": {"rt": -1000, "stimulus": "/static/audio/wordpool/RADISH.wav", "key_press": -1, "type": "PRES_AUD", "word": "radish", "wordID": 1157, "conditions": [12, 1600, "a", 24000], "trial": 2, "serialpos": 8, "trial_type": "single-audio", "trial_index": 97, "time_elapsed": 787054, "internal_node_id": "0.0-70.0"}}, {"uniqueid": "MTK0803:3U088ZLJVL0XOUMX25SP3QT93U60WP", "current_trial": 98, "dateTime": 1512757868651, "trialdata": {"rt": -1000, "stimulus": "/static/audio/wordpool/BLADE.wav", "key_press": -1, "type": "PRES_AUD", "word": "blade", "wordID": 133, "conditions": [12, 1600, "a", 24000], "trial": 2, "serialpos": 9, "trial_type": "single-audio", "trial_index": 98, "time_elapsed": 789965, "internal_node_id": "0.0-71.0"}}, {"uniqueid": "MTK0803:3U088ZLJVL0XOUMX25SP3QT93U60WP", "current_trial": 99, "dateTime": 1512757872007, "trialdata": {"rt": -1000, "stimulus": "/static/audio/wordpool/FUNGUS.wav", "key_press": -1, "type": "PRES_AUD", "word": "fungus", "wordID": 613, "conditions": [12, 1600, "a", 24000], "trial": 2, "serialpos": 10, "trial_type": "single-audio", "trial_index": 99, "time_elapsed": 793320, "internal_node_id": "0.0-72.0"}}, {"uniqueid": "MTK0803:3U088ZLJVL0XOUMX25SP3QT93U60WP", "current_trial": 100, "dateTime": 1512757874685, "trialdata": {"rt": -1000, "stimulus": "/static/audio/wordpool/DANDRUFF.wav", "key_press": -1, "type": "PRES_AUD", "word": "dandruff", "wordID": 438, "conditions": [12, 1600, "a", 24000], "trial": 2, "serialpos": 11, "trial_type": "single-audio", "trial_index": 100, "time_elapsed": 795999, "internal_node_id": "0.0-73.0"}}, {"uniqueid": "MTK0803:3U088ZLJVL0XOUMX25SP3QT93U60WP", "current_trial": 101, "dateTime": 1512757876024, "trialdata": {"rt": -1, "stimulus": "", "key_press": -1, "type": "PRE_RECALL_DELAY", "trial_type": "single-stim", "trial_index": 101, "time_elapsed": 797338, "internal_node_id": "0.0-74.0-0.0"}}, {"uniqueid": "MTK0803:3U088ZLJVL0XOUMX25SP3QT93U60WP", "current_trial": 102, "dateTime": 1512757876527, "trialdata": {"rt": -1000, "stimulus": "/static/audio/400Hz.wav", "key_press": -1, "type": "PRE_RECALL_ALERT", "trial_type": "single-audio", "trial_index": 102, "time_elapsed": 797840, "internal_node_id": "0.0-75.0"}}, {"uniqueid": "MTK0803:3U088ZLJVL0XOUMX25SP3QT93U60WP", "current_trial": 103, "dateTime": 1512757936540, "trialdata": {"rt": [4712, 7520, 9623, 12591], "recwords": ["bike", "drugs", "salad", "survey"], "type": "FREE_RECALL", "conditions": [12, 1600, "a", 24000], "trial": 2, "trial_type": "free-recall", "trial_index": 103, "time_elapsed": 857848, "internal_node_id": "0.0-76.0-0.0"}}, {"uniqueid": "MTK0803:3U088ZLJVL0XOUMX25SP3QT93U60WP", "current_trial": 104, "dateTime": 1512757998621, "trialdata": {"rt": 60078, "key_press": 32, "type": "INSTRUCTIONS", "trial_type": "text", "trial_index": 104, "time_elapsed": 919934, "internal_node_id": "0.0-77.0"}}, {"uniqueid": "MTK0803:3U088ZLJVL0XOUMX25SP3QT93U60WP", "current_trial": 105, "dateTime": 1512758024599, "trialdata": {"rt": [5330, 8691, 14995, 19659, 23539], "responses": ["16", "15", "21", "32", "20"], "num1": [8, 5, 8, 7, 8, 2], "num2": [3, 7, 5, 6, 6, 1], "num3": [5, 3, 8, 9, 6, 8], "type": "DISTRACTOR", "conditions": [12, 800, "a", 24000], "trial": 3, "trial_type": "math-distractor", "trial_index": 105, "time_elapsed": 945912, "internal_node_id": "0.0-78.0"}}, {"uniqueid": "MTK0803:3U088ZLJVL0XOUMX25SP3QT93U60WP", "current_trial": 106, "dateTime": 1512758027615, "trialdata": {"rt": -1, "stimulus": "<p id=\"stim\">10</p>", "key_press": -1, "trial_type": "single-stim", "trial_index": 106, "time_elapsed": 948928, "internal_node_id": "0.0-79.0-0.0"}}, {"uniqueid": "MTK0803:3U088ZLJVL0XOUMX25SP3QT93U60WP", "current_trial": 107, "dateTime": 1512758028720, "trialdata": {"rt": -1, "stimulus": "<p id=\"stim\">9</p>", "key_press": -1, "trial_type": "single-stim", "trial_index": 107, "time_elapsed": 950033, "internal_node_id": "0.0-79.0-1.0"}}, {"uniqueid": "MTK0803:3U088ZLJVL0XOUMX25SP3QT93U60WP", "current_trial": 108, "dateTime": 1512758029739, "trialdata": {"rt": -1, "stimulus": "<p id=\"stim\">8</p>", "key_press": -1, "trial_type": "single-stim", "trial_index": 108, "time_elapsed": 951052, "internal_node_id": "0.0-79.0-2.0"}}, {"uniqueid": "MTK0803:3U088ZLJVL0XOUMX25SP3QT93U60WP", "current_trial": 109, "dateTime": 1512758030766, "trialdata": {"rt": -1, "stimulus": "<p id=\"stim\">7</p>", "key_press": -1, "trial_type": "single-stim", "trial_index": 109, "time_elapsed": 952080, "internal_node_id": "0.0-79.0-3.0"}}, {"uniqueid": "MTK0803:3U088ZLJVL0XOUMX25SP3QT93U60WP", "current_trial": 110, "dateTime": 1512758031768, "trialdata": {"rt": -1, "stimulus": "<p id=\"stim\">6</p>", "key_press": -1, "trial_type": "single-stim", "trial_index": 110, "time_elapsed": 953082, "internal_node_id": "0.0-79.0-4.0"}}, {"uniqueid": "MTK0803:3U088ZLJVL0XOUMX25SP3QT93U60WP", "current_trial": 111, "dateTime": 1512758032885, "trialdata": {"rt": -1, "stimulus": "<p id=\"stim\">5</p>", "key_press": -1, "trial_type": "single-stim", "trial_index": 111, "time_elapsed": 954198, "internal_node_id": "0.0-79.0-5.0"}}, {"uniqueid": "MTK0803:3U088ZLJVL0XOUMX25SP3QT93U60WP", "current_trial": 112, "dateTime": 1512758033886, "trialdata": {"rt": -1, "stimulus": "<p id=\"stim\">4</p>", "key_press": -1, "trial_type": "single-stim", "trial_index": 112, "time_elapsed": 955200, "internal_node_id": "0.0-79.0-6.0"}}, {"uniqueid": "MTK0803:3U088ZLJVL0XOUMX25SP3QT93U60WP", "current_trial": 113, "dateTime": 1512758034892, "trialdata": {"rt": -1, "stimulus": "<p id=\"stim\">3</p>", "key_press": -1, "trial_type": "single-stim", "trial_index": 113, "time_elapsed": 956206, "internal_node_id": "0.0-79.0-7.0"}}, {"uniqueid": "MTK0803:3U088ZLJVL0XOUMX25SP3QT93U60WP", "current_trial": 114, "dateTime": 1512758035895, "trialdata": {"rt": -1, "stimulus": "<p id=\"stim\">2</p>", "key_press": -1, "trial_type": "single-stim", "trial_index": 114, "time_elapsed": 957208, "internal_node_id": "0.0-79.0-8.0"}}, {"uniqueid": "MTK0803:3U088ZLJVL0XOUMX25SP3QT93U60WP", "current_trial": 115, "dateTime": 1512758036920, "trialdata": {"rt": -1, "stimulus": "<p id=\"stim\">1</p>", "key_press": -1, "trial_type": "single-stim", "trial_index": 115, "time_elapsed": 958233, "internal_node_id": "0.0-79.0-9.0"}}, {"uniqueid": "MTK0803:3U088ZLJVL0XOUMX25SP3QT93U60WP", "current_trial": 116, "dateTime": 1512758038422, "trialdata": {"rt": -1, "stimulus": "<p id=\"stim\">+</p>", "key_press": -1, "type": "FIXATION", "trial_type": "single-stim", "trial_index": 116, "time_elapsed": 959735, "internal_node_id": "0.0-80.0-0.0"}}, {"uniqueid": "MTK0803:3U088ZLJVL0XOUMX25SP3QT93U60WP", "current_trial": 117, "dateTime": 1512758040418, "trialdata": {"rt": -1000, "stimulus": "/static/audio/wordpool/HANDBAG.wav", "key_press": -1, "type": "PRES_AUD", "word": "handbag", "wordID": 683, "conditions": [12, 800, "a", 24000], "trial": 3, "serialpos": 0, "trial_type": "single-audio", "trial_index": 117, "time_elapsed": 961732, "internal_node_id": "0.0-81.0"}}, {"uniqueid": "MTK0803:3U088ZLJVL0XOUMX25SP3QT93U60WP", "current_trial": 118, "dateTime": 1512758042129, "trialdata": {"rt": -1000, "stimulus": "/static/audio/wordpool/COFFEE.wav", "key_press": -1, "type": "PRES_AUD", "word": "coffee", "wordID": 340, "conditions": [12, 800, "a", 24000], "trial": 3, "serialpos": 1, "trial_type": "single-audio", "trial_index": 118, "time_elapsed": 963443, "internal_node_id": "0.0-82.0"}}, {"uniqueid": "MTK0803:3U088ZLJVL0XOUMX25SP3QT93U60WP", "current_trial": 119, "dateTime": 1512758044108, "trialdata": {"rt": -1000, "stimulus": "/static/audio/wordpool/TAXI.wav", "key_press": -1, "type": "PRES_AUD", "word": "taxi", "wordID": 1437, "conditions": [12, 800, "a", 24000], "trial": 3, "serialpos": 2, "trial_type": "single-audio", "trial_index": 119, "time_elapsed": 965422, "internal_node_id": "0.0-83.0"}}, {"uniqueid": "MTK0803:3U088ZLJVL0XOUMX25SP3QT93U60WP", "current_trial": 120, "dateTime": 1512758046071, "trialdata": {"rt": -1000, "stimulus": "/static/audio/wordpool/SHIRT.wav", "key_press": -1, "type": "PRES_AUD", "word": "shirt", "wordID": 1286, "conditions": [12, 800, "a", 24000], "trial": 3, "serialpos": 3, "trial_type": "single-audio", "trial_index": 120, "time_elapsed": 967384, "internal_node_id": "0.0-84.0"}}, {"uniqueid": "MTK0803:3U088ZLJVL0XOUMX25SP3QT93U60WP", "current_trial": 121, "dateTime": 1512758047833, "trialdata": {"rt": -1000, "stimulus": "/static/audio/wordpool/POET.wav", "key_press": -1, "type": "PRES_AUD", "word": "poet", "wordID": 1094, "conditions": [12, 800, "a", 24000], "trial": 3, "serialpos": 4, "trial_type": "single-audio", "trial_index": 121, "time_elapsed": 969146, "internal_node_id": "0.0-85.0"}}, {"uniqueid": "MTK0803:3U088ZLJVL0XOUMX25SP3QT93U60WP", "current_trial": 122, "dateTime": 1512758049492, "trialdata": {"rt": -1000, "stimulus": "/static/audio/wordpool/LIGHTNING.wav", "key_press": -1, "type": "PRES_AUD", "word": "lightning", "wordID": 819, "conditions": [12, 800, "a", 24000], "trial": 3, "serialpos": 5, "trial_type": "single-audio", "trial_index": 122, "time_elapsed": 970806, "internal_node_id": "0.0-86.0"}}, {"uniqueid": "MTK0803:3U088ZLJVL0XOUMX25SP3QT93U60WP", "current_trial": 123, "dateTime": 1512758051382, "trialdata": {"rt": -1000, "stimulus": "/static/audio/wordpool/PREACHER.wav", "key_press": -1, "type": "PRES_AUD", "word": "preacher", "wordID": 1118, "conditions": [12, 800, "a", 24000], "trial": 3, "serialpos": 6, "trial_type": "single-audio", "trial_index": 123, "time_elapsed": 972696, "internal_node_id": "0.0-87.0"}}, {"uniqueid": "MTK0803:3U088ZLJVL0XOUMX25SP3QT93U60WP", "current_trial": 124, "dateTime": 1512758053305, "trialdata": {"rt": -1000, "stimulus": "/static/audio/wordpool/VIKING.wav", "key_press": -1, "type": "PRES_AUD", "word": "viking", "wordID": 1564, "conditions": [12, 800, "a", 24000], "trial": 3, "serialpos": 7, "trial_type": "single-audio", "trial_index": 124, "time_elapsed": 974619, "internal_node_id": "0.0-88.0"}}, {"uniqueid": "MTK0803:3U088ZLJVL0XOUMX25SP3QT93U60WP", "current_trial": 125, "dateTime": 1512758055058, "trialdata": {"rt": -1000, "stimulus": "/static/audio/wordpool/AUTHOR.wav", "key_press": -1, "type": "PRES_AUD", "word": "author", "wordID": 60, "conditions": [12, 800, "a", 24000], "trial": 3, "serialpos": 8, "trial_type": "single-audio", "trial_index": 125, "time_elapsed": 976372, "internal_node_id": "0.0-89.0"}}, {"uniqueid": "MTK0803:3U088ZLJVL0XOUMX25SP3QT93U60WP", "current_trial": 126, "dateTime": 1512758057058, "trialdata": {"rt": -1000, "stimulus": "/static/audio/wordpool/HEADBAND.wav", "key_press": -1, "type": "PRES_AUD", "word": "headband", "wordID": 695, "conditions": [12, 800, "a", 24000], "trial": 3, "serialpos": 9, "trial_type": "single-audio", "trial_index": 126, "time_elapsed": 978372, "internal_node_id": "0.0-90.0"}}, {"uniqueid": "MTK0803:3U088ZLJVL0XOUMX25SP3QT93U60WP", "current_trial": 127, "dateTime": 1512758058936, "trialdata": {"rt": -1000, "stimulus": "/static/audio/wordpool/PORTRAIT.wav", "key_press": -1, "type": "PRES_AUD", "word": "portrait", "wordID": 1110, "conditions": [12, 800, "a", 24000], "trial": 3, "serialpos": 10, "trial_type": "single-audio", "trial_index": 127, "time_elapsed": 980250, "internal_node_id": "0.0-91.0"}}, {"uniqueid": "MTK0803:3U088ZLJVL0XOUMX25SP3QT93U60WP", "current_trial": 128, "dateTime": 1512758060598, "trialdata": {"rt": -1000, "stimulus": "/static/audio/wordpool/PICTURE.wav", "key_press": -1, "type": "PRES_AUD", "word": "picture", "wordID": 1060, "conditions": [12, 800, "a", 24000], "trial": 3, "serialpos": 11, "trial_type": "single-audio", "trial_index": 128, "time_elapsed": 981912, "internal_node_id": "0.0-92.0"}}, {"uniqueid": "MTK0803:3U088ZLJVL0XOUMX25SP3QT93U60WP", "current_trial": 129, "dateTime": 1512758061843, "trialdata": {"rt": -1, "stimulus": "", "key_press": -1, "type": "PRE_RECALL_DELAY", "trial_type": "single-stim", "trial_index": 129, "time_elapsed": 983156, "internal_node_id": "0.0-93.0-0.0"}}, {"uniqueid": "MTK0803:3U088ZLJVL0XOUMX25SP3QT93U60WP", "current_trial": 130, "dateTime": 1512758062344, "trialdata": {"rt": -1000, "stimulus": "/static/audio/400Hz.wav", "key_press": -1, "type": "PRE_RECALL_ALERT", "trial_type": "single-audio", "trial_index": 130, "time_elapsed": 983657, "internal_node_id": "0.0-94.0"}}, {"uniqueid": "MTK0803:3U088ZLJVL0XOUMX25SP3QT93U60WP", "current_trial": 131, "dateTime": 1512758122356, "trialdata": {"rt": [6507, 9408, 11283], "recwords": ["picture", "story", "life"], "type": "FREE_RECALL", "conditions": [12, 800, "a", 24000], "trial": 3, "trial_type": "free-recall", "trial_index": 131, "time_elapsed": 1043661, "internal_node_id": "0.0-95.0-0.0"}}, {"uniqueid": "MTK0803:3U088ZLJVL0XOUMX25SP3QT93U60WP", "current_trial": 132, "dateTime": 1512758124871, "trialdata": {"rt": 511, "key_press": 113, "type": "INSTRUCTIONS", "trial_type": "text", "trial_index": 132, "time_elapsed": 1046184, "internal_node_id": "0.0-96.0"}}, {"uniqueid": "MTK0803:3U088ZLJVL0XOUMX25SP3QT93U60WP", "current_trial": 133, "dateTime": 1512758138880, "trialdata": {"rt": [6765, 10687], "responses": ["15", "25"], "num1": [6, 7, 4], "num2": [7, 9, 4], "num3": [1, 9, 7], "type": "DISTRACTOR", "conditions": [24, 1600, "v", 12000], "trial": 4, "trial_type": "math-distractor", "trial_index": 133, "time_elapsed": 1060193, "internal_node_id": "0.0-97.0"}}, {"uniqueid": "MTK0803:3U088ZLJVL0XOUMX25SP3QT93U60WP", "current_trial": 134, "dateTime": 1512758141884, "trialdata": {"rt": -1, "stimulus": "<p id=\"stim\">10</p>", "key_press": -1, "trial_type": "single-stim", "trial_index": 134, "time_elapsed": 1063197, "internal_node_id": "0.0-98.0-0.0"}}, {"uniqueid": "MTK0803:3U088ZLJVL0XOUMX25SP3QT93U60WP", "current_trial": 135, "dateTime": 1512758142929, "trialdata": {"rt": -1, "stimulus": "<p id=\"stim\">9</p>", "key_press": -1, "trial_type": "single-stim", "trial_index": 135, "time_elapsed": 1064242, "internal_node_id": "0.0-98.0-1.0"}}, {"uniqueid": "MTK0803:3U088ZLJVL0XOUMX25SP3QT93U60WP", "current_trial": 136, "dateTime": 1512758143932, "trialdata": {"rt": -1, "stimulus": "<p id=\"stim\">8</p>", "key_press": -1, "trial_type": "single-stim", "trial_index": 136, "time_elapsed": 1065245, "internal_node_id": "0.0-98.0-2.0"}}, {"uniqueid": "MTK0803:3U088ZLJVL0XOUMX25SP3QT93U60WP", "current_trial": 137, "dateTime": 1512758144993, "trialdata": {"rt": -1, "stimulus": "<p id=\"stim\">7</p>", "key_press": -1, "trial_type": "single-stim", "trial_index": 137, "time_elapsed": 1066306, "internal_node_id": "0.0-98.0-3.0"}}, {"uniqueid": "MTK0803:3U088ZLJVL0XOUMX25SP3QT93U60WP", "current_trial": 138, "dateTime": 1512758145995, "trialdata": {"rt": -1, "stimulus": "<p id=\"stim\">6</p>", "key_press": -1, "trial_type": "single-stim", "trial_index": 138, "time_elapsed": 1067308, "internal_node_id": "0.0-98.0-4.0"}}, {"uniqueid": "MTK0803:3U088ZLJVL0XOUMX25SP3QT93U60WP", "current_trial": 139, "dateTime": 1512758147015, "trialdata": {"rt": -1, "stimulus": "<p id=\"stim\">5</p>", "key_press": -1, "trial_type": "single-stim", "trial_index": 139, "time_elapsed": 1068329, "internal_node_id": "0.0-98.0-5.0"}}, {"uniqueid": "MTK0803:3U088ZLJVL0XOUMX25SP3QT93U60WP", "current_trial": 140, "dateTime": 1512758148017, "trialdata": {"rt": -1, "stimulus": "<p id=\"stim\">4</p>", "key_press": -1, "trial_type": "single-stim", "trial_index": 140, "time_elapsed": 1069331, "internal_node_id": "0.0-98.0-6.0"}}, {"uniqueid": "MTK0803:3U088ZLJVL0XOUMX25SP3QT93U60WP", "current_trial": 141, "dateTime": 1512758149025, "trialdata": {"rt": -1, "stimulus": "<p id=\"stim\">3</p>", "key_press": -1, "trial_type": "single-stim", "trial_index": 141, "time_elapsed": 1070337, "internal_node_id": "0.0-98.0-7.0"}}, {"uniqueid": "MTK0803:3U088ZLJVL0XOUMX25SP3QT93U60WP", "current_trial": 142, "dateTime": 1512758150192, "trialdata": {"rt": -1, "stimulus": "<p id=\"stim\">2</p>", "key_press": -1, "trial_type": "single-stim", "trial_index": 142, "time_elapsed": 1071506, "internal_node_id": "0.0-98.0-8.0"}}, {"uniqueid": "MTK0803:3U088ZLJVL0XOUMX25SP3QT93U60WP", "current_trial": 143, "dateTime": 1512758151311, "trialdata": {"rt": -1, "stimulus": "<p id=\"stim\">1</p>", "key_press": -1, "trial_type": "single-stim", "trial_index": 143, "time_elapsed": 1072625, "internal_node_id": "0.0-98.0-9.0"}}, {"uniqueid": "MTK0803:3U088ZLJVL0XOUMX25SP3QT93U60WP", "current_trial": 144, "dateTime": 1512758152888, "trialdata": {"rt": -1, "stimulus": "<p id=\"stim\">+</p>", "key_press": -1, "type": "FIXATION", "trial_type": "single-stim", "trial_index": 144, "time_elapsed": 1074202, "internal_node_id": "0.0-99.0-0.0"}}, {"uniqueid": "MTK0803:3U088ZLJVL0XOUMX25SP3QT93U60WP", "current_trial": 145, "dateTime": 1512758154619, "trialdata": {"rt": -1, "stimulus": "<p id=\"stim\">SPARROW</p>", "key_press": -1, "type": "PRES_VIS", "word": "sparrow", "wordID": 1346, "conditions": [24, 1600, "v", 12000], "trial": 4, "serialpos": 0, "trial_type": "single-stim", "trial_index": 145, "time_elapsed": 1075932, "internal_node_id": "0.0-100.0"}}, {"uniqueid": "MTK0803:3U088ZLJVL0XOUMX25SP3QT93U60WP", "current_trial": 146, "dateTime": 1512758157565, "trialdata": {"rt": -1, "stimulus": "<p id=\"stim\">FRUIT</p>", "key_press": -1, "type": "PRES_VIS", "word": "fruit", "wordID": 609, "conditions": [24, 1600, "v", 12000], "trial": 4, "serialpos": 1, "trial_type": "single-stim", "trial_index": 146, "time_elapsed": 1078879, "internal_node_id": "0.0-101.0"}}, {"uniqueid": "MTK0803:3U088ZLJVL0XOUMX25SP3QT93U60WP", "current_trial": 147, "dateTime": 1512758160015, "trialdata": {"rt": -1, "stimulus": "<p id=\"stim\">CREATURE</p>", "key_press": -1, "type": "PRES_VIS", "word": "creature", "wordID": 402, "conditions": [24, 1600, "v", 12000], "trial": 4, "serialpos": 2, "trial_type": "single-stim", "trial_index": 147, "time_elapsed": 1081329, "internal_node_id": "0.0-102.0"}}, {"uniqueid": "MTK0803:3U088ZLJVL0XOUMX25SP3QT93U60WP", "current_trial": 148, "dateTime": 1512758162672, "trialdata": {"rt": -1, "stimulus": "<p id=\"stim\">BINDER</p>", "key_press": -1, "type": "PRES_VIS", "word": "binder", "wordID": 126, "conditions": [24, 1600, "v", 12000], "trial": 4, "serialpos": 3, "trial_type": "single-stim", "trial_index": 148, "time_elapsed": 1083986, "internal_node_id": "0.0-103.0"}}, {"uniqueid": "MTK0803:3U088ZLJVL0XOUMX25SP3QT93U60WP", "current_trial": 149, "dateTime": 1512758165954, "trialdata": {"rt": -1, "stimulus": "<p id=\"stim\">WAITRESS</p>", "key_press": -1, "type": "PRES_VIS", "word": "waitress", "wordID": 1580, "conditions": [24, 1600, "v", 12000], "trial": 4, "serialpos": 4, "trial_type": "single-stim", "trial_index": 149, "time_elapsed": 1087267, "internal_node_id": "0.0-104.0"}}, {"uniqueid": "MTK0803:3U088ZLJVL0XOUMX25SP3QT93U60WP", "current_trial": 150, "dateTime": 1512758168984, "trialdata": {"rt": -1, "stimulus": "<p id=\"stim\">WAITER</p>", "key_press": -1, "type": "PRES_VIS", "word": "waiter", "wordID": 1579, "conditions": [24, 1600, "v", 12000], "trial": 4, "serialpos": 5, "trial_type": "single-stim", "trial_index": 150, "time_elapsed": 1090298, "internal_node_id": "0.0-105.0"}}, {"uniqueid": "MTK0803:3U088ZLJVL0XOUMX25SP3QT93U60WP", "current_trial": 151, "dateTime": 1512758171587, "trialdata": {"rt": -1, "stimulus": "<p id=\"stim\">LOVER</p>", "key_press": -1, "type": "PRES_VIS", "word": "lover", "wordID": 845, "conditions": [24, 1600, "v", 12000], "trial": 4, "serialpos": 6, "trial_type": "single-stim", "trial_index": 151, "time_elapsed": 1092901, "internal_node_id": "0.0-106.0"}}, {"uniqueid": "MTK0803:3U088ZLJVL0XOUMX25SP3QT93U60WP", "current_trial": 152, "dateTime": 1512758174038, "trialdata": {"rt": -1, "stimulus": "<p id=\"stim\">LEOPARD</p>", "key_press": -1, "type": "PRES_VIS", "word": "leopard", "wordID": 811, "conditions": [24, 1600, "v", 12000], "trial": 4, "serialpos": 7, "trial_type": "single-stim", "trial_index": 152, "time_elapsed": 1095351, "internal_node_id": "0.0-107.0"}}, {"uniqueid": "MTK0803:3U088ZLJVL0XOUMX25SP3QT93U60WP", "current_trial": 153, "dateTime": 1512758176455, "trialdata": {"rt": -1, "stimulus": "<p id=\"stim\">FRIEND</p>", "key_press": -1, "type": "PRES_VIS", "word": "friend", "wordID": 605, "conditions": [24, 1600, "v", 12000], "trial": 4, "serialpos": 8, "trial_type": "single-stim", "trial_index": 153, "time_elapsed": 1097769, "internal_node_id": "0.0-108.0"}}, {"uniqueid": "MTK0803:3U088ZLJVL0XOUMX25SP3QT93U60WP", "current_trial": 154, "dateTime": 1512758179064, "trialdata": {"rt": -1, "stimulus": "<p id=\"stim\">PERCH</p>", "key_press": -1, "type": "PRES_VIS", "word": "perch", "wordID": 1047, "conditions": [24, 1600, "v", 12000], "trial": 4, "serialpos": 9, "trial_type": "single-stim", "trial_index": 154, "time_elapsed": 1100378, "internal_node_id": "0.0-109.0"}}, {"uniqueid": "MTK0803:3U088ZLJVL0XOUMX25SP3QT93U60WP", "current_trial": 155, "dateTime": 1512758181861, "trialdata": {"rt": -1, "stimulus": "<p id=\"stim\">SERVANT</p>", "key_press": -1, "type": "PRES_VIS", "word": "servant", "wordID": 1270, "conditions": [24, 1600, "v", 12000], "trial": 4, "serialpos": 10, "trial_type": "single-stim", "trial_index": 155, "time_elapsed": 1103174, "internal_node_id": "0.0-110.0"}}, {"uniqueid": "MTK0803:3U088ZLJVL0XOUMX25SP3QT93U60WP", "current_trial": 156, "dateTime": 1512758184652, "trialdata": {"rt": -1, "stimulus": "<p id=\"stim\">DRAGON</p>", "key_press": -1, "type": "PRES_VIS", "word": "dragon", "wordID": 491, "conditions": [24, 1600, "v", 12000], "trial": 4, "serialpos": 11, "trial_type": "single-stim", "trial_index": 156, "time_elapsed": 1105966, "internal_node_id": "0.0-111.0"}}, {"uniqueid": "MTK0803:3U088ZLJVL0XOUMX25SP3QT93U60WP", "current_trial": 157, "dateTime": 1512758187193, "trialdata": {"rt": -1, "stimulus": "<p id=\"stim\">OZONE</p>", "key_press": -1, "type": "PRES_VIS", "word": "ozone", "wordID": 995, "conditions": [24, 1600, "v", 12000], "trial": 4, "serialpos": 12, "trial_type": "single-stim", "trial_index": 157, "time_elapsed": 1108507, "internal_node_id": "0.0-112.0"}}, {"uniqueid": "MTK0803:3U088ZLJVL0XOUMX25SP3QT93U60WP", "current_trial": 158, "dateTime": 1512758189722, "trialdata": {"rt": -1, "stimulus": "<p id=\"stim\">FLUTE</p>", "key_press": -1, "type": "PRES_VIS", "word": "flute", "wordID": 584, "conditions": [24, 1600, "v", 12000], "trial": 4, "serialpos": 13, "trial_type": "single-stim", "trial_index": 158, "time_elapsed": 1111035, "internal_node_id": "0.0-113.0"}}, {"uniqueid": "MTK0803:3U088ZLJVL0XOUMX25SP3QT93U60WP", "current_trial": 159, "dateTime": 1512758192638, "trialdata": {"rt": -1, "stimulus": "<p id=\"stim\">HARP</p>", "key_press": -1, "type": "PRES_VIS", "word": "harp", "wordID": 688, "conditions": [24, 1600, "v", 12000], "trial": 4, "serialpos": 14, "trial_type": "single-stim", "trial_index": 159, "time_elapsed": 1113952, "internal_node_id": "0.0-114.0"}}, {"uniqueid": "MTK0803:3U088ZLJVL0XOUMX25SP3QT93U60WP", "current_trial": 160, "dateTime": 1512758195342, "trialdata": {"rt": -1, "stimulus": "<p id=\"stim\">BEAKER</p>", "key_press": -1, "type": "PRES_VIS", "word": "beaker", "wordID": 103, "conditions": [24, 1600, "v", 12000], "trial": 4, "serialpos": 15, "trial_type": "single-stim", "trial_index": 160, "time_elapsed": 1116655, "internal_node_id": "0.0-115.0"}}, {"uniqueid": "MTK0803:3U088ZLJVL0XOUMX25SP3QT93U60WP", "current_trial": 161, "dateTime": 1512758198019, "trialdata": {"rt": -1, "stimulus": "<p id=\"stim\">SKETCH</p>", "key_press": -1, "type": "PRES_VIS", "word": "sketch", "wordID": 1314, "conditions": [24, 1600, "v", 12000], "trial": 4, "serialpos": 16, "trial_type": "single-stim", "trial_index": 161, "time_elapsed": 1119333, "internal_node_id": "0.0-116.0"}}, {"uniqueid": "MTK0803:3U088ZLJVL0XOUMX25SP3QT93U60WP", "current_trial": 162, "dateTime": 1512758200428, "trialdata": {"rt": -1, "stimulus": "<p id=\"stim\">PAPER</p>", "key_press": -1, "type": "PRES_VIS", "word": "paper", "wordID": 1010, "conditions": [24, 1600, "v", 12000], "trial": 4, "serialpos": 17, "trial_type": "single-stim", "trial_index": 162, "time_elapsed": 1121741, "internal_node_id": "0.0-117.0"}}, {"uniqueid": "MTK0803:3U088ZLJVL0XOUMX25SP3QT93U60WP", "current_trial": 163, "dateTime": 1512758203008, "trialdata": {"rt": -1, "stimulus": "<p id=\"stim\">LUMBER</p>", "key_press": -1, "type": "PRES_VIS", "word": "lumber", "wordID": 847, "conditions": [24, 1600, "v", 12000], "trial": 4, "serialpos": 18, "trial_type": "single-stim", "trial_index": 163, "time_elapsed": 1124321, "internal_node_id": "0.0-118.0"}}, {"uniqueid": "MTK0803:3U088ZLJVL0XOUMX25SP3QT93U60WP", "current_trial": 164, "dateTime": 1512758205625, "trialdata": {"rt": -1, "stimulus": "<p id=\"stim\">HERO</p>", "key_press": -1, "type": "PRES_VIS", "word": "hero", "wordID": 705, "conditions": [24, 1600, "v", 12000], "trial": 4, "serialpos": 19, "trial_type": "single-stim", "trial_index": 164, "time_elapsed": 1126938, "internal_node_id": "0.0-119.0"}}, {"uniqueid": "MTK0803:3U088ZLJVL0XOUMX25SP3QT93U60WP", "current_trial": 165, "dateTime": 1512758208118, "trialdata": {"rt": -1, "stimulus": "<p id=\"stim\">GIFT</p>", "key_press": -1, "type": "PRES_VIS", "word": "gift", "wordID": 634, "conditions": [24, 1600, "v", 12000], "trial": 4, "serialpos": 20, "trial_type": "single-stim", "trial_index": 165, "time_elapsed": 1129431, "internal_node_id": "0.0-120.0"}}, {"uniqueid": "MTK0803:3U088ZLJVL0XOUMX25SP3QT93U60WP", "current_trial": 166, "dateTime": 1512758210556, "trialdata": {"rt": -1, "stimulus": "<p id=\"stim\">HOOD</p>", "key_press": -1, "type": "PRES_VIS", "word": "hood", "wordID": 713, "conditions": [24, 1600, "v", 12000], "trial": 4, "serialpos": 21, "trial_type": "single-stim", "trial_index": 166, "time_elapsed": 1131869, "internal_node_id": "0.0-121.0"}}, {"uniqueid": "MTK0803:3U088ZLJVL0XOUMX25SP3QT93U60WP", "current_trial": 167, "dateTime": 1512758213010, "trialdata": {"rt": -1, "stimulus": "<p id=\"stim\">LUNCH</p>", "key_press": -1, "type": "PRES_VIS", "word": "lunch", "wordID": 848, "conditions": [24, 1600, "v", 12000], "trial": 4, "serialpos": 22, "trial_type": "single-stim", "trial_index": 167, "time_elapsed": 1134323, "internal_node_id": "0.0-122.0"}}, {"uniqueid": "MTK0803:3U088ZLJVL0XOUMX25SP3QT93U60WP", "current_trial": 168, "dateTime": 1512758215657, "trialdata": {"rt": -1, "stimulus": "<p id=\"stim\">SMOG</p>", "key_press": -1, "type": "PRES_VIS", "word": "smog", "wordID": 1329, "conditions": [24, 1600, "v", 12000], "trial": 4, "serialpos": 23, "trial_type": "single-stim", "trial_index": 168, "time_elapsed": 1136970, "internal_node_id": "0.0-123.0"}}, {"uniqueid": "MTK0803:3U088ZLJVL0XOUMX25SP3QT93U60WP", "current_trial": 169, "dateTime": 1512758217739, "trialdata": {"rt": -1, "stimulus": "", "key_press": -1, "type": "PRE_RECALL_DELAY", "trial_type": "single-stim", "trial_index": 169, "time_elapsed": 1139052, "internal_node_id": "0.0-124.0-0.0"}}, {"uniqueid": "MTK0803:3U088ZLJVL0XOUMX25SP3QT93U60WP", "current_trial": 170, "dateTime": 1512758218290, "trialdata": {"rt": -1000, "stimulus": "/static/audio/400Hz.wav", "key_press": -1, "type": "PRE_RECALL_ALERT", "trial_type": "single-audio", "trial_index": 170, "time_elapsed": 1139603, "internal_node_id": "0.0-125.0"}}, {"uniqueid": "MTK0803:3U088ZLJVL0XOUMX25SP3QT93U60WP", "current_trial": 171, "dateTime": 1512758278307, "trialdata": {"rt": [7895, 11510, 14430, 17014], "recwords": ["waitress", "water", "money", "life"], "type": "FREE_RECALL", "conditions": [24, 1600, "v", 12000], "trial": 4, "trial_type": "free-recall", "trial_index": 171, "time_elapsed": 1199611, "internal_node_id": "0.0-126.0-0.0"}}, {"uniqueid": "MTK0803:3U088ZLJVL0XOUMX25SP3QT93U60WP", "current_trial": 172, "dateTime": 1512758287449, "trialdata": {"rt": 7138, "key_press": 32, "type": "INSTRUCTIONS", "trial_type": "text", "trial_index": 172, "time_elapsed": 1208762, "internal_node_id": "0.0-127.0"}}, {"uniqueid": "MTK0803:3U088ZLJVL0XOUMX25SP3QT93U60WP", "current_trial": 173, "dateTime": 1512758313466, "trialdata": {"rt": [4778, 8066, 11827, 14274, 16314], "responses": ["18", "16", "13", "6", "7"], "num1": [9, 4, 4, 4, 4, 8], "num2": [3, 4, 7, 3, 3, 7], "num3": [7, 8, 2, 1, 2, 5], "type": "DISTRACTOR", "conditions": [24, 1600, "a", 24000], "trial": 5, "trial_type": "math-distractor", "trial_index": 173, "time_elapsed": 1234779, "internal_node_id": "0.0-128.0"}}, {"uniqueid": "MTK0803:3U088ZLJVL0XOUMX25SP3QT93U60WP", "current_trial": 174, "dateTime": 1512758316479, "trialdata": {"rt": -1, "stimulus": "<p id=\"stim\">10</p>", "key_press": -1, "trial_type": "single-stim", "trial_index": 174, "time_elapsed": 1237791, "internal_node_id": "0.0-129.0-0.0"}}, {"uniqueid": "MTK0803:3U088ZLJVL0XOUMX25SP3QT93U60WP", "current_trial": 175, "dateTime": 1512758317483, "trialdata": {"rt": -1, "stimulus": "<p id=\"stim\">9</p>", "key_press": -1, "trial_type": "single-stim", "trial_index": 175, "time_elapsed": 1238796, "internal_node_id": "0.0-129.0-1.0"}}, {"uniqueid": "MTK0803:3U088ZLJVL0XOUMX25SP3QT93U60WP", "current_trial": 176, "dateTime": 1512758318486, "trialdata": {"rt": -1, "stimulus": "<p id=\"stim\">8</p>", "key_press": -1, "trial_type": "single-stim", "trial_index": 176, "time_elapsed": 1239799, "internal_node_id": "0.0-129.0-2.0"}}, {"uniqueid": "MTK0803:3U088ZLJVL0XOUMX25SP3QT93U60WP", "current_trial": 177, "dateTime": 1512758319488, "trialdata": {"rt": -1, "stimulus": "<p id=\"stim\">7</p>", "key_press": -1, "trial_type": "single-stim", "trial_index": 177, "time_elapsed": 1240801, "internal_node_id": "0.0-129.0-3.0"}}, {"uniqueid": "MTK0803:3U088ZLJVL0XOUMX25SP3QT93U60WP", "current_trial": 178, "dateTime": 1512758320490, "trialdata": {"rt": -1, "stimulus": "<p id=\"stim\">6</p>", "key_press": -1, "trial_type": "single-stim", "trial_index": 178, "time_elapsed": 1241803, "internal_node_id": "0.0-129.0-4.0"}}, {"uniqueid": "MTK0803:3U088ZLJVL0XOUMX25SP3QT93U60WP", "current_trial": 179, "dateTime": 1512758321492, "trialdata": {"rt": -1, "stimulus": "<p id=\"stim\">5</p>", "key_press": -1, "trial_type": "single-stim", "trial_index": 179, "time_elapsed": 1242806, "internal_node_id": "0.0-129.0-5.0"}}, {"uniqueid": "MTK0803:3U088ZLJVL0XOUMX25SP3QT93U60WP", "current_trial": 180, "dateTime": 1512758322494, "trialdata": {"rt": -1, "stimulus": "<p id=\"stim\">4</p>", "key_press": -1, "trial_type": "single-stim", "trial_index": 180, "time_elapsed": 1243808, "internal_node_id": "0.0-129.0-6.0"}}, {"uniqueid": "MTK0803:3U088ZLJVL0XOUMX25SP3QT93U60WP", "current_trial": 181, "dateTime": 1512758323496, "trialdata": {"rt": -1, "stimulus": "<p id=\"stim\">3</p>", "key_press": -1, "trial_type": "single-stim", "trial_index": 181, "time_elapsed": 1244809, "internal_node_id": "0.0-129.0-7.0"}}, {"uniqueid": "MTK0803:3U088ZLJVL0XOUMX25SP3QT93U60WP", "current_trial": 182, "dateTime": 1512758324497, "trialdata": {"rt": -1, "stimulus": "<p id=\"stim\">2</p>", "key_press": -1, "trial_type": "single-stim", "trial_index": 182, "time_elapsed": 1245810, "internal_node_id": "0.0-129.0-8.0"}}, {"uniqueid": "MTK0803:3U088ZLJVL0XOUMX25SP3QT93U60WP", "current_trial": 183, "dateTime": 1512758325499, "trialdata": {"rt": -1, "stimulus": "<p id=\"stim\">1</p>", "key_press": -1, "trial_type": "single-stim", "trial_index": 183, "time_elapsed": 1246812, "internal_node_id": "0.0-129.0-9.0"}}, {"uniqueid": "MTK0803:3U088ZLJVL0XOUMX25SP3QT93U60WP", "current_trial": 184, "dateTime": 1512758327052, "trialdata": {"rt": -1, "stimulus": "<p id=\"stim\">+</p>", "key_press": -1, "type": "FIXATION", "trial_type": "single-stim", "trial_index": 184, "time_elapsed": 1248366, "internal_node_id": "0.0-130.0-0.0"}}, {"uniqueid": "MTK0803:3U088ZLJVL0XOUMX25SP3QT93U60WP", "current_trial": 185, "dateTime": 1512758329730, "trialdata": {"rt": -1000, "stimulus": "/static/audio/wordpool/OMELET.wav", "key_press": -1, "type": "PRES_AUD", "word": "omelet", "wordID": 975, "conditions": [24, 1600, "a", 24000], "trial": 5, "serialpos": 0, "trial_type": "single-audio", "trial_index": 185, "time_elapsed": 1251044, "internal_node_id": "0.0-131.0"}}, {"uniqueid": "MTK0803:3U088ZLJVL0XOUMX25SP3QT93U60WP", "current_trial": 186, "dateTime": 1512758332340, "trialdata": {"rt": -1000, "stimulus": "/static/audio/wordpool/TWIG.wav", "key_press": -1, "type": "PRES_AUD", "word": "twig", "wordID": 1526, "conditions": [24, 1600, "a", 24000], "trial": 5, "serialpos": 1, "trial_type": "single-audio", "trial_index": 186, "time_elapsed": 1253654, "internal_node_id": "0.0-132.0"}}, {"uniqueid": "MTK0803:3U088ZLJVL0XOUMX25SP3QT93U60WP", "current_trial": 187, "dateTime": 1512758335116, "trialdata": {"rt": -1000, "stimulus": "/static/audio/wordpool/HOOK.wav", "key_press": -1, "type": "PRES_AUD", "word": "hook", "wordID": 714, "conditions": [24, 1600, "a", 24000], "trial": 5, "serialpos": 2, "trial_type": "single-audio", "trial_index": 187, "time_elapsed": 1256429, "internal_node_id": "0.0-133.0"}}, {"uniqueid": "MTK0803:3U088ZLJVL0XOUMX25SP3QT93U60WP", "current_trial": 188, "dateTime": 1512758337756, "trialdata": {"rt": -1000, "stimulus": "/static/audio/wordpool/BRIEFCASE.wav", "key_press": -1, "type": "PRES_AUD", "word": "briefcase", "wordID": 174, "conditions": [24, 1600, "a", 24000], "trial": 5, "serialpos": 3, "trial_type": "single-audio", "trial_index": 188, "time_elapsed": 1259069, "internal_node_id": "0.0-134.0"}}, {"uniqueid": "MTK0803:3U088ZLJVL0XOUMX25SP3QT93U60WP", "current_trial": 189, "dateTime": 1512758340536, "trialdata": {"rt": -1000, "stimulus": "/static/audio/wordpool/KIDNEY.wav", "key_press": -1, "type": "PRES_AUD", "word": "kidney", "wordID": 775, "conditions": [24, 1600, "a", 24000], "trial": 5, "serialpos": 4, "trial_type": "single-audio", "trial_index": 189, "time_elapsed": 1261848, "internal_node_id": "0.0-135.0"}}, {"uniqueid": "MTK0803:3U088ZLJVL0XOUMX25SP3QT93U60WP", "current_trial": 190, "dateTime": 1512758343169, "trialdata": {"rt": -1000, "stimulus": "/static/audio/wordpool/INFANT.wav", "key_press": -1, "type": "PRES_AUD", "word": "infant", "wordID": 736, "conditions": [24, 1600, "a", 24000], "trial": 5, "serialpos": 5, "trial_type": "single-audio", "trial_index": 190, "time_elapsed": 1264481, "internal_node_id": "0.0-136.0"}}, {"uniqueid": "MTK0803:3U088ZLJVL0XOUMX25SP3QT93U60WP", "current_trial": 191, "dateTime": 1512758345843, "trialdata": {"rt": -1000, "stimulus": "/static/audio/wordpool/CRIB.wav", "key_press": -1, "type": "PRES_AUD", "word": "crib", "wordID": 406, "conditions": [24, 1600, "a", 24000], "trial": 5, "serialpos": 6, "trial_type": "single-audio", "trial_index": 191, "time_elapsed": 1267156, "internal_node_id": "0.0-137.0"}}, {"uniqueid": "MTK0803:3U088ZLJVL0XOUMX25SP3QT93U60WP", "current_trial": 192, "dateTime": 1512758348636, "trialdata": {"rt": -1000, "stimulus": "/static/audio/wordpool/SWITCH.wav", "key_press": -1, "type": "PRES_AUD", "word": "switch", "wordID": 1421, "conditions": [24, 1600, "a", 24000], "trial": 5, "serialpos": 7, "trial_type": "single-audio", "trial_index": 192, "time_elapsed": 1269949, "internal_node_id": "0.0-138.0"}}, {"uniqueid": "MTK0803:3U088ZLJVL0XOUMX25SP3QT93U60WP", "current_trial": 193, "dateTime": 1512758351332, "trialdata": {"rt": -1000, "stimulus": "/static/audio/wordpool/POCKET.wav", "key_press": -1, "type": "PRES_AUD", "word": "pocket", "wordID": 1092, "conditions": [24, 1600, "a", 24000], "trial": 5, "serialpos": 8, "trial_type": "single-audio", "trial_index": 193, "time_elapsed": 1272645, "internal_node_id": "0.0-139.0"}}, {"uniqueid": "MTK0803:3U088ZLJVL0XOUMX25SP3QT93U60WP", "current_trial": 194, "dateTime": 1512758353864, "trialdata": {"rt": -1000, "stimulus": "/static/audio/wordpool/PENGUIN.wav", "key_press": -1, "type": "PRES_AUD", "word": "penguin", "wordID": 1043, "conditions": [24, 1600, "a", 24000], "trial": 5, "serialpos": 9, "trial_type": "single-audio", "trial_index": 194, "time_elapsed": 1275178, "internal_node_id": "0.0-140.0"}}, {"uniqueid": "MTK0803:3U088ZLJVL0XOUMX25SP3QT93U60WP", "current_trial": 195, "dateTime": 1512758356283, "trialdata": {"rt": -1000, "stimulus": "/static/audio/wordpool/FRAGRANCE.wav", "key_press": -1, "type": "PRES_AUD", "word": "fragrance", "wordID": 598, "conditions": [24, 1600, "a", 24000], "trial": 5, "serialpos": 10, "trial_type": "single-audio", "trial_index": 195, "time_elapsed": 1277597, "internal_node_id": "0.0-141.0"}}, {"uniqueid": "MTK0803:3U088ZLJVL0XOUMX25SP3QT93U60WP", "current_trial": 196, "dateTime": 1512758358958, "trialdata": {"rt": -1000, "stimulus": "/static/audio/wordpool/SWAMP.wav", "key_press": -1, "type": "PRES_AUD", "word": "swamp", "wordID": 1415, "conditions": [24, 1600, "a", 24000], "trial": 5, "serialpos": 11, "trial_type": "single-audio", "trial_index": 196, "time_elapsed": 1280271, "internal_node_id": "0.0-142.0"}}, {"uniqueid": "MTK0803:3U088ZLJVL0XOUMX25SP3QT93U60WP", "current_trial": 197, "dateTime": 1512758361488, "trialdata": {"rt": -1000, "stimulus": "/static/audio/wordpool/OX.wav", "key_press": -1, "type": "PRES_AUD", "word": "ox", "wordID": 993, "conditions": [24, 1600, "a", 24000], "trial": 5, "serialpos": 12, "trial_type": "single-audio", "trial_index": 197, "time_elapsed": 1282802, "internal_node_id": "0.0-143.0"}}, {"uniqueid": "MTK0803:3U088ZLJVL0XOUMX25SP3QT93U60WP", "current_trial": 198, "dateTime": 1512758364128, "trialdata": {"rt": -1000, "stimulus": "/static/audio/wordpool/DANCER.wav", "key_press": -1, "type": "PRES_AUD", "word": "dancer", "wordID": 436, "conditions": [24, 1600, "a", 24000], "trial": 5, "serialpos": 13, "trial_type": "single-audio", "trial_index": 198, "time_elapsed": 1285442, "internal_node_id": "0.0-144.0"}}, {"uniqueid": "MTK0803:3U088ZLJVL0XOUMX25SP3QT93U60WP", "current_trial": 199, "dateTime": 1512758366767, "trialdata": {"rt": -1000, "stimulus": "/static/audio/wordpool/CHEMIST.wav", "key_press": -1, "type": "PRES_AUD", "word": "chemist", "wordID": 291, "conditions": [24, 1600, "a", 24000], "trial": 5, "serialpos": 14, "trial_type": "single-audio", "trial_index": 199, "time_elapsed": 1288081, "internal_node_id": "0.0-145.0"}}, {"uniqueid": "MTK0803:3U088ZLJVL0XOUMX25SP3QT93U60WP", "current_trial": 200, "dateTime": 1512758369488, "trialdata": {"rt": -1000, "stimulus": "/static/audio/wordpool/PASTA.wav", "key_press": -1, "type": "PRES_AUD", "word": "pasta", "wordID": 1020, "conditions": [24, 1600, "a", 24000], "trial": 5, "serialpos": 15, "trial_type": "single-audio", "trial_index": 200, "time_elapsed": 1290801, "internal_node_id": "0.0-146.0"}}, {"uniqueid": "MTK0803:3U088ZLJVL0XOUMX25SP3QT93U60WP", "current_trial": 201, "dateTime": 1512758372239, "trialdata": {"rt": -1000, "stimulus": "/static/audio/wordpool/BUG.wav", "key_press": -1, "type": "PRES_AUD", "word": "bug", "wordID": 186, "conditions": [24, 1600, "a", 24000], "trial": 5, "serialpos": 16, "trial_type": "single-audio", "trial_index": 201, "time_elapsed": 1293553, "internal_node_id": "0.0-147.0"}}, {"uniqueid": "MTK0803:3U088ZLJVL0XOUMX25SP3QT93U60WP", "current_trial": 202, "dateTime": 1512758374752, "trialdata": {"rt": -1000, "stimulus": "/static/audio/wordpool/UNCLE.wav", "key_press": -1, "type": "PRES_AUD", "word": "uncle", "wordID": 1535, "conditions": [24, 1600, "a", 24000], "trial": 5, "serialpos": 17, "trial_type": "single-audio", "trial_index": 202, "time_elapsed": 1296065, "internal_node_id": "0.0-148.0"}}, {"uniqueid": "MTK0803:3U088ZLJVL0XOUMX25SP3QT93U60WP", "current_trial": 203, "dateTime": 1512758377519, "trialdata": {"rt": -1000, "stimulus": "/static/audio/wordpool/DASHBOARD.wav", "key_press": -1, "type": "PRES_AUD", "word": "dashboard", "wordID": 440, "conditions": [24, 1600, "a", 24000], "trial": 5, "serialpos": 18, "trial_type": "single-audio", "trial_index": 203, "time_elapsed": 1298832, "internal_node_id": "0.0-149.0"}}, {"uniqueid": "MTK0803:3U088ZLJVL0XOUMX25SP3QT93U60WP", "current_trial": 204, "dateTime": 1512758380221, "trialdata": {"rt": -1000, "stimulus": "/static/audio/wordpool/HORNET.wav", "key_press": -1, "type": "PRES_AUD", "word": "hornet", "wordID": 717, "conditions": [24, 1600, "a", 24000], "trial": 5, "serialpos": 19, "trial_type": "single-audio", "trial_index": 204, "time_elapsed": 1301534, "internal_node_id": "0.0-150.0"}}, {"uniqueid": "MTK0803:3U088ZLJVL0XOUMX25SP3QT93U60WP", "current_trial": 205, "dateTime": 1512758382879, "trialdata": {"rt": -1000, "stimulus": "/static/audio/wordpool/CLOUD.wav", "key_press": -1, "type": "PRES_AUD", "word": "cloud", "wordID": 327, "conditions": [24, 1600, "a", 24000], "trial": 5, "serialpos": 20, "trial_type": "single-audio", "trial_index": 205, "time_elapsed": 1304193, "internal_node_id": "0.0-151.0"}}, {"uniqueid": "MTK0803:3U088ZLJVL0XOUMX25SP3QT93U60WP", "current_trial": 206, "dateTime": 1512758385367, "trialdata": {"rt": -1000, "stimulus": "/static/audio/wordpool/CUSTARD.wav", "key_press": -1, "type": "PRES_AUD", "word": "custard", "wordID": 428, "conditions": [24, 1600, "a", 24000], "trial": 5, "serialpos": 21, "trial_type": "single-audio", "trial_index": 206, "time_elapsed": 1306681, "internal_node_id": "0.0-152.0"}}, {"uniqueid": "MTK0803:3U088ZLJVL0XOUMX25SP3QT93U60WP", "current_trial": 207, "dateTime": 1512758387895, "trialdata": {"rt": -1000, "stimulus": "/static/audio/wordpool/JELLY.wav", "key_press": -1, "type": "PRES_AUD", "word": "jelly", "wordID": 754, "conditions": [24, 1600, "a", 24000], "trial": 5, "serialpos": 22, "trial_type": "single-audio", "trial_index": 207, "time_elapsed": 1309209, "internal_node_id": "0.0-153.0"}}, {"uniqueid": "MTK0803:3U088ZLJVL0XOUMX25SP3QT93U60WP", "current_trial": 208, "dateTime": 1512758390455, "trialdata": {"rt": -1000, "stimulus": "/static/audio/wordpool/SAUSAGE.wav", "key_press": -1, "type": "PRES_AUD", "word": "sausage", "wordID": 1237, "conditions": [24, 1600, "a", 24000], "trial": 5, "serialpos": 23, "trial_type": "single-audio", "trial_index": 208, "time_elapsed": 1311769, "internal_node_id": "0.0-154.0"}}, {"uniqueid": "MTK0803:3U088ZLJVL0XOUMX25SP3QT93U60WP", "current_trial": 209, "dateTime": 1512758391789, "trialdata": {"rt": -1, "stimulus": "", "key_press": -1, "type": "PRE_RECALL_DELAY", "trial_type": "single-stim", "trial_index": 209, "time_elapsed": 1313102, "internal_node_id": "0.0-155.0-0.0"}}, {"uniqueid": "MTK0803:3U088ZLJVL0XOUMX25SP3QT93U60WP", "current_trial": 210, "dateTime": 1512758392291, "trialdata": {"rt": -1000, "stimulus": "/static/audio/400Hz.wav", "key_press": -1, "type": "PRE_RECALL_ALERT", "trial_type": "single-audio", "trial_index": 210, "time_elapsed": 1313604, "internal_node_id": "0.0-156.0"}}, {"uniqueid": "MTK0803:3U088ZLJVL0XOUMX25SP3QT93U60WP", "current_trial": 211, "dateTime": 1512758452720, "trialdata": {"rt": [5208, 7598, 9366, 11645], "recwords": ["sitter", "bean", "help", "forth"], "type": "FREE_RECALL", "conditions": [24, 1600, "a", 24000], "trial": 5, "trial_type": "free-recall", "trial_index": 211, "time_elapsed": 1374022, "internal_node_id": "0.0-157.0-0.0"}}, {"uniqueid": "MTK0803:3U088ZLJVL0XOUMX25SP3QT93U60WP", "current_trial": 212, "dateTime": 1512758455215, "trialdata": {"rt": 492, "key_press": 32, "type": "INSTRUCTIONS", "trial_type": "text", "trial_index": 212, "time_elapsed": 1376528, "internal_node_id": "0.0-158.0"}}, {"uniqueid": "MTK0803:3U088ZLJVL0XOUMX25SP3QT93U60WP", "current_trial": 213, "dateTime": 1512758469224, "trialdata": {"rt": [4468, 8312, 11341], "responses": ["15", "9", "16"], "num1": [8, 6, 4, 4], "num2": [2, 2, 4, 3], "num3": [5, 1, 8, 5], "type": "DISTRACTOR", "conditions": [12, 800, "v", 12000], "trial": 6, "trial_type": "math-distractor", "trial_index": 213, "time_elapsed": 1390537, "internal_node_id": "0.0-159.0"}}, {"uniqueid": "MTK0803:3U088ZLJVL0XOUMX25SP3QT93U60WP", "current_trial": 214, "dateTime": 1512758472264, "trialdata": {"rt": -1, "stimulus": "<p id=\"stim\">10</p>", "key_press": -1, "trial_type": "single-stim", "trial_index": 214, "time_elapsed": 1393577, "internal_node_id": "0.0-160.0-0.0"}}, {"uniqueid": "MTK0803:3U088ZLJVL0XOUMX25SP3QT93U60WP", "current_trial": 215, "dateTime": 1512758473269, "trialdata": {"rt": -1, "stimulus": "<p id=\"stim\">9</p>", "key_press": -1, "trial_type": "single-stim", "trial_index": 215, "time_elapsed": 1394583, "internal_node_id": "0.0-160.0-1.0"}}, {"uniqueid": "MTK0803:3U088ZLJVL0XOUMX25SP3QT93U60WP", "current_trial": 216, "dateTime": 1512758474272, "trialdata": {"rt": -1, "stimulus": "<p id=\"stim\">8</p>", "key_press": -1, "trial_type": "single-stim", "trial_index": 216, "time_elapsed": 1395585, "internal_node_id": "0.0-160.0-2.0"}}, {"uniqueid": "MTK0803:3U088ZLJVL0XOUMX25SP3QT93U60WP", "current_trial": 217, "dateTime": 1512758475315, "trialdata": {"rt": -1, "stimulus": "<p id=\"stim\">7</p>", "key_press": -1, "trial_type": "single-stim", "trial_index": 217, "time_elapsed": 1396629, "internal_node_id": "0.0-160.0-3.0"}}, {"uniqueid": "MTK0803:3U088ZLJVL0XOUMX25SP3QT93U60WP", "current_trial": 218, "dateTime": 1512758476407, "trialdata": {"rt": -1, "stimulus": "<p id=\"stim\">6</p>", "key_press": -1, "trial_type": "single-stim", "trial_index": 218, "time_elapsed": 1397721, "internal_node_id": "0.0-160.0-4.0"}}, {"uniqueid": "MTK0803:3U088ZLJVL0XOUMX25SP3QT93U60WP", "current_trial": 219, "dateTime": 1512758477785, "trialdata": {"rt": -1, "stimulus": "<p id=\"stim\">5</p>", "key_press": -1, "trial_type": "single-stim", "trial_index": 219, "time_elapsed": 1399099, "internal_node_id": "0.0-160.0-5.0"}}, {"uniqueid": "MTK0803:3U088ZLJVL0XOUMX25SP3QT93U60WP", "current_trial": 220, "dateTime": 1512758478827, "trialdata": {"rt": -1, "stimulus": "<p id=\"stim\">4</p>", "key_press": -1, "trial_type": "single-stim", "trial_index": 220, "time_elapsed": 1400141, "internal_node_id": "0.0-160.0-6.0"}}, {"uniqueid": "MTK0803:3U088ZLJVL0XOUMX25SP3QT93U60WP", "current_trial": 221, "dateTime": 1512758479829, "trialdata": {"rt": -1, "stimulus": "<p id=\"stim\">3</p>", "key_press": -1, "trial_type": "single-stim", "trial_index": 221, "time_elapsed": 1401142, "internal_node_id": "0.0-160.0-7.0"}}, {"uniqueid": "MTK0803:3U088ZLJVL0XOUMX25SP3QT93U60WP", "current_trial": 222, "dateTime": 1512758480831, "trialdata": {"rt": -1, "stimulus": "<p id=\"stim\">2</p>", "key_press": -1, "trial_type": "single-stim", "trial_index": 222, "time_elapsed": 1402145, "internal_node_id": "0.0-160.0-8.0"}}, {"uniqueid": "MTK0803:3U088ZLJVL0XOUMX25SP3QT93U60WP", "current_trial": 223, "dateTime": 1512758481837, "trialdata": {"rt": -1, "stimulus": "<p id=\"stim\">1</p>", "key_press": -1, "trial_type": "single-stim", "trial_index": 223, "time_elapsed": 1403150, "internal_node_id": "0.0-160.0-9.0"}}, {"uniqueid": "MTK0803:3U088ZLJVL0XOUMX25SP3QT93U60WP", "current_trial": 224, "dateTime": 1512758483340, "trialdata": {"rt": -1, "stimulus": "<p id=\"stim\">+</p>", "key_press": -1, "type": "FIXATION", "trial_type": "single-stim", "trial_index": 224, "time_elapsed": 1404653, "internal_node_id": "0.0-161.0-0.0"}}, {"uniqueid": "MTK0803:3U088ZLJVL0XOUMX25SP3QT93U60WP", "current_trial": 225, "dateTime": 1512758484165, "trialdata": {"rt": -1, "stimulus": "<p id=\"stim\">HAMPER</p>", "key_press": -1, "type": "PRES_VIS", "word": "hamper", "wordID": 681, "conditions": [12, 800, "v", 12000], "trial": 6, "serialpos": 0, "trial_type": "single-stim", "trial_index": 225, "time_elapsed": 1405478, "internal_node_id": "0.0-162.0"}}, {"uniqueid": "MTK0803:3U088ZLJVL0XOUMX25SP3QT93U60WP", "current_trial": 226, "dateTime": 1512758485965, "trialdata": {"rt": -1, "stimulus": "<p id=\"stim\">OUTLAW</p>", "key_press": -1, "type": "PRES_VIS", "word": "outlaw", "wordID": 988, "conditions": [12, 800, "v", 12000], "trial": 6, "serialpos": 1, "trial_type": "single-stim", "trial_index": 226, "time_elapsed": 1407279, "internal_node_id": "0.0-163.0"}}, {"uniqueid": "MTK0803:3U088ZLJVL0XOUMX25SP3QT93U60WP", "current_trial": 227, "dateTime": 1512758487614, "trialdata": {"rt": -1, "stimulus": "<p id=\"stim\">ORCHID</p>", "key_press": -1, "type": "PRES_VIS", "word": "orchid", "wordID": 981, "conditions": [12, 800, "v", 12000], "trial": 6, "serialpos": 2, "trial_type": "single-stim", "trial_index": 227, "time_elapsed": 1408928, "internal_node_id": "0.0-164.0"}}, {"uniqueid": "MTK0803:3U088ZLJVL0XOUMX25SP3QT93U60WP", "current_trial": 228, "dateTime": 1512758489240, "trialdata": {"rt": -1, "stimulus": "<p id=\"stim\">SHRUB</p>", "key_press": -1, "type": "PRES_VIS", "word": "shrub", "wordID": 1298, "conditions": [12, 800, "v", 12000], "trial": 6, "serialpos": 3, "trial_type": "single-stim", "trial_index": 228, "time_elapsed": 1410554, "internal_node_id": "0.0-165.0"}}, {"uniqueid": "MTK0803:3U088ZLJVL0XOUMX25SP3QT93U60WP", "current_trial": 229, "dateTime": 1512758491141, "trialdata": {"rt": -1, "stimulus": "<p id=\"stim\">WARDROBE</p>", "key_press": -1, "type": "PRES_VIS", "word": "wardrobe", "wordID": 1586, "conditions": [12, 800, "v", 12000], "trial": 6, "serialpos": 4, "trial_type": "single-stim", "trial_index": 229, "time_elapsed": 1412455, "internal_node_id": "0.0-166.0"}}, {"uniqueid": "MTK0803:3U088ZLJVL0XOUMX25SP3QT93U60WP", "current_trial": 230, "dateTime": 1512758492944, "trialdata": {"rt": -1, "stimulus": "<p id=\"stim\">FIREMAN</p>", "key_press": -1, "type": "PRES_VIS", "word": "fireman", "wordID": 568, "conditions": [12, 800, "v", 12000], "trial": 6, "serialpos": 5, "trial_type": "single-stim", "trial_index": 230, "time_elapsed": 1414258, "internal_node_id": "0.0-167.0"}}, {"uniqueid": "MTK0803:3U088ZLJVL0XOUMX25SP3QT93U60WP", "current_trial": 231, "dateTime": 1512758495060, "trialdata": {"rt": -1, "stimulus": "<p id=\"stim\">CUPBOARD</p>", "key_press": -1, "type": "PRES_VIS", "word": "cupboard", "wordID": 424, "conditions": [12, 800, "v", 12000], "trial": 6, "serialpos": 6, "trial_type": "single-stim", "trial_index": 231, "time_elapsed": 1416374, "internal_node_id": "0.0-168.0"}}, {"uniqueid": "MTK0803:3U088ZLJVL0XOUMX25SP3QT93U60WP", "current_trial": 232, "dateTime": 1512758497287, "trialdata": {"rt": -1, "stimulus": "<p id=\"stim\">GLOBE</p>", "key_press": -1, "type": "PRES_VIS", "word": "globe", "wordID": 640, "conditions": [12, 800, "v", 12000], "trial": 6, "serialpos": 7, "trial_type": "single-stim", "trial_index": 232, "time_elapsed": 1418600, "internal_node_id": "0.0-169.0"}}, {"uniqueid": "MTK0803:3U088ZLJVL0XOUMX25SP3QT93U60WP", "current_trial": 233, "dateTime": 1512758499551, "trialdata": {"rt": -1, "stimulus": "<p id=\"stim\">EUROPE</p>", "key_press": -1, "type": "PRES_VIS", "word": "europe", "wordID": 540, "conditions": [12, 800, "v", 12000], "trial": 6, "serialpos": 8, "trial_type": "single-stim", "trial_index": 233, "time_elapsed": 1420864, "internal_node_id": "0.0-170.0"}}, {"uniqueid": "MTK0803:3U088ZLJVL0XOUMX25SP3QT93U60WP", "current_trial": 234, "dateTime": 1512758502357, "trialdata": {"rt": -1, "stimulus": "<p id=\"stim\">DRESS</p>", "key_press": -1, "type": "PRES_VIS", "word": "dress", "wordID": 494, "conditions": [12, 800, "v", 12000], "trial": 6, "serialpos": 9, "trial_type": "single-stim", "trial_index": 234, "time_elapsed": 1423670, "internal_node_id": "0.0-171.0"}}, {"uniqueid": "MTK0803:3U088ZLJVL0XOUMX25SP3QT93U60WP", "current_trial": 235, "dateTime": 1512758504481, "trialdata": {"rt": -1, "stimulus": "<p id=\"stim\">QUAIL</p>", "key_press": -1, "type": "PRES_VIS", "word": "quail", "wordID": 1146, "conditions": [12, 800, "v", 12000], "trial": 6, "serialpos": 10, "trial_type": "single-stim", "trial_index": 235, "time_elapsed": 1425794, "internal_node_id": "0.0-172.0"}}, {"uniqueid": "MTK0803:3U088ZLJVL0XOUMX25SP3QT93U60WP", "current_trial": 236, "dateTime": 1512758506173, "trialdata": {"rt": -1, "stimulus": "<p id=\"stim\">DUST</p>", "key_press": -1, "type": "PRES_VIS", "word": "dust", "wordID": 507, "conditions": [12, 800, "v", 12000], "trial": 6, "serialpos": 11, "trial_type": "single-stim", "trial_index": 236, "time_elapsed": 1427486, "internal_node_id": "0.0-173.0"}}, {"uniqueid": "MTK0803:3U088ZLJVL0XOUMX25SP3QT93U60WP", "current_trial": 237, "dateTime": 1512758508507, "trialdata": {"rt": -1, "stimulus": "", "key_press": -1, "type": "PRE_RECALL_DELAY", "trial_type": "single-stim", "trial_index": 237, "time_elapsed": 1429821, "internal_node_id": "0.0-174.0-0.0"}}, {"uniqueid": "MTK0803:3U088ZLJVL0XOUMX25SP3QT93U60WP", "current_trial": 238, "dateTime": 1512758509020, "trialdata": {"rt": -1000, "stimulus": "/static/audio/400Hz.wav", "key_press": -1, "type": "PRE_RECALL_ALERT", "trial_type": "single-audio", "trial_index": 238, "time_elapsed": 1430333, "internal_node_id": "0.0-175.0"}}, {"uniqueid": "MTK0803:3U088ZLJVL0XOUMX25SP3QT93U60WP", "current_trial": 239, "dateTime": 1512758569038, "trialdata": {"rt": [56825, 58769], "recwords": ["gate", "free"], "type": "FREE_RECALL", "conditions": [12, 800, "v", 12000], "trial": 6, "trial_type": "free-recall", "trial_index": 239, "time_elapsed": 1490340, "internal_node_id": "0.0-176.0-0.0"}}, {"uniqueid": "MTK0803:3U088ZLJVL0XOUMX25SP3QT93U60WP", "current_trial": 240, "dateTime": 1512759573483, "trialdata": {"rt": 1002440, "key_press": 32, "type": "INSTRUCTIONS", "trial_type": "text", "trial_index": 240, "time_elapsed": 2494796, "internal_node_id": "0.0-177.0"}}, {"uniqueid": "MTK0803:3U088ZLJVL0XOUMX25SP3QT93U60WP", "current_trial": 241, "dateTime": 1512759587501, "trialdata": {"rt": [5863, 9124], "responses": ["17", "15"], "num1": [5, 4, 9], "num2": [8, 5, 5], "num3": [7, 6, 4], "type": "DISTRACTOR", "conditions": [24, 800, "a", 12000], "trial": 7, "trial_type": "math-distractor", "trial_index": 241, "time_elapsed": 2508813, "internal_node_id": "0.0-178.0"}}, {"uniqueid": "MTK0803:3U088ZLJVL0XOUMX25SP3QT93U60WP", "current_trial": 242, "dateTime": 1512759590518, "trialdata": {"rt": -1, "stimulus": "<p id=\"stim\">10</p>", "key_press": -1, "trial_type": "single-stim", "trial_index": 242, "time_elapsed": 2511831, "internal_node_id": "0.0-179.0-0.0"}}, {"uniqueid": "MTK0803:3U088ZLJVL0XOUMX25SP3QT93U60WP", "current_trial": 243, "dateTime": 1512759591526, "trialdata": {"rt": -1, "stimulus": "<p id=\"stim\">9</p>", "key_press": -1, "trial_type": "single-stim", "trial_index": 243, "time_elapsed": 2512839, "internal_node_id": "0.0-179.0-1.0"}}, {"uniqueid": "MTK0803:3U088ZLJVL0XOUMX25SP3QT93U60WP", "current_trial": 244, "dateTime": 1512759592531, "trialdata": {"rt": -1, "stimulus": "<p id=\"stim\">8</p>", "key_press": -1, "trial_type": "single-stim", "trial_index": 244, "time_elapsed": 2513844, "internal_node_id": "0.0-179.0-2.0"}}, {"uniqueid": "MTK0803:3U088ZLJVL0XOUMX25SP3QT93U60WP", "current_trial": 245, "dateTime": 1512759593584, "trialdata": {"rt": -1, "stimulus": "<p id=\"stim\">7</p>", "key_press": -1, "trial_type": "single-stim", "trial_index": 245, "time_elapsed": 2514897, "internal_node_id": "0.0-179.0-3.0"}}, {"uniqueid": "MTK0803:3U088ZLJVL0XOUMX25SP3QT93U60WP", "current_trial": 246, "dateTime": 1512759594579, "trialdata": {"rt": -1, "stimulus": "<p id=\"stim\">6</p>", "key_press": -1, "trial_type": "single-stim", "trial_index": 246, "time_elapsed": 2515892, "internal_node_id": "0.0-179.0-4.0"}}, {"uniqueid": "MTK0803:3U088ZLJVL0XOUMX25SP3QT93U60WP", "current_trial": 247, "dateTime": 1512759595868, "trialdata": {"rt": -1, "stimulus": "<p id=\"stim\">5</p>", "key_press": -1, "trial_type": "single-stim", "trial_index": 247, "time_elapsed": 2517182, "internal_node_id": "0.0-179.0-5.0"}}, {"uniqueid": "MTK0803:3U088ZLJVL0XOUMX25SP3QT93U60WP", "current_trial": 248, "dateTime": 1512759596871, "trialdata": {"rt": -1, "stimulus": "<p id=\"stim\">4</p>", "key_press": -1, "trial_type": "single-stim", "trial_index": 248, "time_elapsed": 2518184, "internal_node_id": "0.0-179.0-6.0"}}, {"uniqueid": "MTK0803:3U088ZLJVL0XOUMX25SP3QT93U60WP", "current_trial": 249, "dateTime": 1512759597985, "trialdata": {"rt": -1, "stimulus": "<p id=\"stim\">3</p>", "key_press": -1, "trial_type": "single-stim", "trial_index": 249, "time_elapsed": 2519298, "internal_node_id": "0.0-179.0-7.0"}}, {"uniqueid": "MTK0803:3U088ZLJVL0XOUMX25SP3QT93U60WP", "current_trial": 250, "dateTime": 1512759598987, "trialdata": {"rt": -1, "stimulus": "<p id=\"stim\">2</p>", "key_press": -1, "trial_type": "single-stim", "trial_index": 250, "time_elapsed": 2520300, "internal_node_id": "0.0-179.0-8.0"}}, {"uniqueid": "MTK0803:3U088ZLJVL0XOUMX25SP3QT93U60WP", "current_trial": 251, "dateTime": 1512759599989, "trialdata": {"rt": -1, "stimulus": "<p id=\"stim\">1</p>", "key_press": -1, "trial_type": "single-stim", "trial_index": 251, "time_elapsed": 2521303, "internal_node_id": "0.0-179.0-9.0"}}, {"uniqueid": "MTK0803:3U088ZLJVL0XOUMX25SP3QT93U60WP", "current_trial": 252, "dateTime": 1512759601543, "trialdata": {"rt": -1, "stimulus": "<p id=\"stim\">+</p>", "key_press": -1, "type": "FIXATION", "trial_type": "single-stim", "trial_index": 252, "time_elapsed": 2522857, "internal_node_id": "0.0-180.0-0.0"}}, {"uniqueid": "MTK0803:3U088ZLJVL0XOUMX25SP3QT93U60WP", "current_trial": 253, "dateTime": 1512759603389, "trialdata": {"rt": -1000, "stimulus": "/static/audio/wordpool/PASTRY.wav", "key_press": -1, "type": "PRES_AUD", "word": "pastry", "wordID": 1021, "conditions": [24, 800, "a", 12000], "trial": 7, "serialpos": 0, "trial_type": "single-audio", "trial_index": 253, "time_elapsed": 2524702, "internal_node_id": "0.0-181.0"}}, {"uniqueid": "MTK0803:3U088ZLJVL0XOUMX25SP3QT93U60WP", "current_trial": 254, "dateTime": 1512759605372, "trialdata": {"rt": -1000, "stimulus": "/static/audio/wordpool/MUFFIN.wav", "key_press": -1, "type": "PRES_AUD", "word": "muffin", "wordID": 928, "conditions": [24, 800, "a", 12000], "trial": 7, "serialpos": 1, "trial_type": "single-audio", "trial_index": 254, "time_elapsed": 2526685, "internal_node_id": "0.0-182.0"}}, {"uniqueid": "MTK0803:3U088ZLJVL0XOUMX25SP3QT93U60WP", "current_trial": 255, "dateTime": 1512759607059, "trialdata": {"rt": -1000, "stimulus": "/static/audio/wordpool/CURTAIN.wav", "key_press": -1, "type": "PRES_AUD", "word": "curtain", "wordID": 426, "conditions": [24, 800, "a", 12000], "trial": 7, "serialpos": 2, "trial_type": "single-audio", "trial_index": 255, "time_elapsed": 2528372, "internal_node_id": "0.0-183.0"}}, {"uniqueid": "MTK0803:3U088ZLJVL0XOUMX25SP3QT93U60WP", "current_trial": 256, "dateTime": 1512759609641, "trialdata": {"rt": -1000, "stimulus": "/static/audio/wordpool/INMATE.wav", "key_press": -1, "type": "PRES_AUD", "word": "inmate", "wordID": 737, "conditions": [24, 800, "a", 12000], "trial": 7, "serialpos": 3, "trial_type": "single-audio", "trial_index": 256, "time_elapsed": 2530954, "internal_node_id": "0.0-184.0"}}, {"uniqueid": "MTK0803:3U088ZLJVL0XOUMX25SP3QT93U60WP", "current_trial": 257, "dateTime": 1512759611495, "trialdata": {"rt": -1000, "stimulus": "/static/audio/wordpool/FRANCE.wav", "key_press": -1, "type": "PRES_AUD", "word": "france", "wordID": 600, "conditions": [24, 800, "a", 12000], "trial": 7, "serialpos": 4, "trial_type": "single-audio", "trial_index": 257, "time_elapsed": 2532808, "internal_node_id": "0.0-185.0"}}, {"uniqueid": "MTK0803:3U088ZLJVL0XOUMX25SP3QT93U60WP", "current_trial": 258, "dateTime": 1512759613309, "trialdata": {"rt": -1000, "stimulus": "/static/audio/wordpool/DORM.wav", "key_press": -1, "type": "PRES_AUD", "word": "dorm", "wordID": 487, "conditions": [24, 800, "a", 12000], "trial": 7, "serialpos": 5, "trial_type": "single-audio", "trial_index": 258, "time_elapsed": 2534622, "internal_node_id": "0.0-186.0"}}, {"uniqueid": "MTK0803:3U088ZLJVL0XOUMX25SP3QT93U60WP", "current_trial": 259, "dateTime": 1512759614945, "trialdata": {"rt": -1000, "stimulus": "/static/audio/wordpool/WASHER.wav", "key_press": -1, "type": "PRES_AUD", "word": "washer", "wordID": 1591, "conditions": [24, 800, "a", 12000], "trial": 7, "serialpos": 6, "trial_type": "single-audio", "trial_index": 259, "time_elapsed": 2536258, "internal_node_id": "0.0-187.0"}}, {"uniqueid": "MTK0803:3U088ZLJVL0XOUMX25SP3QT93U60WP", "current_trial": 260, "dateTime": 1512759616943, "trialdata": {"rt": -1000, "stimulus": "/static/audio/wordpool/TROUT.wav", "key_press": -1, "type": "PRES_AUD", "word": "trout", "wordID": 1510, "conditions": [24, 800, "a", 12000], "trial": 7, "serialpos": 7, "trial_type": "single-audio", "trial_index": 260, "time_elapsed": 2538256, "internal_node_id": "0.0-188.0"}}, {"uniqueid": "MTK0803:3U088ZLJVL0XOUMX25SP3QT93U60WP", "current_trial": 261, "dateTime": 1512759618774, "trialdata": {"rt": -1000, "stimulus": "/static/audio/wordpool/BRANCH.wav", "key_press": -1, "type": "PRES_AUD", "word": "branch", "wordID": 167, "conditions": [24, 800, "a", 12000], "trial": 7, "serialpos": 8, "trial_type": "single-audio", "trial_index": 261, "time_elapsed": 2540087, "internal_node_id": "0.0-189.0"}}, {"uniqueid": "MTK0803:3U088ZLJVL0XOUMX25SP3QT93U60WP", "current_trial": 262, "dateTime": 1512759620565, "trialdata": {"rt": -1000, "stimulus": "/static/audio/wordpool/HEART.wav", "key_press": -1, "type": "PRES_AUD", "word": "heart", "wordID": 696, "conditions": [24, 800, "a", 12000], "trial": 7, "serialpos": 9, "trial_type": "single-audio", "trial_index": 262, "time_elapsed": 2541879, "internal_node_id": "0.0-190.0"}}, {"uniqueid": "MTK0803:3U088ZLJVL0XOUMX25SP3QT93U60WP", "current_trial": 263, "dateTime": 1512759622475, "trialdata": {"rt": -1000, "stimulus": "/static/audio/wordpool/GUARD.wav", "key_press": -1, "type": "PRES_AUD", "word": "guard", "wordID": 666, "conditions": [24, 800, "a", 12000], "trial": 7, "serialpos": 10, "trial_type": "single-audio", "trial_index": 263, "time_elapsed": 2543787, "internal_node_id": "0.0-191.0"}}, {"uniqueid": "MTK0803:3U088ZLJVL0XOUMX25SP3QT93U60WP", "current_trial": 264, "dateTime": 1512759624673, "trialdata": {"rt": -1000, "stimulus": "/static/audio/wordpool/JAPAN.wav", "key_press": -1, "type": "PRES_AUD", "word": "japan", "wordID": 748, "conditions": [24, 800, "a", 12000], "trial": 7, "serialpos": 11, "trial_type": "single-audio", "trial_index": 264, "time_elapsed": 2545986, "internal_node_id": "0.0-192.0"}}, {"uniqueid": "MTK0803:3U088ZLJVL0XOUMX25SP3QT93U60WP", "current_trial": 265, "dateTime": 1512759627993, "trialdata": {"rt": -1000, "stimulus": "/static/audio/wordpool/BROTHER.wav", "key_press": -1, "type": "PRES_AUD", "word": "brother", "wordID": 178, "conditions": [24, 800, "a", 12000], "trial": 7, "serialpos": 12, "trial_type": "single-audio", "trial_index": 265, "time_elapsed": 2549306, "internal_node_id": "0.0-193.0"}}, {"uniqueid": "MTK0803:3U088ZLJVL0XOUMX25SP3QT93U60WP", "current_trial": 266, "dateTime": 1512759629952, "trialdata": {"rt": -1000, "stimulus": "/static/audio/wordpool/KNAPSACK.wav", "key_press": -1, "type": "PRES_AUD", "word": "knapsack", "wordID": 782, "conditions": [24, 800, "a", 12000], "trial": 7, "serialpos": 13, "trial_type": "single-audio", "trial_index": 266, "time_elapsed": 2551265, "internal_node_id": "0.0-194.0"}}, {"uniqueid": "MTK0803:3U088ZLJVL0XOUMX25SP3QT93U60WP", "current_trial": 267, "dateTime": 1512759632188, "trialdata": {"rt": -1000, "stimulus": "/static/audio/wordpool/ACTRESS.wav", "key_press": -1, "type": "PRES_AUD", "word": "actress", "wordID": 5, "conditions": [24, 800, "a", 12000], "trial": 7, "serialpos": 14, "trial_type": "single-audio", "trial_index": 267, "time_elapsed": 2553502, "internal_node_id": "0.0-195.0"}}, {"uniqueid": "MTK0803:3U088ZLJVL0XOUMX25SP3QT93U60WP", "current_trial": 268, "dateTime": 1512759635787, "trialdata": {"rt": -1000, "stimulus": "/static/audio/wordpool/ACTOR.wav", "key_press": -1, "type": "PRES_AUD", "word": "actor", "wordID": 4, "conditions": [24, 800, "a", 12000], "trial": 7, "serialpos": 15, "trial_type": "single-audio", "trial_index": 268, "time_elapsed": 2557099, "internal_node_id": "0.0-196.0"}}, {"uniqueid": "MTK0803:3U088ZLJVL0XOUMX25SP3QT93U60WP", "current_trial": 269, "dateTime": 1512759637811, "trialdata": {"rt": -1000, "stimulus": "/static/audio/wordpool/PORK.wav", "key_press": -1, "type": "PRES_AUD", "word": "pork", "wordID": 1107, "conditions": [24, 800, "a", 12000], "trial": 7, "serialpos": 16, "trial_type": "single-audio", "trial_index": 269, "time_elapsed": 2559124, "internal_node_id": "0.0-197.0"}}, {"uniqueid": "MTK0803:3U088ZLJVL0XOUMX25SP3QT93U60WP", "current_trial": 270, "dateTime": 1512759639682, "trialdata": {"rt": -1000, "stimulus": "/static/audio/wordpool/MARROW.wav", "key_press": -1, "type": "PRES_AUD", "word": "marrow", "wordID": 871, "conditions": [24, 800, "a", 12000], "trial": 7, "serialpos": 17, "trial_type": "single-audio", "trial_index": 270, "time_elapsed": 2560995, "internal_node_id": "0.0-198.0"}}, {"uniqueid": "MTK0803:3U088ZLJVL0XOUMX25SP3QT93U60WP", "current_trial": 271, "dateTime": 1512759641497, "trialdata": {"rt": -1000, "stimulus": "/static/audio/wordpool/ITEM.wav", "key_press": -1, "type": "PRES_AUD", "word": "item", "wordID": 745, "conditions": [24, 800, "a", 12000], "trial": 7, "serialpos": 18, "trial_type": "single-audio", "trial_index": 271, "time_elapsed": 2562810, "internal_node_id": "0.0-199.0"}}, {"uniqueid": "MTK0803:3U088ZLJVL0XOUMX25SP3QT93U60WP", "current_trial": 272, "dateTime": 1512759643176, "trialdata": {"rt": -1000, "stimulus": "/static/audio/wordpool/COUSIN.wav", "key_press": -1, "type": "PRES_AUD", "word": "cousin", "wordID": 391, "conditions": [24, 800, "a", 12000], "trial": 7, "serialpos": 19, "trial_type": "single-audio", "trial_index": 272, "time_elapsed": 2564489, "internal_node_id": "0.0-200.0"}}, {"uniqueid": "MTK0803:3U088ZLJVL0XOUMX25SP3QT93U6