{"assignmentId": "3NL0RFNU0GUNSIAHWSWORIPR0QIK4J", "workerId": "MTK1779", "questiondata": {"origin": "United States", "strat-rehearsal": "50", "marital": "Single", "education": "Some college", "ethnicity": "Not Hispanic", "color_depth": 24, "distracted": "No", "wrote-notes": "No", "strat-other": "", "screen_width": 1366, "avail_screen_width": 1366, "avail_screen_height": 768, "strat-image": "100", "language": "English", "gender": "Male", "age": "29", "gender_other": "", "race": ["Black"], "strat-categorize": "70", "pixel_depth": 24, "strat-spatial": "0", "strat-story": "0", "race_other": "", "screen_height": 768}, "bonus": 0, "hitId": "3UZUVSO3P72YNO9JG8GFQXX2KP1ME7", "counterbalance": 1375, "useragent": "Mozilla/5.0 (Windows NT 10.0; Win64; x64) AppleWebKit/537.36 (KHTML, like Gecko) Chrome/63.0.3239.132 Safari/537.36", "eventdata": [{"eventtype": "initialized", "interval": 0, "value": null, "timestamp": 1516298650456}, {"eventtype": "window_resize", "interval": 0, "value": [1362, 713], "timestamp": 1516298650456}, {"eventtype": "window_resize", "interval": 21304, "value": [1366, 717], "timestamp": 1516298671760}, {"eventtype": "focus", "interval": 3393, "value": "off", "timestamp": 1516298675153}, {"eventtype": "focus", "interval": 6648, "value": "on", "timestamp": 1516298681801}, {"eventtype": "focus", "interval": 198766, "value": "off", "timestamp": 1516298880567}, {"eventtype": "focus", "interval": 4813, "value": "on", "timestamp": 1516298885380}, {"eventtype": "focus", "interval": 874878, "value": "off", "timestamp": 1516299760258}, {"eventtype": "focus", "interval": 5588, "value": "on", "timestamp": 1516299765846}, {"eventtype": "focus", "interval": 472400, "value": "off", "timestamp": 1516300238246}, {"eventtype": "focus", "interval": 7414, "value": "on", "timestamp": 1516300245660}, {"eventtype": "focus", "interval": 98485, "value": "off", "timestamp": 1516300344145}, {"eventtype": "focus", "interval": 3489, "value": "on", "timestamp": 1516300347634}, {"eventtype": "focus", "interval": 193012, "value": "off", "timestamp": 1516300540646}, {"eventtype": "focus", "interval": 4614, "value": "on", "timestamp": 1516300545260}, {"eventtype": "focus", "interval": 290970, "value": "off", "timestamp": 1516300836230}, {"eventtype": "focus", "interval": 2111, "value": "on", "timestamp": 1516300838341}, {"eventtype": "focus", "interval": 3951, "value": "off", "timestamp": 1516300842292}, {"eventtype": "focus", "interval": 1840, "value": "on", "timestamp": 1516300844132}, {"eventtype": "focus", "interval": 267404, "value": "off", "timestamp": 1516301111536}, {"eventtype": "focus", "interval": 1382, "value": "on", "timestamp": 1516301112918}, {"eventtype": "focus", "interval": 247121, "value": "off", "timestamp": 1516301360039}, {"eventtype": "focus", "interval": 21740, "value": "on", "timestamp": 1516301381779}, {"eventtype": "focus", "interval": 1104, "value": "off", "timestamp": 1516301382883}, {"eventtype": "focus", "interval": 10892, "value": "on", "timestamp": 1516301393775}, {"eventtype": "focus", "interval": 2, "value": "on", "timestamp": 1516301393777}], "data": [{"current_trial": 0, "trialdata": {"rt": 4038, "trial_type": "text", "internal_node_id": "0.0-0.0", "time_elapsed": 4046, "key_press": 32, "type": "INSTRUCTIONS", "trial_index": 0}, "uniqueid": "MTK1779:3NL0RFNU0GUNSIAHWSWORIPR0QIK4J", "dateTime": 1516298683793}, {"current_trial": 1, "trialdata": {"rt": 19095, "trial_type": "text", "internal_node_id": "0.0-1.0", "time_elapsed": 23157, "key_press": 32, "type": "INSTRUCTIONS", "trial_index": 1}, "uniqueid": "MTK1779:3NL0RFNU0GUNSIAHWSWORIPR0QIK4J", "dateTime": 1516298702900}, {"current_trial": 2, "trialdata": {"rt": [25012], "trial_type": "audio-test", "responses": ["ocean"], "internal_node_id": "0.0-2.0", "time_elapsed": 48240, "type": "AUDIO_TEST", "trial_index": 2}, "uniqueid": "MTK1779:3NL0RFNU0GUNSIAHWSWORIPR0QIK4J", "dateTime": 1516298727983}, {"current_trial": 3, "trialdata": {"rt": [9957], "trial_type": "audio-test", "responses": ["crystal"], "internal_node_id": "0.0-3.0", "time_elapsed": 58214, "type": "AUDIO_TEST", "trial_index": 3}, "uniqueid": "MTK1779:3NL0RFNU0GUNSIAHWSWORIPR0QIK4J", "dateTime": 1516298737956}, {"current_trial": 4, "trialdata": {"rt": [10457], "trial_type": "audio-test", "responses": ["spice"], "internal_node_id": "0.0-4.0", "time_elapsed": 68687, "type": "AUDIO_TEST", "trial_index": 4}, "uniqueid": "MTK1779:3NL0RFNU0GUNSIAHWSWORIPR0QIK4J", "dateTime": 1516298748429}, {"current_trial": 5, "trialdata": {"rt": 46485, "trial_type": "survey-text", "responses": "{\"Q0\":\"1:00am\",\"Q1\":\"5:45am\",\"Q2\":\"5\"}", "internal_node_id": "0.0-5.0", "time_elapsed": 115937, "type": "SLEEP_SURVEY", "trial_index": 5}, "uniqueid": "MTK1779:3NL0RFNU0GUNSIAHWSWORIPR0QIK4J", "dateTime": 1516298795679}, {"current_trial": 6, "trialdata": {"rt": 50996, "trial_type": "text", "internal_node_id": "0.0-6.0", "time_elapsed": 167938, "key_press": 13, "type": "INSTRUCTIONS", "trial_index": 6}, "uniqueid": "MTK1779:3NL0RFNU0GUNSIAHWSWORIPR0QIK4J", "dateTime": 1516298847680}, {"current_trial": 7, "trialdata": {"rt": 27648, "trial_type": "text", "internal_node_id": "0.0-7.0", "time_elapsed": 196090, "key_press": 32, "type": "INSTRUCTIONS", "trial_index": 7}, "uniqueid": "MTK1779:3NL0RFNU0GUNSIAHWSWORIPR0QIK4J", "dateTime": 1516298875832}, {"current_trial": 8, "trialdata": {"rt": 11122, "trial_type": "text", "internal_node_id": "0.0-8.0", "time_elapsed": 207718, "key_press": 32, "type": "INSTRUCTIONS", "trial_index": 8}, "uniqueid": "MTK1779:3NL0RFNU0GUNSIAHWSWORIPR0QIK4J", "dateTime": 1516298887460}, {"current_trial": 9, "trialdata": {"rt": [5633, 12815, 17152], "trial_type": "math-distractor", "key_times": [4703, 4891, 5633, 11998, 12283, 12815, 16724, 17152], "responses": ["12", "15", "7"], "num2": [4, 3, 2, 6], "num3": [1, 9, 2, 8], "conditions": [18, 1200, "a", 18000], "internal_node_id": "0.0-9.0", "key_presses": [49, 50, 13, 49, 53, 13, 55, 13], "trial": 0, "time_elapsed": 226738, "type": "DISTRACTOR", "trial_index": 9, "num1": [7, 3, 3, 6]}, "uniqueid": "MTK1779:3NL0RFNU0GUNSIAHWSWORIPR0QIK4J", "dateTime": 1516298906481}, {"current_trial": 10, "trialdata": {"rt": -1, "trial_type": "single-stim", "stimulus": "<p id=\"stim\">10</p>", "internal_node_id": "0.0-10.0-0.0", "time_elapsed": 229756, "key_press": -1, "trial_index": 10}, "uniqueid": "MTK1779:3NL0RFNU0GUNSIAHWSWORIPR0QIK4J", "dateTime": 1516298909499}, {"current_trial": 11, "trialdata": {"rt": -1, "trial_type": "single-stim", "stimulus": "<p id=\"stim\">9</p>", "internal_node_id": "0.0-10.0-1.0", "time_elapsed": 230762, "key_press": -1, "trial_index": 11}, "uniqueid": "MTK1779:3NL0RFNU0GUNSIAHWSWORIPR0QIK4J", "dateTime": 1516298910504}, {"current_trial": 12, "trialdata": {"rt": -1, "trial_type": "single-stim", "stimulus": "<p id=\"stim\">8</p>", "internal_node_id": "0.0-10.0-2.0", "time_elapsed": 231767, "key_press": -1, "trial_index": 12}, "uniqueid": "MTK1779:3NL0RFNU0GUNSIAHWSWORIPR0QIK4J", "dateTime": 1516298911510}, {"current_trial": 13, "trialdata": {"rt": -1, "trial_type": "single-stim", "stimulus": "<p id=\"stim\">7</p>", "internal_node_id": "0.0-10.0-3.0", "time_elapsed": 232787, "key_press": -1, "trial_index": 13}, "uniqueid": "MTK1779:3NL0RFNU0GUNSIAHWSWORIPR0QIK4J", "dateTime": 1516298912529}, {"current_trial": 14, "trialdata": {"rt": -1, "trial_type": "single-stim", "stimulus": "<p id=\"stim\">6</p>", "internal_node_id": "0.0-10.0-4.0", "time_elapsed": 233789, "key_press": -1, "trial_index": 14}, "uniqueid": "MTK1779:3NL0RFNU0GUNSIAHWSWORIPR0QIK4J", "dateTime": 1516298913532}, {"current_trial": 15, "trialdata": {"rt": -1, "trial_type": "single-stim", "stimulus": "<p id=\"stim\">5</p>", "internal_node_id": "0.0-10.0-5.0", "time_elapsed": 234803, "key_press": -1, "trial_index": 15}, "uniqueid": "MTK1779:3NL0RFNU0GUNSIAHWSWORIPR0QIK4J", "dateTime": 1516298914545}, {"current_trial": 16, "trialdata": {"rt": -1, "trial_type": "single-stim", "stimulus": "<p id=\"stim\">4</p>", "internal_node_id": "0.0-10.0-6.0", "time_elapsed": 235808, "key_press": -1, "trial_index": 16}, "uniqueid": "MTK1779:3NL0RFNU0GUNSIAHWSWORIPR0QIK4J", "dateTime": 1516298915551}, {"current_trial": 17, "trialdata": {"rt": -1, "trial_type": "single-stim", "stimulus": "<p id=\"stim\">3</p>", "internal_node_id": "0.0-10.0-7.0", "time_elapsed": 236816, "key_press": -1, "trial_index": 17}, "uniqueid": "MTK1779:3NL0RFNU0GUNSIAHWSWORIPR0QIK4J", "dateTime": 1516298916558}, {"current_trial": 18, "trialdata": {"rt": -1, "trial_type": "single-stim", "stimulus": "<p id=\"stim\">2</p>", "internal_node_id": "0.0-10.0-8.0", "time_elapsed": 237825, "key_press": -1, "trial_index": 18}, "uniqueid": "MTK1779:3NL0RFNU0GUNSIAHWSWORIPR0QIK4J", "dateTime": 1516298917568}, {"current_trial": 19, "trialdata": {"rt": -1, "trial_type": "single-stim", "stimulus": "<p id=\"stim\">1</p>", "internal_node_id": "0.0-10.0-9.0", "time_elapsed": 238830, "key_press": -1, "trial_index": 19}, "uniqueid": "MTK1779:3NL0RFNU0GUNSIAHWSWORIPR0QIK4J", "dateTime": 1516298918573}, {"current_trial": 20, "trialdata": {"rt": -1, "trial_type": "single-stim", "stimulus": "<p id=\"stim\">+</p>", "internal_node_id": "0.0-11.0-0.0", "time_elapsed": 240334, "key_press": -1, "type": "FIXATION", "trial_index": 20}, "uniqueid": "MTK1779:3NL0RFNU0GUNSIAHWSWORIPR0QIK4J", "dateTime": 1516298920078}, {"current_trial": 21, "trialdata": {"rt": -1000, "trial_type": "single-audio", "word": "friend", "stimulus": "/static/audio/wordpool/FRIEND.wav", "conditions": [18, 1200, "a", 18000], "internal_node_id": "0.0-12.0", "trial": 0, "time_elapsed": 242555, "serialpos": 0, "key_press": -1, "wordID": 605, "type": "PRES_AUD", "trial_index": 21}, "uniqueid": "MTK1779:3NL0RFNU0GUNSIAHWSWORIPR0QIK4J", "dateTime": 1516298922297}, {"current_trial": 22, "trialdata": {"rt": -1000, "trial_type": "single-audio", "word": "partner", "stimulus": "/static/audio/wordpool/PARTNER.wav", "conditions": [18, 1200, "a", 18000], "internal_node_id": "0.0-13.0", "trial": 0, "time_elapsed": 244907, "serialpos": 1, "key_press": -1, "wordID": 1016, "type": "PRES_AUD", "trial_index": 22}, "uniqueid": "MTK1779:3NL0RFNU0GUNSIAHWSWORIPR0QIK4J", "dateTime": 1516298924649}, {"current_trial": 23, "trialdata": {"rt": -1000, "trial_type": "single-audio", "word": "relish", "stimulus": "/static/audio/wordpool/RELISH.wav", "conditions": [18, 1200, "a", 18000], "internal_node_id": "0.0-14.0", "trial": 0, "time_elapsed": 247050, "serialpos": 2, "key_press": -1, "wordID": 1182, "type": "PRES_AUD", "trial_index": 23}, "uniqueid": "MTK1779:3NL0RFNU0GUNSIAHWSWORIPR0QIK4J", "dateTime": 1516298926792}, {"current_trial": 24, "trialdata": {"rt": -1000, "trial_type": "single-audio", "word": "breast", "stimulus": "/static/audio/wordpool/BREAST.wav", "conditions": [18, 1200, "a", 18000], "internal_node_id": "0.0-15.0", "trial": 0, "time_elapsed": 249120, "serialpos": 3, "key_press": -1, "wordID": 170, "type": "PRES_AUD", "trial_index": 24}, "uniqueid": "MTK1779:3NL0RFNU0GUNSIAHWSWORIPR0QIK4J", "dateTime": 1516298928862}, {"current_trial": 25, "trialdata": {"rt": -1000, "trial_type": "single-audio", "word": "bug", "stimulus": "/static/audio/wordpool/BUG.wav", "conditions": [18, 1200, "a", 18000], "internal_node_id": "0.0-16.0", "trial": 0, "time_elapsed": 251196, "serialpos": 4, "key_press": -1, "wordID": 186, "type": "PRES_AUD", "trial_index": 25}, "uniqueid": "MTK1779:3NL0RFNU0GUNSIAHWSWORIPR0QIK4J", "dateTime": 1516298930939}, {"current_trial": 26, "trialdata": {"rt": -1000, "trial_type": "single-audio", "word": "island", "stimulus": "/static/audio/wordpool/ISLAND.wav", "conditions": [18, 1200, "a", 18000], "internal_node_id": "0.0-17.0", "trial": 0, "time_elapsed": 253299, "serialpos": 5, "key_press": -1, "wordID": 744, "type": "PRES_AUD", "trial_index": 26}, "uniqueid": "MTK1779:3NL0RFNU0GUNSIAHWSWORIPR0QIK4J", "dateTime": 1516298933042}, {"current_trial": 27, "trialdata": {"rt": -1000, "trial_type": "single-audio", "word": "baby", "stimulus": "/static/audio/wordpool/BABY.wav", "conditions": [18, 1200, "a", 18000], "internal_node_id": "0.0-18.0", "trial": 0, "time_elapsed": 255492, "serialpos": 6, "key_press": -1, "wordID": 63, "type": "PRES_AUD", "trial_index": 27}, "uniqueid": "MTK1779:3NL0RFNU0GUNSIAHWSWORIPR0QIK4J", "dateTime": 1516298935234}, {"current_trial": 28, "trialdata": {"rt": -1000, "trial_type": "single-audio", "word": "hound", "stimulus": "/static/audio/wordpool/HOUND.wav", "conditions": [18, 1200, "a", 18000], "internal_node_id": "0.0-19.0", "trial": 0, "time_elapsed": 257501, "serialpos": 7, "key_press": -1, "wordID": 723, "type": "PRES_AUD", "trial_index": 28}, "uniqueid": "MTK1779:3NL0RFNU0GUNSIAHWSWORIPR0QIK4J", "dateTime": 1516298937243}, {"current_trial": 29, "trialdata": {"rt": -1000, "trial_type": "single-audio", "word": "bucket", "stimulus": "/static/audio/wordpool/BUCKET.wav", "conditions": [18, 1200, "a", 18000], "internal_node_id": "0.0-20.0", "trial": 0, "time_elapsed": 259691, "serialpos": 8, "key_press": -1, "wordID": 183, "type": "PRES_AUD", "trial_index": 29}, "uniqueid": "MTK1779:3NL0RFNU0GUNSIAHWSWORIPR0QIK4J", "dateTime": 1516298939433}, {"current_trial": 30, "trialdata": {"rt": -1000, "trial_type": "single-audio", "word": "handbag", "stimulus": "/static/audio/wordpool/HANDBAG.wav", "conditions": [18, 1200, "a", 18000], "internal_node_id": "0.0-21.0", "trial": 0, "time_elapsed": 261903, "serialpos": 9, "key_press": -1, "wordID": 683, "type": "PRES_AUD", "trial_index": 30}, "uniqueid": "MTK1779:3NL0RFNU0GUNSIAHWSWORIPR0QIK4J", "dateTime": 1516298941645}, {"current_trial": 31, "trialdata": {"rt": -1000, "trial_type": "single-audio", "word": "cottage", "stimulus": "/static/audio/wordpool/COTTAGE.wav", "conditions": [18, 1200, "a", 18000], "internal_node_id": "0.0-22.0", "trial": 0, "time_elapsed": 264143, "serialpos": 10, "key_press": -1, "wordID": 383, "type": "PRES_AUD", "trial_index": 31}, "uniqueid": "MTK1779:3NL0RFNU0GUNSIAHWSWORIPR0QIK4J", "dateTime": 1516298943885}, {"current_trial": 32, "trialdata": {"rt": -1000, "trial_type": "single-audio", "word": "survey", "stimulus": "/static/audio/wordpool/SURVEY.wav", "conditions": [18, 1200, "a", 18000], "internal_node_id": "0.0-23.0", "trial": 0, "time_elapsed": 266468, "serialpos": 11, "key_press": -1, "wordID": 1413, "type": "PRES_AUD", "trial_index": 32}, "uniqueid": "MTK1779:3NL0RFNU0GUNSIAHWSWORIPR0QIK4J", "dateTime": 1516298946210}, {"current_trial": 33, "trialdata": {"rt": -1000, "trial_type": "single-audio", "word": "waitress", "stimulus": "/static/audio/wordpool/WAITRESS.wav", "conditions": [18, 1200, "a", 18000], "internal_node_id": "0.0-24.0", "trial": 0, "time_elapsed": 268661, "serialpos": 12, "key_press": -1, "wordID": 1580, "type": "PRES_AUD", "trial_index": 33}, "uniqueid": "MTK1779:3NL0RFNU0GUNSIAHWSWORIPR0QIK4J", "dateTime": 1516298948404}, {"current_trial": 34, "trialdata": {"rt": -1000, "trial_type": "single-audio", "word": "donkey", "stimulus": "/static/audio/wordpool/DONKEY.wav", "conditions": [18, 1200, "a", 18000], "internal_node_id": "0.0-25.0", "trial": 0, "time_elapsed": 270842, "serialpos": 13, "key_press": -1, "wordID": 483, "type": "PRES_AUD", "trial_index": 34}, "uniqueid": "MTK1779:3NL0RFNU0GUNSIAHWSWORIPR0QIK4J", "dateTime": 1516298950584}, {"current_trial": 35, "trialdata": {"rt": -1000, "trial_type": "single-audio", "word": "blueprint", "stimulus": "/static/audio/wordpool/BLUEPRINT.wav", "conditions": [18, 1200, "a", 18000], "internal_node_id": "0.0-26.0", "trial": 0, "time_elapsed": 272866, "serialpos": 14, "key_press": -1, "wordID": 141, "type": "PRES_AUD", "trial_index": 35}, "uniqueid": "MTK1779:3NL0RFNU0GUNSIAHWSWORIPR0QIK4J", "dateTime": 1516298952609}, {"current_trial": 36, "trialdata": {"rt": -1000, "trial_type": "single-audio", "word": "bacon", "stimulus": "/static/audio/wordpool/BACON.wav", "conditions": [18, 1200, "a", 18000], "internal_node_id": "0.0-27.0", "trial": 0, "time_elapsed": 275148, "serialpos": 15, "key_press": -1, "wordID": 66, "type": "PRES_AUD", "trial_index": 36}, "uniqueid": "MTK1779:3NL0RFNU0GUNSIAHWSWORIPR0QIK4J", "dateTime": 1516298954890}, {"current_trial": 37, "trialdata": {"rt": -1000, "trial_type": "single-audio", "word": "lady", "stimulus": "/static/audio/wordpool/LADY.wav", "conditions": [18, 1200, "a", 18000], "internal_node_id": "0.0-28.0", "trial": 0, "time_elapsed": 277453, "serialpos": 16, "key_press": -1, "wordID": 793, "type": "PRES_AUD", "trial_index": 37}, "uniqueid": "MTK1779:3NL0RFNU0GUNSIAHWSWORIPR0QIK4J", "dateTime": 1516298957196}, {"current_trial": 38, "trialdata": {"rt": -1000, "trial_type": "single-audio", "word": "typist", "stimulus": "/static/audio/wordpool/TYPIST.wav", "conditions": [18, 1200, "a", 18000], "internal_node_id": "0.0-29.0", "trial": 0, "time_elapsed": 279537, "serialpos": 17, "key_press": -1, "wordID": 1531, "type": "PRES_AUD", "trial_index": 38}, "uniqueid": "MTK1779:3NL0RFNU0GUNSIAHWSWORIPR0QIK4J", "dateTime": 1516298959282}, {"current_trial": 39, "trialdata": {"rt": -1, "trial_type": "single-stim", "stimulus": "", "internal_node_id": "0.0-30.0-0.0", "time_elapsed": 280760, "key_press": -1, "type": "PRE_RECALL_DELAY", "trial_index": 39}, "uniqueid": "MTK1779:3NL0RFNU0GUNSIAHWSWORIPR0QIK4J", "dateTime": 1516298960502}, {"current_trial": 40, "trialdata": {"rt": -1000, "trial_type": "single-audio", "stimulus": "/static/audio/400Hz.wav", "internal_node_id": "0.0-31.0", "time_elapsed": 281267, "key_press": -1, "type": "PRE_RECALL_ALERT", "trial_index": 40}, "uniqueid": "MTK1779:3NL0RFNU0GUNSIAHWSWORIPR0QIK4J", "dateTime": 1516298961009}, {"current_trial": 41, "trialdata": {"rt": [3617, 5845, 8429, 11045, 13300, 16673, 18312, 23899, 25655, 27696, 30893, 32472, 34165], "recwords": ["typist", "baby", "relish", "friend", "partner", "handbag", "lady", "blueprint", "baby", "island", "cottage", "horse", "bug"], "key_times": [1234, 1380, 1590, 2194, 2444, 2537, 2754, 3617, 4319, 4484, 4663, 4811, 5400, 5845, 6189, 6402, 6957, 7222, 7426, 7529, 7703, 8429, 9327, 9516, 9732, 9931, 10079, 10651, 10794, 11045, 11428, 11740, 11952, 12327, 12537, 12806, 12907, 13069, 13300, 13846, 14403, 14435, 14467, 14499, 14517, 14721, 14847, 15034, 15436, 15633, 15910, 16673, 17168, 17330, 17513, 17740, 17922, 18312, 19180, 19690, 20220, 20471, 20711, 22470, 22627, 22787, 23128, 23274, 23899, 24570, 24706, 24890, 24962, 25220, 25655, 26714, 26856, 27028, 27135, 27309, 27500, 27696, 28584, 28868, 29099, 29255, 29434, 29607, 30002, 30194, 30893, 31326, 31510, 31699, 31782, 32068, 32240, 32472, 33063, 33203, 33583, 33717, 34165], "trial_type": "free-recall", "conditions": [18, 1200, "a", 18000], "internal_node_id": "0.0-32.0-0.0", "key_presses": [16, 84, 89, 80, 73, 83, 84, 13, 16, 66, 65, 66, 89, 13, 16, 82, 69, 76, 73, 83, 72, 13, 16, 70, 82, 73, 69, 78, 68, 13, 16, 80, 65, 82, 84, 78, 69, 82, 13, 16, 16, 16, 16, 16, 72, 65, 78, 68, 66, 65, 71, 13, 16, 76, 65, 68, 89, 13, 16, 66, 76, 85, 69, 80, 82, 73, 78, 84, 13, 16, 66, 65, 66, 89, 13, 73, 83, 76, 65, 78, 68, 13, 16, 67, 79, 84, 84, 65, 71, 69, 13, 16, 72, 79, 82, 83, 69, 13, 16, 66, 85, 71, 13], "trial": 0, "time_elapsed": 341288, "type": "FREE_RECALL", "trial_index": 41}, "uniqueid": "MTK1779:3NL0RFNU0GUNSIAHWSWORIPR0QIK4J", "dateTime": 1516299021079}, {"current_trial": 42, "trialdata": {"rt": 1780, "trial_type": "text", "internal_node_id": "0.0-33.0", "time_elapsed": 345120, "key_press": 13, "type": "INSTRUCTIONS", "trial_index": 42}, "uniqueid": "MTK1779:3NL0RFNU0GUNSIAHWSWORIPR0QIK4J", "dateTime": 1516299024863}, {"current_trial": 43, "trialdata": {"rt": [3584, 6343, 12959], "trial_type": "math-distractor", "key_times": [2693, 3181, 3584, 5937, 6343, 12104, 12495, 12959, 17792], "responses": ["13", "5", "19"], "num2": [9, 1, 7, 3], "num3": [3, 1, 6, 8], "conditions": [18, 1200, "a", 18000], "internal_node_id": "0.0-34.0", "key_presses": [49, 51, 13, 53, 13, 49, 57, 13, 49], "trial": 1, "time_elapsed": 365133, "type": "DISTRACTOR", "trial_index": 43, "num1": [1, 3, 6, 2]}, "uniqueid": "MTK1779:3NL0RFNU0GUNSIAHWSWORIPR0QIK4J", "dateTime": 1516299044876}, {"current_trial": 44, "trialdata": {"rt": -1, "trial_type": "single-stim", "stimulus": "<p id=\"stim\">10</p>", "internal_node_id": "0.0-35.0-0.0", "time_elapsed": 368140, "key_press": -1, "trial_index": 44}, "uniqueid": "MTK1779:3NL0RFNU0GUNSIAHWSWORIPR0QIK4J", "dateTime": 1516299047883}, {"current_trial": 45, "trialdata": {"rt": -1, "trial_type": "single-stim", "stimulus": "<p id=\"stim\">9</p>", "internal_node_id": "0.0-35.0-1.0", "time_elapsed": 369149, "key_press": -1, "trial_index": 45}, "uniqueid": "MTK1779:3NL0RFNU0GUNSIAHWSWORIPR0QIK4J", "dateTime": 1516299048892}, {"current_trial": 46, "trialdata": {"rt": -1, "trial_type": "single-stim", "stimulus": "<p id=\"stim\">8</p>", "internal_node_id": "0.0-35.0-2.0", "time_elapsed": 370155, "key_press": -1, "trial_index": 46}, "uniqueid": "MTK1779:3NL0RFNU0GUNSIAHWSWORIPR0QIK4J", "dateTime": 1516299049899}, {"current_trial": 47, "trialdata": {"rt": -1, "trial_type": "single-stim", "stimulus": "<p id=\"stim\">7</p>", "internal_node_id": "0.0-35.0-3.0", "time_elapsed": 371162, "key_press": -1, "trial_index": 47}, "uniqueid": "MTK1779:3NL0RFNU0GUNSIAHWSWORIPR0QIK4J", "dateTime": 1516299050905}, {"current_trial": 48, "trialdata": {"rt": -1, "trial_type": "single-stim", "stimulus": "<p id=\"stim\">6</p>", "internal_node_id": "0.0-35.0-4.0", "time_elapsed": 372172, "key_press": -1, "trial_index": 48}, "uniqueid": "MTK1779:3NL0RFNU0GUNSIAHWSWORIPR0QIK4J", "dateTime": 1516299051917}, {"current_trial": 49, "trialdata": {"rt": -1, "trial_type": "single-stim", "stimulus": "<p id=\"stim\">5</p>", "internal_node_id": "0.0-35.0-5.0", "time_elapsed": 373191, "key_press": -1, "trial_index": 49}, "uniqueid": "MTK1779:3NL0RFNU0GUNSIAHWSWORIPR0QIK4J", "dateTime": 1516299052934}, {"current_trial": 50, "trialdata": {"rt": -1, "trial_type": "single-stim", "stimulus": "<p id=\"stim\">4</p>", "internal_node_id": "0.0-35.0-6.0", "time_elapsed": 374217, "key_press": -1, "trial_index": 50}, "uniqueid": "MTK1779:3NL0RFNU0GUNSIAHWSWORIPR0QIK4J", "dateTime": 1516299053959}, {"current_trial": 51, "trialdata": {"rt": -1, "trial_type": "single-stim", "stimulus": "<p id=\"stim\">3</p>", "internal_node_id": "0.0-35.0-7.0", "time_elapsed": 375222, "key_press": -1, "trial_index": 51}, "uniqueid": "MTK1779:3NL0RFNU0GUNSIAHWSWORIPR0QIK4J", "dateTime": 1516299054965}, {"current_trial": 52, "trialdata": {"rt": -1, "trial_type": "single-stim", "stimulus": "<p id=\"stim\">2</p>", "internal_node_id": "0.0-35.0-8.0", "time_elapsed": 376254, "key_press": -1, "trial_index": 52}, "uniqueid": "MTK1779:3NL0RFNU0GUNSIAHWSWORIPR0QIK4J", "dateTime": 1516299055996}, {"current_trial": 53, "trialdata": {"rt": -1, "trial_type": "single-stim", "stimulus": "<p id=\"stim\">1</p>", "internal_node_id": "0.0-35.0-9.0", "time_elapsed": 377268, "key_press": -1, "trial_index": 53}, "uniqueid": "MTK1779:3NL0RFNU0GUNSIAHWSWORIPR0QIK4J", "dateTime": 1516299057011}, {"current_trial": 54, "trialdata": {"rt": -1, "trial_type": "single-stim", "stimulus": "<p id=\"stim\">+</p>", "internal_node_id": "0.0-36.0-0.0", "time_elapsed": 378774, "key_press": -1, "type": "FIXATION", "trial_index": 54}, "uniqueid": "MTK1779:3NL0RFNU0GUNSIAHWSWORIPR0QIK4J", "dateTime": 1516299058517}, {"current_trial": 55, "trialdata": {"rt": -1000, "trial_type": "single-audio", "word": "flower", "stimulus": "/static/audio/wordpool/FLOWER.wav", "conditions": [18, 1200, "a", 18000], "internal_node_id": "0.0-37.0", "trial": 1, "time_elapsed": 380902, "serialpos": 0, "key_press": -1, "wordID": 583, "type": "PRES_AUD", "trial_index": 55}, "uniqueid": "MTK1779:3NL0RFNU0GUNSIAHWSWORIPR0QIK4J", "dateTime": 1516299060644}, {"current_trial": 56, "trialdata": {"rt": -1000, "trial_type": "single-audio", "word": "pigment", "stimulus": "/static/audio/wordpool/PIGMENT.wav", "conditions": [18, 1200, "a", 18000], "internal_node_id": "0.0-38.0", "trial": 1, "time_elapsed": 383014, "serialpos": 1, "key_press": -1, "wordID": 1065, "type": "PRES_AUD", "trial_index": 56}, "uniqueid": "MTK1779:3NL0RFNU0GUNSIAHWSWORIPR0QIK4J", "dateTime": 1516299062756}, {"current_trial": 57, "trialdata": {"rt": -1000, "trial_type": "single-audio", "word": "panther", "stimulus": "/static/audio/wordpool/PANTHER.wav", "conditions": [18, 1200, "a", 18000], "internal_node_id": "0.0-39.0", "trial": 1, "time_elapsed": 385062, "serialpos": 2, "key_press": -1, "wordID": 1008, "type": "PRES_AUD", "trial_index": 57}, "uniqueid": "MTK1779:3NL0RFNU0GUNSIAHWSWORIPR0QIK4J", "dateTime": 1516299064805}, {"current_trial": 58, "trialdata": {"rt": -1000, "trial_type": "single-audio", "word": "cabbage", "stimulus": "/static/audio/wordpool/CABBAGE.wav", "conditions": [18, 1200, "a", 18000], "internal_node_id": "0.0-40.0", "trial": 1, "time_elapsed": 387245, "serialpos": 3, "key_press": -1, "wordID": 209, "type": "PRES_AUD", "trial_index": 58}, "uniqueid": "MTK1779:3NL0RFNU0GUNSIAHWSWORIPR0QIK4J", "dateTime": 1516299066988}, {"current_trial": 59, "trialdata": {"rt": -1000, "trial_type": "single-audio", "word": "sheriff", "stimulus": "/static/audio/wordpool/SHERIFF.wav", "conditions": [18, 1200, "a", 18000], "internal_node_id": "0.0-41.0", "trial": 1, "time_elapsed": 389281, "serialpos": 4, "key_press": -1, "wordID": 1283, "type": "PRES_AUD", "trial_index": 59}, "uniqueid": "MTK1779:3NL0RFNU0GUNSIAHWSWORIPR0QIK4J", "dateTime": 1516299069024}, {"current_trial": 60, "trialdata": {"rt": -1000, "trial_type": "single-audio", "word": "tourist", "stimulus": "/static/audio/wordpool/TOURIST.wav", "conditions": [18, 1200, "a", 18000], "internal_node_id": "0.0-42.0", "trial": 1, "time_elapsed": 391352, "serialpos": 5, "key_press": -1, "wordID": 1487, "type": "PRES_AUD", "trial_index": 60}, "uniqueid": "MTK1779:3NL0RFNU0GUNSIAHWSWORIPR0QIK4J", "dateTime": 1516299071095}, {"current_trial": 61, "trialdata": {"rt": -1000, "trial_type": "single-audio", "word": "victim", "stimulus": "/static/audio/wordpool/VICTIM.wav", "conditions": [18, 1200, "a", 18000], "internal_node_id": "0.0-43.0", "trial": 1, "time_elapsed": 393734, "serialpos": 6, "key_press": -1, "wordID": 1561, "type": "PRES_AUD", "trial_index": 61}, "uniqueid": "MTK1779:3NL0RFNU0GUNSIAHWSWORIPR0QIK4J", "dateTime": 1516299073477}, {"current_trial": 62, "trialdata": {"rt": -1000, "trial_type": "single-audio", "word": "diner", "stimulus": "/static/audio/wordpool/DINER.wav", "conditions": [18, 1200, "a", 18000], "internal_node_id": "0.0-44.0", "trial": 1, "time_elapsed": 396051, "serialpos": 7, "key_press": -1, "wordID": 466, "type": "PRES_AUD", "trial_index": 62}, "uniqueid": "MTK1779:3NL0RFNU0GUNSIAHWSWORIPR0QIK4J", "dateTime": 1516299075793}, {"current_trial": 63, "trialdata": {"rt": -1000, "trial_type": "single-audio", "word": "server", "stimulus": "/static/audio/wordpool/SERVER.wav", "conditions": [18, 1200, "a", 18000], "internal_node_id": "0.0-45.0", "trial": 1, "time_elapsed": 398227, "serialpos": 8, "key_press": -1, "wordID": 1271, "type": "PRES_AUD", "trial_index": 63}, "uniqueid": "MTK1779:3NL0RFNU0GUNSIAHWSWORIPR0QIK4J", "dateTime": 1516299077974}, {"current_trial": 64, "trialdata": {"rt": -1000, "trial_type": "single-audio", "word": "rust", "stimulus": "/static/audio/wordpool/RUST.wav", "conditions": [18, 1200, "a", 18000], "internal_node_id": "0.0-46.0", "trial": 1, "time_elapsed": 400588, "serialpos": 9, "key_press": -1, "wordID": 1218, "type": "PRES_AUD", "trial_index": 64}, "uniqueid": "MTK1779:3NL0RFNU0GUNSIAHWSWORIPR0QIK4J", "dateTime": 1516299080330}, {"current_trial": 65, "trialdata": {"rt": -1000, "trial_type": "single-audio", "word": "velvet", "stimulus": "/static/audio/wordpool/VELVET.wav", "conditions": [18, 1200, "a", 18000], "internal_node_id": "0.0-47.0", "trial": 1, "time_elapsed": 402855, "serialpos": 10, "key_press": -1, "wordID": 1554, "type": "PRES_AUD", "trial_index": 65}, "uniqueid": "MTK1779:3NL0RFNU0GUNSIAHWSWORIPR0QIK4J", "dateTime": 1516299082598}, {"current_trial": 66, "trialdata": {"rt": -1000, "trial_type": "single-audio", "word": "crayon", "stimulus": "/static/audio/wordpool/CRAYON.wav", "conditions": [18, 1200, "a", 18000], "internal_node_id": "0.0-48.0", "trial": 1, "time_elapsed": 404965, "serialpos": 11, "key_press": -1, "wordID": 400, "type": "PRES_AUD", "trial_index": 66}, "uniqueid": "MTK1779:3NL0RFNU0GUNSIAHWSWORIPR0QIK4J", "dateTime": 1516299084708}, {"current_trial": 67, "trialdata": {"rt": -1000, "trial_type": "single-audio", "word": "dolphin", "stimulus": "/static/audio/wordpool/DOLPHIN.wav", "conditions": [18, 1200, "a", 18000], "internal_node_id": "0.0-49.0", "trial": 1, "time_elapsed": 407346, "serialpos": 12, "key_press": -1, "wordID": 482, "type": "PRES_AUD", "trial_index": 67}, "uniqueid": "MTK1779:3NL0RFNU0GUNSIAHWSWORIPR0QIK4J", "dateTime": 1516299087089}, {"current_trial": 68, "trialdata": {"rt": -1000, "trial_type": "single-audio", "word": "woman", "stimulus": "/static/audio/wordpool/WOMAN.wav", "conditions": [18, 1200, "a", 18000], "internal_node_id": "0.0-50.0", "trial": 1, "time_elapsed": 409666, "serialpos": 13, "key_press": -1, "wordID": 1619, "type": "PRES_AUD", "trial_index": 68}, "uniqueid": "MTK1779:3NL0RFNU0GUNSIAHWSWORIPR0QIK4J", "dateTime": 1516299089432}, {"current_trial": 69, "trialdata": {"rt": -1000, "trial_type": "single-audio", "word": "transplant", "stimulus": "/static/audio/wordpool/TRANSPLANT.wav", "conditions": [18, 1200, "a", 18000], "internal_node_id": "0.0-51.0", "trial": 1, "time_elapsed": 411745, "serialpos": 14, "key_press": -1, "wordID": 1495, "type": "PRES_AUD", "trial_index": 69}, "uniqueid": "MTK1779:3NL0RFNU0GUNSIAHWSWORIPR0QIK4J", "dateTime": 1516299091487}, {"current_trial": 70, "trialdata": {"rt": -1000, "trial_type": "single-audio", "word": "airport", "stimulus": "/static/audio/wordpool/AIRPORT.wav", "conditions": [18, 1200, "a", 18000], "internal_node_id": "0.0-52.0", "trial": 1, "time_elapsed": 414141, "serialpos": 15, "key_press": -1, "wordID": 12, "type": "PRES_AUD", "trial_index": 70}, "uniqueid": "MTK1779:3NL0RFNU0GUNSIAHWSWORIPR0QIK4J", "dateTime": 1516299093884}, {"current_trial": 71, "trialdata": {"rt": -1000, "trial_type": "single-audio", "word": "proton", "stimulus": "/static/audio/wordpool/PROTON.wav", "conditions": [18, 1200, "a", 18000], "internal_node_id": "0.0-53.0", "trial": 1, "time_elapsed": 416472, "serialpos": 16, "key_press": -1, "wordID": 1131, "type": "PRES_AUD", "trial_index": 71}, "uniqueid": "MTK1779:3NL0RFNU0GUNSIAHWSWORIPR0QIK4J", "dateTime": 1516299096214}, {"current_trial": 72, "trialdata": {"rt": -1000, "trial_type": "single-audio", "word": "driver", "stimulus": "/static/audio/wordpool/DRIVER.wav", "conditions": [18, 1200, "a", 18000], "internal_node_id": "0.0-54.0", "trial": 1, "time_elapsed": 418719, "serialpos": 17, "key_press": -1, "wordID": 498, "type": "PRES_AUD", "trial_index": 72}, "uniqueid": "MTK1779:3NL0RFNU0GUNSIAHWSWORIPR0QIK4J", "dateTime": 1516299098461}, {"current_trial": 73, "trialdata": {"rt": -1, "trial_type": "single-stim", "stimulus": "", "internal_node_id": "0.0-55.0-0.0", "time_elapsed": 419959, "key_press": -1, "type": "PRE_RECALL_DELAY", "trial_index": 73}, "uniqueid": "MTK1779:3NL0RFNU0GUNSIAHWSWORIPR0QIK4J", "dateTime": 1516299099702}, {"current_trial": 74, "trialdata": {"rt": -1000, "trial_type": "single-audio", "stimulus": "/static/audio/400Hz.wav", "internal_node_id": "0.0-56.0", "time_elapsed": 420463, "key_press": -1, "type": "PRE_RECALL_ALERT", "trial_index": 74}, "uniqueid": "MTK1779:3NL0RFNU0GUNSIAHWSWORIPR0QIK4J", "dateTime": 1516299100205}, {"current_trial": 75, "trialdata": {"rt": [3498, 5246, 8400, 11598, 13188, 14650, 17585, 20056, 21984, 23882, 27985, 31069, 33461, 37796, 43362], "recwords": ["airport", "driver", "proton", "transplant", "woman", "rust", "velvet", "pigmant", "flower", "panther", "crayon", "diner", "server", "sheriff", "victim"], "key_times": [1279, 1466, 1595, 1840, 2095, 2217, 3127, 3498, 4050, 4273, 4432, 4668, 4857, 5032, 5246, 6080, 6533, 6952, 7083, 7225, 7461, 8400, 8988, 9190, 9444, 9614, 9744, 10749, 10995, 11162, 11274, 11424, 11598, 12313, 12425, 12619, 12745, 12891, 13188, 13895, 14082, 14202, 14413, 14650, 15301, 15496, 15644, 15788, 16526, 16693, 16860, 17166, 17585, 18163, 18615, 18773, 18996, 19592, 19701, 19831, 20056, 20932, 21020, 21217, 21349, 21651, 21833, 21984, 22707, 22985, 23104, 23278, 23424, 23542, 23670, 23882, 26564, 26752, 26933, 27120, 27398, 27651, 27985, 30255, 30392, 30606, 30673, 30841, 31069, 31583, 31775, 31918, 32880, 33074, 33231, 33461, 36194, 36350, 36469, 36652, 36898, 37182, 37353, 37796, 40699, 40887, 40987, 41936, 42332, 42476, 42667, 42916, 43362], "trial_type": "free-recall", "conditions": [18, 1200, "a", 18000], "internal_node_id": "0.0-57.0-0.0", "key_presses": [65, 73, 82, 80, 79, 82, 84, 13, 68, 82, 73, 86, 69, 82, 13, 80, 82, 79, 84, 79, 78, 13, 84, 82, 65, 78, 83, 80, 76, 65, 78, 84, 13, 87, 79, 77, 65, 78, 13, 82, 85, 83, 84, 13, 86, 69, 76, 69, 8, 86, 69, 84, 13, 80, 73, 71, 77, 65, 78, 84, 13, 70, 76, 79, 87, 69, 82, 13, 80, 65, 78, 84, 72, 69, 82, 13, 67, 82, 65, 89, 79, 78, 13, 68, 73, 78, 69, 82, 13, 83, 69, 82, 86, 69, 82, 13, 83, 72, 69, 82, 73, 70, 70, 32, 86, 73, 67, 73, 8, 84, 73, 77, 13], "trial": 1, "time_elapsed": 480471, "type": "FREE_RECALL", "trial_index": 75}, "uniqueid": "MTK1779:3NL0RFNU0GUNSIAHWSWORIPR0QIK4J", "dateTime": 1516299160219}, {"current_trial": 76, "trialdata": {"rt": 3263, "trial_type": "text", "internal_node_id": "0.0-58.0", "time_elapsed": 485746, "key_press": 13, "type": "INSTRUCTIONS", "trial_index": 76}, "uniqueid": "MTK1779:3NL0RFNU0GUNSIAHWSWORIPR0QIK4J", "dateTime": 1516299165488}, {"current_trial": 77, "trialdata": {"rt": [5931, 9003], "trial_type": "math-distractor", "key_times": [5475, 5707, 5931, 8691, 9003], "responses": ["13", "8"], "num2": [7, 1, 2], "num3": [1, 6, 7], "conditions": [12, 800, "a", 12000], "internal_node_id": "0.0-59.0", "key_presses": [49, 51, 13, 56, 13], "trial": 2, "time_elapsed": 498789, "type": "DISTRACTOR", "trial_index": 77, "num1": [5, 1, 1]}, "uniqueid": "MTK1779:3NL0RFNU0GUNSIAHWSWORIPR0QIK4J", "dateTime": 1516299178531}, {"current_trial": 78, "trialdata": {"rt": -1, "trial_type": "single-stim", "stimulus": "<p id=\"stim\">10</p>", "internal_node_id": "0.0-60.0-0.0", "time_elapsed": 501794, "key_press": -1, "trial_index": 78}, "uniqueid": "MTK1779:3NL0RFNU0GUNSIAHWSWORIPR0QIK4J", "dateTime": 1516299181536}, {"current_trial": 79, "trialdata": {"rt": -1, "trial_type": "single-stim", "stimulus": "<p id=\"stim\">9</p>", "internal_node_id": "0.0-60.0-1.0", "time_elapsed": 502797, "key_press": -1, "trial_index": 79}, "uniqueid": "MTK1779:3NL0RFNU0GUNSIAHWSWORIPR0QIK4J", "dateTime": 1516299182539}, {"current_trial": 80, "trialdata": {"rt": -1, "trial_type": "single-stim", "stimulus": "<p id=\"stim\">8</p>", "internal_node_id": "0.0-60.0-2.0", "time_elapsed": 503801, "key_press": -1, "trial_index": 80}, "uniqueid": "MTK1779:3NL0RFNU0GUNSIAHWSWORIPR0QIK4J", "dateTime": 1516299183543}, {"current_trial": 81, "trialdata": {"rt": -1, "trial_type": "single-stim", "stimulus": "<p id=\"stim\">7</p>", "internal_node_id": "0.0-60.0-3.0", "time_elapsed": 504804, "key_press": -1, "trial_index": 81}, "uniqueid": "MTK1779:3NL0RFNU0GUNSIAHWSWORIPR0QIK4J", "dateTime": 1516299184547}, {"current_trial": 82, "trialdata": {"rt": -1, "trial_type": "single-stim", "stimulus": "<p id=\"stim\">6</p>", "internal_node_id": "0.0-60.0-4.0", "time_elapsed": 505811, "key_press": -1, "trial_index": 82}, "uniqueid": "MTK1779:3NL0RFNU0GUNSIAHWSWORIPR0QIK4J", "dateTime": 1516299185553}, {"current_trial": 83, "trialdata": {"rt": -1, "trial_type": "single-stim", "stimulus": "<p id=\"stim\">5</p>", "internal_node_id": "0.0-60.0-5.0", "time_elapsed": 506814, "key_press": -1, "trial_index": 83}, "uniqueid": "MTK1779:3NL0RFNU0GUNSIAHWSWORIPR0QIK4J", "dateTime": 1516299186556}, {"current_trial": 84, "trialdata": {"rt": -1, "trial_type": "single-stim", "stimulus": "<p id=\"stim\">4</p>", "internal_node_id": "0.0-60.0-6.0", "time_elapsed": 507816, "key_press": -1, "trial_index": 84}, "uniqueid": "MTK1779:3NL0RFNU0GUNSIAHWSWORIPR0QIK4J", "dateTime": 1516299187558}, {"current_trial": 85, "trialdata": {"rt": -1, "trial_type": "single-stim", "stimulus": "<p id=\"stim\">3</p>", "internal_node_id": "0.0-60.0-7.0", "time_elapsed": 508819, "key_press": -1, "trial_index": 85}, "uniqueid": "MTK1779:3NL0RFNU0GUNSIAHWSWORIPR0QIK4J", "dateTime": 1516299188561}, {"current_trial": 86, "trialdata": {"rt": -1, "trial_type": "single-stim", "stimulus": "<p id=\"stim\">2</p>", "internal_node_id": "0.0-60.0-8.0", "time_elapsed": 509836, "key_press": -1, "trial_index": 86}, "uniqueid": "MTK1779:3NL0RFNU0GUNSIAHWSWORIPR0QIK4J", "dateTime": 1516299189578}, {"current_trial": 87, "trialdata": {"rt": -1, "trial_type": "single-stim", "stimulus": "<p id=\"stim\">1</p>", "internal_node_id": "0.0-60.0-9.0", "time_elapsed": 510839, "key_press": -1, "trial_index": 87}, "uniqueid": "MTK1779:3NL0RFNU0GUNSIAHWSWORIPR0QIK4J", "dateTime": 1516299190582}, {"current_trial": 88, "trialdata": {"rt": -1, "trial_type": "single-stim", "stimulus": "<p id=\"stim\">+</p>", "internal_node_id": "0.0-61.0-0.0", "time_elapsed": 512344, "key_press": -1, "type": "FIXATION", "trial_index": 88}, "uniqueid": "MTK1779:3NL0RFNU0GUNSIAHWSWORIPR0QIK4J", "dateTime": 1516299192087}, {"current_trial": 89, "trialdata": {"rt": -1000, "trial_type": "single-audio", "word": "missile", "stimulus": "/static/audio/wordpool/MISSILE.wav", "conditions": [12, 800, "a", 12000], "internal_node_id": "0.0-62.0", "trial": 2, "time_elapsed": 514303, "serialpos": 0, "key_press": -1, "wordID": 899, "type": "PRES_AUD", "trial_index": 89}, "uniqueid": "MTK1779:3NL0RFNU0GUNSIAHWSWORIPR0QIK4J", "dateTime": 1516299194045}, {"current_trial": 90, "trialdata": {"rt": -1000, "trial_type": "single-audio", "word": "rocket", "stimulus": "/static/audio/wordpool/ROCKET.wav", "conditions": [12, 800, "a", 12000], "internal_node_id": "0.0-63.0", "trial": 2, "time_elapsed": 516089, "serialpos": 1, "key_press": -1, "wordID": 1201, "type": "PRES_AUD", "trial_index": 90}, "uniqueid": "MTK1779:3NL0RFNU0GUNSIAHWSWORIPR0QIK4J", "dateTime": 1516299195831}, {"current_trial": 91, "trialdata": {"rt": -1000, "trial_type": "single-audio", "word": "scarecrow", "stimulus": "/static/audio/wordpool/SCARECROW.wav", "conditions": [12, 800, "a", 12000], "internal_node_id": "0.0-64.0", "trial": 2, "time_elapsed": 517838, "serialpos": 2, "key_press": -1, "wordID": 1244, "type": "PRES_AUD", "trial_index": 91}, "uniqueid": "MTK1779:3NL0RFNU0GUNSIAHWSWORIPR0QIK4J", "dateTime": 1516299197580}, {"current_trial": 92, "trialdata": {"rt": -1000, "trial_type": "single-audio", "word": "hook", "stimulus": "/static/audio/wordpool/HOOK.wav", "conditions": [12, 800, "a", 12000], "internal_node_id": "0.0-65.0", "trial": 2, "time_elapsed": 519676, "serialpos": 3, "key_press": -1, "wordID": 714, "type": "PRES_AUD", "trial_index": 92}, "uniqueid": "MTK1779:3NL0RFNU0GUNSIAHWSWORIPR0QIK4J", "dateTime": 1516299199419}, {"current_trial": 93, "trialdata": {"rt": -1000, "trial_type": "single-audio", "word": "dime", "stimulus": "/static/audio/wordpool/DIME.wav", "conditions": [12, 800, "a", 12000], "internal_node_id": "0.0-66.0", "trial": 2, "time_elapsed": 521284, "serialpos": 4, "key_press": -1, "wordID": 465, "type": "PRES_AUD", "trial_index": 93}, "uniqueid": "MTK1779:3NL0RFNU0GUNSIAHWSWORIPR0QIK4J", "dateTime": 1516299201026}, {"current_trial": 94, "trialdata": {"rt": -1000, "trial_type": "single-audio", "word": "burglar", "stimulus": "/static/audio/wordpool/BURGLAR.wav", "conditions": [12, 800, "a", 12000], "internal_node_id": "0.0-67.0", "trial": 2, "time_elapsed": 523236, "serialpos": 5, "key_press": -1, "wordID": 199, "type": "PRES_AUD", "trial_index": 94}, "uniqueid": "MTK1779:3NL0RFNU0GUNSIAHWSWORIPR0QIK4J", "dateTime": 1516299202978}, {"current_trial": 95, "trialdata": {"rt": -1000, "trial_type": "single-audio", "word": "scalpel", "stimulus": "/static/audio/wordpool/SCALPEL.wav", "conditions": [12, 800, "a", 12000], "internal_node_id": "0.0-68.0", "trial": 2, "time_elapsed": 525165, "serialpos": 6, "key_press": -1, "wordID": 1242, "type": "PRES_AUD", "trial_index": 95}, "uniqueid": "MTK1779:3NL0RFNU0GUNSIAHWSWORIPR0QIK4J", "dateTime": 1516299204907}, {"current_trial": 96, "trialdata": {"rt": -1000, "trial_type": "single-audio", "word": "lipstick", "stimulus": "/static/audio/wordpool/LIPSTICK.wav", "conditions": [12, 800, "a", 12000], "internal_node_id": "0.0-69.0", "trial": 2, "time_elapsed": 526856, "serialpos": 7, "key_press": -1, "wordID": 828, "type": "PRES_AUD", "trial_index": 96}, "uniqueid": "MTK1779:3NL0RFNU0GUNSIAHWSWORIPR0QIK4J", "dateTime": 1516299206598}, {"current_trial": 97, "trialdata": {"rt": -1000, "trial_type": "single-audio", "word": "japan", "stimulus": "/static/audio/wordpool/JAPAN.wav", "conditions": [12, 800, "a", 12000], "internal_node_id": "0.0-70.0", "trial": 2, "time_elapsed": 528674, "serialpos": 8, "key_press": -1, "wordID": 748, "type": "PRES_AUD", "trial_index": 97}, "uniqueid": "MTK1779:3NL0RFNU0GUNSIAHWSWORIPR0QIK4J", "dateTime": 1516299208416}, {"current_trial": 98, "trialdata": {"rt": -1000, "trial_type": "single-audio", "word": "fireman", "stimulus": "/static/audio/wordpool/FIREMAN.wav", "conditions": [12, 800, "a", 12000], "internal_node_id": "0.0-71.0", "trial": 2, "time_elapsed": 530334, "serialpos": 9, "key_press": -1, "wordID": 568, "type": "PRES_AUD", "trial_index": 98}, "uniqueid": "MTK1779:3NL0RFNU0GUNSIAHWSWORIPR0QIK4J", "dateTime": 1516299210076}, {"current_trial": 99, "trialdata": {"rt": -1000, "trial_type": "single-audio", "word": "spool", "stimulus": "/static/audio/wordpool/SPOOL.wav", "conditions": [12, 800, "a", 12000], "internal_node_id": "0.0-72.0", "trial": 2, "time_elapsed": 532130, "serialpos": 10, "key_press": -1, "wordID": 1355, "type": "PRES_AUD", "trial_index": 99}, "uniqueid": "MTK1779:3NL0RFNU0GUNSIAHWSWORIPR0QIK4J", "dateTime": 1516299211873}, {"current_trial": 100, "trialdata": {"rt": -1000, "trial_type": "single-audio", "word": "scissors", "stimulus": "/static/audio/wordpool/SCISSORS.wav", "conditions": [12, 800, "a", 12000], "internal_node_id": "0.0-73.0", "trial": 2, "time_elapsed": 533958, "serialpos": 11, "key_press": -1, "wordID": 1249, "type": "PRES_AUD", "trial_index": 100}, "uniqueid": "MTK1779:3NL0RFNU0GUNSIAHWSWORIPR0QIK4J", "dateTime": 1516299213700}, {"current_trial": 101, "trialdata": {"rt": -1, "trial_type": "single-stim", "stimulus": "", "internal_node_id": "0.0-74.0-0.0", "time_elapsed": 535337, "key_press": -1, "type": "PRE_RECALL_DELAY", "trial_index": 101}, "uniqueid": "MTK1779:3NL0RFNU0GUNSIAHWSWORIPR0QIK4J", "dateTime": 1516299215080}, {"current_trial": 102, "trialdata": {"rt": -1000, "trial_type": "single-audio", "stimulus": "/static/audio/400Hz.wav", "internal_node_id": "0.0-75.0", "time_elapsed": 535841, "key_press": -1, "type": "PRE_RECALL_ALERT", "trial_index": 102}, "uniqueid": "MTK1779:3NL0RFNU0GUNSIAHWSWORIPR0QIK4J", "dateTime": 1516299215583}, {"current_trial": 103, "trialdata": {"rt": [2106, 3981, 6873, 9483, 12842, 56411], "recwords": ["japan", "rocket", "missle", "spool", "scissors", "paper"], "key_times": [1079, 1224, 1368, 1504, 1683, 2106, 2972, 3133, 3330, 3487, 3583, 3823, 3981, 4803, 4999, 5172, 5328, 6352, 6540, 6873, 8374, 8556, 8792, 8952, 9184, 9483, 9983, 10253, 10449, 10724, 10894, 11040, 11145, 11596, 12842, 54725, 54837, 54962, 55214, 55681, 56411], "trial_type": "free-recall", "conditions": [12, 800, "a", 12000], "internal_node_id": "0.0-76.0-0.0", "key_presses": [74, 65, 80, 65, 78, 13, 82, 79, 67, 75, 69, 84, 13, 77, 73, 83, 83, 76, 69, 13, 83, 80, 79, 79, 76, 13, 83, 67, 73, 83, 83, 79, 82, 83, 13, 80, 65, 80, 69, 82, 13], "trial": 2, "time_elapsed": 595847, "type": "FREE_RECALL", "trial_index": 103}, "uniqueid": "MTK1779:3NL0RFNU0GUNSIAHWSWORIPR0QIK4J", "dateTime": 1516299275593}, {"current_trial": 104, "trialdata": {"rt": 3477, "trial_type": "text", "internal_node_id": "0.0-77.0", "time_elapsed": 601334, "key_press": 13, "type": "INSTRUCTIONS", "trial_index": 104}, "uniqueid": "MTK1779:3NL0RFNU0GUNSIAHWSWORIPR0QIK4J", "dateTime": 1516299281076}, {"current_trial": 105, "trialdata": {"rt": [4489, 8777, 16586, 21129], "trial_type": "math-distractor", "key_times": [3293, 3799, 4489, 8221, 8426, 8777, 16155, 16265, 16586, 20808, 21129], "responses": ["17", "16", "18", "9"], "num2": [9, 6, 4, 2, 4], "num3": [1, 4, 5, 4, 4], "conditions": [24, 800, "a", 24000], "internal_node_id": "0.0-78.0", "key_presses": [49, 55, 13, 49, 54, 13, 49, 56, 13, 57, 13], "trial": 3, "time_elapsed": 627344, "type": "DISTRACTOR", "trial_index": 105, "num1": [7, 6, 9, 3, 4]}, "uniqueid": "MTK1779:3NL0RFNU0GUNSIAHWSWORIPR0QIK4J", "dateTime": 1516299307087}, {"current_trial": 106, "trialdata": {"rt": -1, "trial_type": "single-stim", "stimulus": "<p id=\"stim\">10</p>", "internal_node_id": "0.0-79.0-0.0", "time_elapsed": 630348, "key_press": -1, "trial_index": 106}, "uniqueid": "MTK1779:3NL0RFNU0GUNSIAHWSWORIPR0QIK4J", "dateTime": 1516299310091}, {"current_trial": 107, "trialdata": {"rt": -1, "trial_type": "single-stim", "stimulus": "<p id=\"stim\">9</p>", "internal_node_id": "0.0-79.0-1.0", "time_elapsed": 631352, "key_press": -1, "trial_index": 107}, "uniqueid": "MTK1779:3NL0RFNU0GUNSIAHWSWORIPR0QIK4J", "dateTime": 1516299311094}, {"current_trial": 108, "trialdata": {"rt": -1, "trial_type": "single-stim", "stimulus": "<p id=\"stim\">8</p>", "internal_node_id": "0.0-79.0-2.0", "time_elapsed": 632356, "key_press": -1, "trial_index": 108}, "uniqueid": "MTK1779:3NL0RFNU0GUNSIAHWSWORIPR0QIK4J", "dateTime": 1516299312099}, {"current_trial": 109, "trialdata": {"rt": -1, "trial_type": "single-stim", "stimulus": "<p id=\"stim\">7</p>", "internal_node_id": "0.0-79.0-3.0", "time_elapsed": 633362, "key_press": -1, "trial_index": 109}, "uniqueid": "MTK1779:3NL0RFNU0GUNSIAHWSWORIPR0QIK4J", "dateTime": 1516299313104}, {"current_trial": 110, "trialdata": {"rt": -1, "trial_type": "single-stim", "stimulus": "<p id=\"stim\">6</p>", "internal_node_id": "0.0-79.0-4.0", "time_elapsed": 634368, "key_press": -1, "trial_index": 110}, "uniqueid": "MTK1779:3NL0RFNU0GUNSIAHWSWORIPR0QIK4J", "dateTime": 1516299314111}, {"current_trial": 111, "trialdata": {"rt": -1, "trial_type": "single-stim", "stimulus": "<p id=\"stim\">5</p>", "internal_node_id": "0.0-79.0-5.0", "time_elapsed": 635375, "key_press": -1, "trial_index": 111}, "uniqueid": "MTK1779:3NL0RFNU0GUNSIAHWSWORIPR0QIK4J", "dateTime": 1516299315117}, {"current_trial": 112, "trialdata": {"rt": -1, "trial_type": "single-stim", "stimulus": "<p id=\"stim\">4</p>", "internal_node_id": "0.0-79.0-6.0", "time_elapsed": 636383, "key_press": -1, "trial_index": 112}, "uniqueid": "MTK1779:3NL0RFNU0GUNSIAHWSWORIPR0QIK4J", "dateTime": 1516299316126}, {"current_trial": 113, "trialdata": {"rt": -1, "trial_type": "single-stim", "stimulus": "<p id=\"stim\">3</p>", "internal_node_id": "0.0-79.0-7.0", "time_elapsed": 637389, "key_press": -1, "trial_index": 113}, "uniqueid": "MTK1779:3NL0RFNU0GUNSIAHWSWORIPR0QIK4J", "dateTime": 1516299317132}, {"current_trial": 114, "trialdata": {"rt": -1, "trial_type": "single-stim", "stimulus": "<p id=\"stim\">2</p>", "internal_node_id": "0.0-79.0-8.0", "time_elapsed": 638393, "key_press": -1, "trial_index": 114}, "uniqueid": "MTK1779:3NL0RFNU0GUNSIAHWSWORIPR0QIK4J", "dateTime": 1516299318135}, {"current_trial": 115, "trialdata": {"rt": -1, "trial_type": "single-stim", "stimulus": "<p id=\"stim\">1</p>", "internal_node_id": "0.0-79.0-9.0", "time_elapsed": 639398, "key_press": -1, "trial_index": 115}, "uniqueid": "MTK1779:3NL0RFNU0GUNSIAHWSWORIPR0QIK4J", "dateTime": 1516299319140}, {"current_trial": 116, "trialdata": {"rt": -1, "trial_type": "single-stim", "stimulus": "<p id=\"stim\">+</p>", "internal_node_id": "0.0-80.0-0.0", "time_elapsed": 640903, "key_press": -1, "type": "FIXATION", "trial_index": 116}, "uniqueid": "MTK1779:3NL0RFNU0GUNSIAHWSWORIPR0QIK4J", "dateTime": 1516299320645}, {"current_trial": 117, "trialdata": {"rt": -1000, "trial_type": "single-audio", "word": "drill", "stimulus": "/static/audio/wordpool/DRILL.wav", "conditions": [24, 800, "a", 24000], "internal_node_id": "0.0-81.0", "trial": 3, "time_elapsed": 642698, "serialpos": 0, "key_press": -1, "wordID": 496, "type": "PRES_AUD", "trial_index": 117}, "uniqueid": "MTK1779:3NL0RFNU0GUNSIAHWSWORIPR0QIK4J", "dateTime": 1516299322440}, {"current_trial": 118, "trialdata": {"rt": -1000, "trial_type": "single-audio", "word": "banker", "stimulus": "/static/audio/wordpool/BANKER.wav", "conditions": [24, 800, "a", 24000], "internal_node_id": "0.0-82.0", "trial": 3, "time_elapsed": 644393, "serialpos": 1, "key_press": -1, "wordID": 83, "type": "PRES_AUD", "trial_index": 118}, "uniqueid": "MTK1779:3NL0RFNU0GUNSIAHWSWORIPR0QIK4J", "dateTime": 1516299324135}, {"current_trial": 119, "trialdata": {"rt": -1000, "trial_type": "single-audio", "word": "forest", "stimulus": "/static/audio/wordpool/FOREST.wav", "conditions": [24, 800, "a", 24000], "internal_node_id": "0.0-83.0", "trial": 3, "time_elapsed": 646300, "serialpos": 2, "key_press": -1, "wordID": 592, "type": "PRES_AUD", "trial_index": 119}, "uniqueid": "MTK1779:3NL0RFNU0GUNSIAHWSWORIPR0QIK4J", "dateTime": 1516299326042}, {"current_trial": 120, "trialdata": {"rt": -1000, "trial_type": "single-audio", "word": "garden", "stimulus": "/static/audio/wordpool/GARDEN.wav", "conditions": [24, 800, "a", 24000], "internal_node_id": "0.0-84.0", "trial": 3, "time_elapsed": 648180, "serialpos": 3, "key_press": -1, "wordID": 622, "type": "PRES_AUD", "trial_index": 120}, "uniqueid": "MTK1779:3NL0RFNU0GUNSIAHWSWORIPR0QIK4J", "dateTime": 1516299327923}, {"current_trial": 121, "trialdata": {"rt": -1000, "trial_type": "single-audio", "word": "crib", "stimulus": "/static/audio/wordpool/CRIB.wav", "conditions": [24, 800, "a", 24000], "internal_node_id": "0.0-85.0", "trial": 3, "time_elapsed": 650149, "serialpos": 4, "key_press": -1, "wordID": 406, "type": "PRES_AUD", "trial_index": 121}, "uniqueid": "MTK1779:3NL0RFNU0GUNSIAHWSWORIPR0QIK4J", "dateTime": 1516299329893}, {"current_trial": 122, "trialdata": {"rt": -1000, "trial_type": "single-audio", "word": "slime", "stimulus": "/static/audio/wordpool/SLIME.wav", "conditions": [24, 800, "a", 24000], "internal_node_id": "0.0-86.0", "trial": 3, "time_elapsed": 652001, "serialpos": 5, "key_press": -1, "wordID": 1326, "type": "PRES_AUD", "trial_index": 122}, "uniqueid": "MTK1779:3NL0RFNU0GUNSIAHWSWORIPR0QIK4J", "dateTime": 1516299331744}, {"current_trial": 123, "trialdata": {"rt": -1000, "trial_type": "single-audio", "word": "lapel", "stimulus": "/static/audio/wordpool/LAPEL.wav", "conditions": [24, 800, "a", 24000], "internal_node_id": "0.0-87.0", "trial": 3, "time_elapsed": 653839, "serialpos": 6, "key_press": -1, "wordID": 799, "type": "PRES_AUD", "trial_index": 123}, "uniqueid": "MTK1779:3NL0RFNU0GUNSIAHWSWORIPR0QIK4J", "dateTime": 1516299333581}, {"current_trial": 124, "trialdata": {"rt": -1000, "trial_type": "single-audio", "word": "primate", "stimulus": "/static/audio/wordpool/PRIMATE.wav", "conditions": [24, 800, "a", 24000], "internal_node_id": "0.0-88.0", "trial": 3, "time_elapsed": 655754, "serialpos": 7, "key_press": -1, "wordID": 1122, "type": "PRES_AUD", "trial_index": 124}, "uniqueid": "MTK1779:3NL0RFNU0GUNSIAHWSWORIPR0QIK4J", "dateTime": 1516299335496}, {"current_trial": 125, "trialdata": {"rt": -1000, "trial_type": "single-audio", "word": "mammal", "stimulus": "/static/audio/wordpool/MAMMAL.wav", "conditions": [24, 800, "a", 24000], "internal_node_id": "0.0-89.0", "trial": 3, "time_elapsed": 657573, "serialpos": 8, "key_press": -1, "wordID": 860, "type": "PRES_AUD", "trial_index": 125}, "uniqueid": "MTK1779:3NL0RFNU0GUNSIAHWSWORIPR0QIK4J", "dateTime": 1516299337315}, {"current_trial": 126, "trialdata": {"rt": -1000, "trial_type": "single-audio", "word": "ozone", "stimulus": "/static/audio/wordpool/OZONE.wav", "conditions": [24, 800, "a", 24000], "internal_node_id": "0.0-90.0", "trial": 3, "time_elapsed": 659505, "serialpos": 9, "key_press": -1, "wordID": 995, "type": "PRES_AUD", "trial_index": 126}, "uniqueid": "MTK1779:3NL0RFNU0GUNSIAHWSWORIPR0QIK4J", "dateTime": 1516299339247}, {"current_trial": 127, "trialdata": {"rt": -1000, "trial_type": "single-audio", "word": "playground", "stimulus": "/static/audio/wordpool/PLAYGROUND.wav", "conditions": [24, 800, "a", 24000], "internal_node_id": "0.0-91.0", "trial": 3, "time_elapsed": 661442, "serialpos": 10, "key_press": -1, "wordID": 1086, "type": "PRES_AUD", "trial_index": 127}, "uniqueid": "MTK1779:3NL0RFNU0GUNSIAHWSWORIPR0QIK4J", "dateTime": 1516299341185}, {"current_trial": 128, "trialdata": {"rt": -1000, "trial_type": "single-audio", "word": "bank", "stimulus": "/static/audio/wordpool/BANK.wav", "conditions": [24, 800, "a", 24000], "internal_node_id": "0.0-92.0", "trial": 3, "time_elapsed": 663301, "serialpos": 11, "key_press": -1, "wordID": 82, "type": "PRES_AUD", "trial_index": 128}, "uniqueid": "MTK1779:3NL0RFNU0GUNSIAHWSWORIPR0QIK4J", "dateTime": 1516299343043}, {"current_trial": 129, "trialdata": {"rt": -1000, "trial_type": "single-audio", "word": "headband", "stimulus": "/static/audio/wordpool/HEADBAND.wav", "conditions": [24, 800, "a", 24000], "internal_node_id": "0.0-93.0", "trial": 3, "time_elapsed": 665283, "serialpos": 12, "key_press": -1, "wordID": 695, "type": "PRES_AUD", "trial_index": 129}, "uniqueid": "MTK1779:3NL0RFNU0GUNSIAHWSWORIPR0QIK4J", "dateTime": 1516299345026}, {"current_trial": 130, "trialdata": {"rt": -1000, "trial_type": "single-audio", "word": "padding", "stimulus": "/static/audio/wordpool/PADDING.wav", "conditions": [24, 800, "a", 24000], "internal_node_id": "0.0-94.0", "trial": 3, "time_elapsed": 667192, "serialpos": 13, "key_press": -1, "wordID": 998, "type": "PRES_AUD", "trial_index": 130}, "uniqueid": "MTK1779:3NL0RFNU0GUNSIAHWSWORIPR0QIK4J", "dateTime": 1516299346934}, {"current_trial": 131, "trialdata": {"rt": -1000, "trial_type": "single-audio", "word": "knapsack", "stimulus": "/static/audio/wordpool/KNAPSACK.wav", "conditions": [24, 800, "a", 24000], "internal_node_id": "0.0-95.0", "trial": 3, "time_elapsed": 669079, "serialpos": 14, "key_press": -1, "wordID": 782, "type": "PRES_AUD", "trial_index": 131}, "uniqueid": "MTK1779:3NL0RFNU0GUNSIAHWSWORIPR0QIK4J", "dateTime": 1516299348822}, {"current_trial": 132, "trialdata": {"rt": -1000, "trial_type": "single-audio", "word": "author", "stimulus": "/static/audio/wordpool/AUTHOR.wav", "conditions": [24, 800, "a", 24000], "internal_node_id": "0.0-96.0", "trial": 3, "time_elapsed": 670730, "serialpos": 15, "key_press": -1, "wordID": 60, "type": "PRES_AUD", "trial_index": 132}, "uniqueid": "MTK1779:3NL0RFNU0GUNSIAHWSWORIPR0QIK4J", "dateTime": 1516299350473}, {"current_trial": 133, "trialdata": {"rt": -1000, "trial_type": "single-audio", "word": "canal", "stimulus": "/static/audio/wordpool/CANAL.wav", "conditions": [24, 800, "a", 24000], "internal_node_id": "0.0-97.0", "trial": 3, "time_elapsed": 672549, "serialpos": 16, "key_press": -1, "wordID": 225, "type": "PRES_AUD", "trial_index": 133}, "uniqueid": "MTK1779:3NL0RFNU0GUNSIAHWSWORIPR0QIK4J", "dateTime": 1516299352291}, {"current_trial": 134, "trialdata": {"rt": -1000, "trial_type": "single-audio", "word": "lunch", "stimulus": "/static/audio/wordpool/LUNCH.wav", "conditions": [24, 800, "a", 24000], "internal_node_id": "0.0-98.0", "trial": 3, "time_elapsed": 674244, "serialpos": 17, "key_press": -1, "wordID": 848, "type": "PRES_AUD", "trial_index": 134}, "uniqueid": "MTK1779:3NL0RFNU0GUNSIAHWSWORIPR0QIK4J", "dateTime": 1516299353987}, {"current_trial": 135, "trialdata": {"rt": -1000, "trial_type": "single-audio", "word": "snack", "stimulus": "/static/audio/wordpool/SNACK.wav", "conditions": [24, 800, "a", 24000], "internal_node_id": "0.0-99.0", "trial": 3, "time_elapsed": 675902, "serialpos": 18, "key_press": -1, "wordID": 1330, "type": "PRES_AUD", "trial_index": 135}, "uniqueid": "MTK1779:3NL0RFNU0GUNSIAHWSWORIPR0QIK4J", "dateTime": 1516299355646}, {"current_trial": 136, "trialdata": {"rt": -1000, "trial_type": "single-audio", "word": "blouse", "stimulus": "/static/audio/wordpool/BLOUSE.wav", "conditions": [24, 800, "a", 24000], "internal_node_id": "0.0-100.0", "trial": 3, "time_elapsed": 677666, "serialpos": 19, "key_press": -1, "wordID": 138, "type": "PRES_AUD", "trial_index": 136}, "uniqueid": "MTK1779:3NL0RFNU0GUNSIAHWSWORIPR0QIK4J", "dateTime": 1516299357408}, {"current_trial": 137, "trialdata": {"rt": -1000, "trial_type": "single-audio", "word": "clock", "stimulus": "/static/audio/wordpool/CLOCK.wav", "conditions": [24, 800, "a", 24000], "internal_node_id": "0.0-101.0", "trial": 3, "time_elapsed": 679489, "serialpos": 20, "key_press": -1, "wordID": 324, "type": "PRES_AUD", "trial_index": 137}, "uniqueid": "MTK1779:3NL0RFNU0GUNSIAHWSWORIPR0QIK4J", "dateTime": 1516299359232}, {"current_trial": 138, "trialdata": {"rt": -1000, "trial_type": "single-audio", "word": "plaid", "stimulus": "/static/audio/wordpool/PLAID.wav", "conditions": [24, 800, "a", 24000], "internal_node_id": "0.0-102.0", "trial": 3, "time_elapsed": 681280, "serialpos": 21, "key_press": -1, "wordID": 1079, "type": "PRES_AUD", "trial_index": 138}, "uniqueid": "MTK1779:3NL0RFNU0GUNSIAHWSWORIPR0QIK4J", "dateTime": 1516299361022}, {"current_trial": 139, "trialdata": {"rt": -1000, "trial_type": "single-audio", "word": "thread", "stimulus": "/static/audio/wordpool/THREAD.wav", "conditions": [24, 800, "a", 24000], "internal_node_id": "0.0-103.0", "trial": 3, "time_elapsed": 683109, "serialpos": 22, "key_press": -1, "wordID": 1459, "type": "PRES_AUD", "trial_index": 139}, "uniqueid": "MTK1779:3NL0RFNU0GUNSIAHWSWORIPR0QIK4J", "dateTime": 1516299362851}, {"current_trial": 140, "trialdata": {"rt": -1000, "trial_type": "single-audio", "word": "briefcase", "stimulus": "/static/audio/wordpool/BRIEFCASE.wav", "conditions": [24, 800, "a", 24000], "internal_node_id": "0.0-104.0", "trial": 3, "time_elapsed": 684816, "serialpos": 23, "key_press": -1, "wordID": 174, "type": "PRES_AUD", "trial_index": 140}, "uniqueid": "MTK1779:3NL0RFNU0GUNSIAHWSWORIPR0QIK4J", "dateTime": 1516299364558}, {"current_trial": 141, "trialdata": {"rt": -1, "trial_type": "single-stim", "stimulus": "", "internal_node_id": "0.0-105.0-0.0", "time_elapsed": 686155, "key_press": -1, "type": "PRE_RECALL_DELAY", "trial_index": 141}, "uniqueid": "MTK1779:3NL0RFNU0GUNSIAHWSWORIPR0QIK4J", "dateTime": 1516299365897}, {"current_trial": 142, "trialdata": {"rt": -1000, "trial_type": "single-audio", "stimulus": "/static/audio/400Hz.wav", "internal_node_id": "0.0-106.0", "time_elapsed": 686659, "key_press": -1, "type": "PRE_RECALL_ALERT", "trial_index": 142}, "uniqueid": "MTK1779:3NL0RFNU0GUNSIAHWSWORIPR0QIK4J", "dateTime": 1516299366402}, {"current_trial": 143, "trialdata": {"rt": [2814, 4584, 6335, 10339, 11772, 27116, 49191, 51006], "recwords": ["breifcase", "lapel", "blouse", "banker", "drill", "author", "garden", "forest"], "key_times": [536, 692, 875, 985, 1630, 1940, 2151, 2353, 2562, 2814, 3461, 3603, 3750, 3902, 4106, 4584, 5101, 5334, 5549, 5825, 5982, 6125, 6335, 8393, 8514, 8661, 8882, 8986, 9139, 10339, 10592, 10833, 11019, 11307, 11473, 11772, 25779, 26015, 26354, 26494, 26705, 26816, 27116, 47232, 47357, 47555, 48288, 48464, 48619, 49191, 49865, 50026, 50116, 50301, 50504, 50767, 51006], "trial_type": "free-recall", "conditions": [24, 800, "a", 24000], "internal_node_id": "0.0-107.0-0.0", "key_presses": [66, 82, 69, 73, 70, 67, 65, 83, 69, 13, 76, 65, 80, 69, 76, 13, 66, 76, 79, 85, 83, 69, 13, 66, 65, 78, 75, 69, 82, 13, 68, 82, 73, 76, 76, 13, 65, 85, 84, 72, 79, 82, 13, 71, 65, 82, 68, 69, 78, 13, 70, 79, 82, 69, 83, 84, 13], "trial": 3, "time_elapsed": 746669, "type": "FREE_RECALL", "trial_index": 143}, "uniqueid": "MTK1779:3NL0RFNU0GUNSIAHWSWORIPR0QIK4J", "dateTime": 1516299426431}, {"current_trial": 144, "trialdata": {"rt": 2160, "trial_type": "text", "internal_node_id": "0.0-108.0", "time_elapsed": 750856, "key_press": 13, "type": "INSTRUCTIONS", "trial_index": 144}, "uniqueid": "MTK1779:3NL0RFNU0GUNSIAHWSWORIPR0QIK4J", "dateTime": 1516299430598}, {"current_trial": 145, "trialdata": {"rt": [6386], "trial_type": "math-distractor", "key_times": [5932, 6069, 6386], "responses": ["20"], "num2": [9, 6], "num3": [2, 8], "conditions": [12, 1600, "a", 12000], "internal_node_id": "0.0-109.0", "key_presses": [50, 48, 13], "trial": 4, "time_elapsed": 764876, "type": "DISTRACTOR", "trial_index": 145, "num1": [9, 5]}, "uniqueid": "MTK1779:3NL0RFNU0GUNSIAHWSWORIPR0QIK4J", "dateTime": 1516299444619}, {"current_trial": 146, "trialdata": {"rt": -1, "trial_type": "single-stim", "stimulus": "<p id=\"stim\">10</p>", "internal_node_id": "0.0-110.0-0.0", "time_elapsed": 767883, "key_press": -1, "trial_index": 146}, "uniqueid": "MTK1779:3NL0RFNU0GUNSIAHWSWORIPR0QIK4J", "dateTime": 1516299447625}, {"current_trial": 147, "trialdata": {"rt": -1, "trial_type": "single-stim", "stimulus": "<p id=\"stim\">9</p>", "internal_node_id": "0.0-110.0-1.0", "time_elapsed": 768886, "key_press": -1, "trial_index": 147}, "uniqueid": "MTK1779:3NL0RFNU0GUNSIAHWSWORIPR0QIK4J", "dateTime": 1516299448629}, {"current_trial": 148, "trialdata": {"rt": -1, "trial_type": "single-stim", "stimulus": "<p id=\"stim\">8</p>", "internal_node_id": "0.0-110.0-2.0", "time_elapsed": 769889, "key_press": -1, "trial_index": 148}, "uniqueid": "MTK1779:3NL0RFNU0GUNSIAHWSWORIPR0QIK4J", "dateTime": 1516299449632}, {"current_trial": 149, "trialdata": {"rt": -1, "trial_type": "single-stim", "stimulus": "<p id=\"stim\">7</p>", "internal_node_id": "0.0-110.0-3.0", "time_elapsed": 770895, "key_press": -1, "trial_index": 149}, "uniqueid": "MTK1779:3NL0RFNU0GUNSIAHWSWORIPR0QIK4J", "dateTime": 1516299450638}, {"current_trial": 150, "trialdata": {"rt": -1, "trial_type": "single-stim", "stimulus": "<p id=\"stim\">6</p>", "internal_node_id": "0.0-110.0-4.0", "time_elapsed": 771899, "key_press": -1, "trial_index": 150}, "uniqueid": "MTK1779:3NL0RFNU0GUNSIAHWSWORIPR0QIK4J", "dateTime": 1516299451642}, {"current_trial": 151, "trialdata": {"rt": -1, "trial_type": "single-stim", "stimulus": "<p id=\"stim\">5</p>", "internal_node_id": "0.0-110.0-5.0", "time_elapsed": 772904, "key_press": -1, "trial_index": 151}, "uniqueid": "MTK1779:3NL0RFNU0GUNSIAHWSWORIPR0QIK4J", "dateTime": 1516299452646}, {"current_trial": 152, "trialdata": {"rt": -1, "trial_type": "single-stim", "stimulus": "<p id=\"stim\">4</p>", "internal_node_id": "0.0-110.0-6.0", "time_elapsed": 773908, "key_press": -1, "trial_index": 152}, "uniqueid": "MTK1779:3NL0RFNU0GUNSIAHWSWORIPR0QIK4J", "dateTime": 1516299453650}, {"current_trial": 153, "trialdata": {"rt": -1, "trial_type": "single-stim", "stimulus": "<p id=\"stim\">3</p>", "internal_node_id": "0.0-110.0-7.0", "time_elapsed": 774910, "key_press": -1, "trial_index": 153}, "uniqueid": "MTK1779:3NL0RFNU0GUNSIAHWSWORIPR0QIK4J", "dateTime": 1516299454652}, {"current_trial": 154, "trialdata": {"rt": -1, "trial_type": "single-stim", "stimulus": "<p id=\"stim\">2</p>", "internal_node_id": "0.0-110.0-8.0", "time_elapsed": 775913, "key_press": -1, "trial_index": 154}, "uniqueid": "MTK1779:3NL0RFNU0GUNSIAHWSWORIPR0QIK4J", "dateTime": 1516299455655}, {"current_trial": 155, "trialdata": {"rt": -1, "trial_type": "single-stim", "stimulus": "<p id=\"stim\">1</p>", "internal_node_id": "0.0-110.0-9.0", "time_elapsed": 776918, "key_press": -1, "trial_index": 155}, "uniqueid": "MTK1779:3NL0RFNU0GUNSIAHWSWORIPR0QIK4J", "dateTime": 1516299456661}, {"current_trial": 156, "trialdata": {"rt": -1, "trial_type": "single-stim", "stimulus": "<p id=\"stim\">+</p>", "internal_node_id": "0.0-111.0-0.0", "time_elapsed": 778422, "key_press": -1, "type": "FIXATION", "trial_index": 156}, "uniqueid": "MTK1779:3NL0RFNU0GUNSIAHWSWORIPR0QIK4J", "dateTime": 1516299458164}, {"current_trial": 157, "trialdata": {"rt": -1000, "trial_type": "single-audio", "word": "silk", "stimulus": "/static/audio/wordpool/SILK.wav", "conditions": [12, 1600, "a", 12000], "internal_node_id": "0.0-112.0", "trial": 4, "time_elapsed": 780965, "serialpos": 0, "key_press": -1, "wordID": 1306, "type": "PRES_AUD", "trial_index": 157}, "uniqueid": "MTK1779:3NL0RFNU0GUNSIAHWSWORIPR0QIK4J", "dateTime": 1516299460708}, {"current_trial": 158, "trialdata": {"rt": -1000, "trial_type": "single-audio", "word": "actor", "stimulus": "/static/audio/wordpool/ACTOR.wav", "conditions": [12, 1600, "a", 12000], "internal_node_id": "0.0-113.0", "trial": 4, "time_elapsed": 783764, "serialpos": 1, "key_press": -1, "wordID": 4, "type": "PRES_AUD", "trial_index": 158}, "uniqueid": "MTK1779:3NL0RFNU0GUNSIAHWSWORIPR0QIK4J", "dateTime": 1516299463506}, {"current_trial": 159, "trialdata": {"rt": -1000, "trial_type": "single-audio", "word": "film", "stimulus": "/static/audio/wordpool/FILM.wav", "conditions": [12, 1600, "a", 12000], "internal_node_id": "0.0-114.0", "trial": 4, "time_elapsed": 786261, "serialpos": 2, "key_press": -1, "wordID": 564, "type": "PRES_AUD", "trial_index": 159}, "uniqueid": "MTK1779:3NL0RFNU0GUNSIAHWSWORIPR0QIK4J", "dateTime": 1516299466003}, {"current_trial": 160, "trialdata": {"rt": -1000, "trial_type": "single-audio", "word": "london", "stimulus": "/static/audio/wordpool/LONDON.wav", "conditions": [12, 1600, "a", 12000], "internal_node_id": "0.0-115.0", "trial": 4, "time_elapsed": 788911, "serialpos": 3, "key_press": -1, "wordID": 842, "type": "PRES_AUD", "trial_index": 160}, "uniqueid": "MTK1779:3NL0RFNU0GUNSIAHWSWORIPR0QIK4J", "dateTime": 1516299468654}, {"current_trial": 161, "trialdata": {"rt": -1000, "trial_type": "single-audio", "word": "turtle", "stimulus": "/static/audio/wordpool/TURTLE.wav", "conditions": [12, 1600, "a", 12000], "internal_node_id": "0.0-116.0", "trial": 4, "time_elapsed": 791586, "serialpos": 4, "key_press": -1, "wordID": 1521, "type": "PRES_AUD", "trial_index": 161}, "uniqueid": "MTK1779:3NL0RFNU0GUNSIAHWSWORIPR0QIK4J", "dateTime": 1516299471329}, {"current_trial": 162, "trialdata": {"rt": -1000, "trial_type": "single-audio", "word": "hawk", "stimulus": "/static/audio/wordpool/HAWK.wav", "conditions": [12, 1600, "a", 12000], "internal_node_id": "0.0-117.0", "trial": 4, "time_elapsed": 794027, "serialpos": 5, "key_press": -1, "wordID": 691, "type": "PRES_AUD", "trial_index": 162}, "uniqueid": "MTK1779:3NL0RFNU0GUNSIAHWSWORIPR0QIK4J", "dateTime": 1516299473769}, {"current_trial": 163, "trialdata": {"rt": -1000, "trial_type": "single-audio", "word": "passage", "stimulus": "/static/audio/wordpool/PASSAGE.wav", "conditions": [12, 1600, "a", 12000], "internal_node_id": "0.0-118.0", "trial": 4, "time_elapsed": 796726, "serialpos": 6, "key_press": -1, "wordID": 1018, "type": "PRES_AUD", "trial_index": 163}, "uniqueid": "MTK1779:3NL0RFNU0GUNSIAHWSWORIPR0QIK4J", "dateTime": 1516299476469}, {"current_trial": 164, "trialdata": {"rt": -1000, "trial_type": "single-audio", "word": "canyon", "stimulus": "/static/audio/wordpool/CANYON.wav", "conditions": [12, 1600, "a", 12000], "internal_node_id": "0.0-119.0", "trial": 4, "time_elapsed": 799260, "serialpos": 7, "key_press": -1, "wordID": 234, "type": "PRES_AUD", "trial_index": 164}, "uniqueid": "MTK1779:3NL0RFNU0GUNSIAHWSWORIPR0QIK4J", "dateTime": 1516299479002}, {"current_trial": 165, "trialdata": {"rt": -1000, "trial_type": "single-audio", "word": "preacher", "stimulus": "/static/audio/wordpool/PREACHER.wav", "conditions": [12, 1600, "a", 12000], "internal_node_id": "0.0-120.0", "trial": 4, "time_elapsed": 801871, "serialpos": 8, "key_press": -1, "wordID": 1118, "type": "PRES_AUD", "trial_index": 165}, "uniqueid": "MTK1779:3NL0RFNU0GUNSIAHWSWORIPR0QIK4J", "dateTime": 1516299481613}, {"current_trial": 166, "trialdata": {"rt": -1000, "trial_type": "single-audio", "word": "highway", "stimulus": "/static/audio/wordpool/HIGHWAY.wav", "conditions": [12, 1600, "a", 12000], "internal_node_id": "0.0-121.0", "trial": 4, "time_elapsed": 804322, "serialpos": 9, "key_press": -1, "wordID": 706, "type": "PRES_AUD", "trial_index": 166}, "uniqueid": "MTK1779:3NL0RFNU0GUNSIAHWSWORIPR0QIK4J", "dateTime": 1516299484064}, {"current_trial": 167, "trialdata": {"rt": -1000, "trial_type": "single-audio", "word": "europe", "stimulus": "/static/audio/wordpool/EUROPE.wav", "conditions": [12, 1600, "a", 12000], "internal_node_id": "0.0-122.0", "trial": 4, "time_elapsed": 807084, "serialpos": 10, "key_press": -1, "wordID": 540, "type": "PRES_AUD", "trial_index": 167}, "uniqueid": "MTK1779:3NL0RFNU0GUNSIAHWSWORIPR0QIK4J", "dateTime": 1516299486827}, {"current_trial": 168, "trialdata": {"rt": -1000, "trial_type": "single-audio", "word": "backbone", "stimulus": "/static/audio/wordpool/BACKBONE.wav", "conditions": [12, 1600, "a", 12000], "internal_node_id": "0.0-123.0", "trial": 4, "time_elapsed": 809850, "serialpos": 11, "key_press": -1, "wordID": 65, "type": "PRES_AUD", "trial_index": 168}, "uniqueid": "MTK1779:3NL0RFNU0GUNSIAHWSWORIPR0QIK4J", "dateTime": 1516299489592}, {"current_trial": 169, "trialdata": {"rt": -1, "trial_type": "single-stim", "stimulus": "", "internal_node_id": "0.0-124.0-0.0", "time_elapsed": 811129, "key_press": -1, "type": "PRE_RECALL_DELAY", "trial_index": 169}, "uniqueid": "MTK1779:3NL0RFNU0GUNSIAHWSWORIPR0QIK4J", "dateTime": 1516299490871}, {"current_trial": 170, "trialdata": {"rt": -1000, "trial_type": "single-audio", "stimulus": "/static/audio/400Hz.wav", "internal_node_id": "0.0-125.0", "time_elapsed": 811637, "key_press": -1, "type": "PRE_RECALL_ALERT", "trial_index": 170}, "uniqueid": "MTK1779:3NL0RFNU0GUNSIAHWSWORIPR0QIK4J", "dateTime": 1516299491380}, {"current_trial": 171, "trialdata": {"rt": [2461, 5059, 6928, 8856, 13899, 15729, 21831], "recwords": ["backbone", "europe", "london", "actor", "silk", "film", "preacher"], "key_times": [471, 596, 851, 1014, 1577, 1762, 2015, 2157, 2461, 3820, 4023, 4185, 4363, 4595, 4815, 5059, 5723, 5925, 6141, 6281, 6409, 6602, 6928, 7654, 7891, 8186, 8333, 8487, 8856, 9730, 9875, 10111, 10346, 11283, 11414, 11659, 11890, 12567, 13156, 13374, 13543, 13899, 14751, 14872, 15112, 15432, 15729, 20424, 20504, 20690, 20875, 21133, 21318, 21409, 21567, 21831], "trial_type": "free-recall", "conditions": [12, 1600, "a", 12000], "internal_node_id": "0.0-126.0-0.0", "key_presses": [66, 65, 67, 75, 66, 79, 78, 69, 13, 69, 85, 82, 79, 80, 69, 13, 76, 79, 78, 68, 79, 78, 13, 65, 67, 84, 79, 82, 13, 83, 73, 76, 75, 70, 73, 76, 77, 8, 8, 8, 8, 32, 70, 73, 76, 77, 13, 80, 82, 69, 65, 67, 72, 69, 82, 13], "trial": 4, "time_elapsed": 871649, "type": "FREE_RECALL", "trial_index": 171}, "uniqueid": "MTK1779:3NL0RFNU0GUNSIAHWSWORIPR0QIK4J", "dateTime": 1516299551422}, {"current_trial": 172, "trialdata": {"rt": 4149, "trial_type": "text", "internal_node_id": "0.0-127.0", "time_elapsed": 877843, "key_press": 32, "type": "INSTRUCTIONS", "trial_index": 172}, "uniqueid": "MTK1779:3NL0RFNU0GUNSIAHWSWORIPR0QIK4J", "dateTime": 1516299557585}, {"current_trial": 173, "trialdata": {"rt": [6086], "trial_type": "math-distractor", "key_times": [5575, 5703, 6086], "responses": ["20"], "num2": [4, 9], "num3": [7, 4], "conditions": [12, 800, "a", 12000], "internal_node_id": "0.0-128.0", "key_presses": [50, 48, 13], "trial": 5, "time_elapsed": 891864, "type": "DISTRACTOR", "trial_index": 173, "num1": [8, 4]}, "uniqueid": "MTK1779:3NL0RFNU0GUNSIAHWSWORIPR0QIK4J", "dateTime": 1516299571606}, {"current_trial": 174, "trialdata": {"rt": -1, "trial_type": "single-stim", "stimulus": "<p id=\"stim\">10</p>", "internal_node_id": "0.0-129.0-0.0", "time_elapsed": 894873, "key_press": -1, "trial_index": 174}, "uniqueid": "MTK1779:3NL0RFNU0GUNSIAHWSWORIPR0QIK4J", "dateTime": 1516299574615}, {"current_trial": 175, "trialdata": {"rt": -1, "trial_type": "single-stim", "stimulus": "<p id=\"stim\">9</p>", "internal_node_id": "0.0-129.0-1.0", "time_elapsed": 895877, "key_press": -1, "trial_index": 175}, "uniqueid": "MTK1779:3NL0RFNU0GUNSIAHWSWORIPR0QIK4J", "dateTime": 1516299575619}, {"current_trial": 176, "trialdata": {"rt": -1, "trial_type": "single-stim", "stimulus": "<p id=\"stim\">8</p>", "internal_node_id": "0.0-129.0-2.0", "time_elapsed": 896884, "key_press": -1, "trial_index": 176}, "uniqueid": "MTK1779:3NL0RFNU0GUNSIAHWSWORIPR0QIK4J", "dateTime": 1516299576626}, {"current_trial": 177, "trialdata": {"rt": -1, "trial_type": "single-stim", "stimulus": "<p id=\"stim\">7</p>", "internal_node_id": "0.0-129.0-3.0", "time_elapsed": 897896, "key_press": -1, "trial_index": 177}, "uniqueid": "MTK1779:3NL0RFNU0GUNSIAHWSWORIPR0QIK4J", "dateTime": 1516299577640}, {"current_trial": 178, "trialdata": {"rt": -1, "trial_type": "single-stim", "stimulus": "<p id=\"stim\">6</p>", "internal_node_id": "0.0-129.0-4.0", "time_elapsed": 898903, "key_press": -1, "trial_index": 178}, "uniqueid": "MTK1779:3NL0RFNU0GUNSIAHWSWORIPR0QIK4J", "dateTime": 1516299578645}, {"current_trial": 179, "trialdata": {"rt": -1, "trial_type": "single-stim", "stimulus": "<p id=\"stim\">5</p>", "internal_node_id": "0.0-129.0-5.0", "time_elapsed": 899906, "key_press": -1, "trial_index": 179}, "uniqueid": "MTK1779:3NL0RFNU0GUNSIAHWSWORIPR0QIK4J", "dateTime": 1516299579649}, {"current_trial": 180, "trialdata": {"rt": -1, "trial_type": "single-stim", "stimulus": "<p id=\"stim\">4</p>", "internal_node_id": "0.0-129.0-6.0", "time_elapsed": 900911, "key_press": -1, "trial_index": 180}, "uniqueid": "MTK1779:3NL0RFNU0GUNSIAHWSWORIPR0QIK4J", "dateTime": 1516299580654}, {"current_trial": 181, "trialdata": {"rt": -1, "trial_type": "single-stim", "stimulus": "<p id=\"stim\">3</p>", "internal_node_id": "0.0-129.0-7.0", "time_elapsed": 901919, "key_press": -1, "trial_index": 181}, "uniqueid": "MTK1779:3NL0RFNU0GUNSIAHWSWORIPR0QIK4J", "dateTime": 1516299581661}, {"current_trial": 182, "trialdata": {"rt": -1, "trial_type": "single-stim", "stimulus": "<p id=\"stim\">2</p>", "internal_node_id": "0.0-129.0-8.0", "time_elapsed": 902923, "key_press": -1, "trial_index": 182}, "uniqueid": "MTK1779:3NL0RFNU0GUNSIAHWSWORIPR0QIK4J", "dateTime": 1516299582666}, {"current_trial": 183, "trialdata": {"rt": -1, "trial_type": "single-stim", "stimulus": "<p id=\"stim\">1</p>", "internal_node_id": "0.0-129.0-9.0", "time_elapsed": 903929, "key_press": -1, "trial_index": 183}, "uniqueid": "MTK1779:3NL0RFNU0GUNSIAHWSWORIPR0QIK4J", "dateTime": 1516299583672}, {"current_trial": 184, "trialdata": {"rt": -1, "trial_type": "single-stim", "stimulus": "<p id=\"stim\">+</p>", "internal_node_id": "0.0-130.0-0.0", "time_elapsed": 905436, "key_press": -1, "type": "FIXATION", "trial_index": 184}, "uniqueid": "MTK1779:3NL0RFNU0GUNSIAHWSWORIPR0QIK4J", "dateTime": 1516299585179}, {"current_trial": 185, "trialdata": {"rt": -1000, "trial_type": "single-audio", "word": "skillet", "stimulus": "/static/audio/wordpool/SKILLET.wav", "conditions": [12, 800, "a", 12000], "internal_node_id": "0.0-131.0", "trial": 5, "time_elapsed": 907157, "serialpos": 0, "key_press": -1, "wordID": 1316, "type": "PRES_AUD", "trial_index": 185}, "uniqueid": "MTK1779:3NL0RFNU0GUNSIAHWSWORIPR0QIK4J", "dateTime": 1516299586900}, {"current_trial": 186, "trialdata": {"rt": -1000, "trial_type": "single-audio", "word": "chest", "stimulus": "/static/audio/wordpool/CHEST.wav", "conditions": [12, 800, "a", 12000], "internal_node_id": "0.0-132.0", "trial": 5, "time_elapsed": 908905, "serialpos": 1, "key_press": -1, "wordID": 294, "type": "PRES_AUD", "trial_index": 186}, "uniqueid": "MTK1779:3NL0RFNU0GUNSIAHWSWORIPR0QIK4J", "dateTime": 1516299588648}, {"current_trial": 187, "trialdata": {"rt": -1000, "trial_type": "single-audio", "word": "penguin", "stimulus": "/static/audio/wordpool/PENGUIN.wav", "conditions": [12, 800, "a", 12000], "internal_node_id": "0.0-133.0", "trial": 5, "time_elapsed": 910741, "serialpos": 2, "key_press": -1, "wordID": 1043, "type": "PRES_AUD", "trial_index": 187}, "uniqueid": "MTK1779:3NL0RFNU0GUNSIAHWSWORIPR0QIK4J", "dateTime": 1516299590484}, {"current_trial": 188, "trialdata": {"rt": -1000, "trial_type": "single-audio", "word": "female", "stimulus": "/static/audio/wordpool/FEMALE.wav", "conditions": [12, 800, "a", 12000], "internal_node_id": "0.0-134.0", "trial": 5, "time_elapsed": 912742, "serialpos": 3, "key_press": -1, "wordID": 558, "type": "PRES_AUD", "trial_index": 188}, "uniqueid": "MTK1779:3NL0RFNU0GUNSIAHWSWORIPR0QIK4J", "dateTime": 1516299592484}, {"current_trial": 189, "trialdata": {"rt": -1000, "trial_type": "single-audio", "word": "outlaw", "stimulus": "/static/audio/wordpool/OUTLAW.wav", "conditions": [12, 800, "a", 12000], "internal_node_id": "0.0-135.0", "trial": 5, "time_elapsed": 914508, "serialpos": 4, "key_press": -1, "wordID": 988, "type": "PRES_AUD", "trial_index": 189}, "uniqueid": "MTK1779:3NL0RFNU0GUNSIAHWSWORIPR0QIK4J", "dateTime": 1516299594250}, {"current_trial": 190, "trialdata": {"rt": -1000, "trial_type": "single-audio", "word": "liver", "stimulus": "/static/audio/wordpool/LIVER.wav", "conditions": [12, 800, "a", 12000], "internal_node_id": "0.0-136.0", "trial": 5, "time_elapsed": 916349, "serialpos": 5, "key_press": -1, "wordID": 832, "type": "PRES_AUD", "trial_index": 190}, "uniqueid": "MTK1779:3NL0RFNU0GUNSIAHWSWORIPR0QIK4J", "dateTime": 1516299596092}, {"current_trial": 191, "trialdata": {"rt": -1000, "trial_type": "single-audio", "word": "scallop", "stimulus": "/static/audio/wordpool/SCALLOP.wav", "conditions": [12, 800, "a", 12000], "internal_node_id": "0.0-137.0", "trial": 5, "time_elapsed": 918337, "serialpos": 6, "key_press": -1, "wordID": 1241, "type": "PRES_AUD", "trial_index": 191}, "uniqueid": "MTK1779:3NL0RFNU0GUNSIAHWSWORIPR0QIK4J", "dateTime": 1516299598079}, {"current_trial": 192, "trialdata": {"rt": -1000, "trial_type": "single-audio", "word": "crab", "stimulus": "/static/audio/wordpool/CRAB.wav", "conditions": [12, 800, "a", 12000], "internal_node_id": "0.0-138.0", "trial": 5, "time_elapsed": 920133, "serialpos": 7, "key_press": -1, "wordID": 396, "type": "PRES_AUD", "trial_index": 192}, "uniqueid": "MTK1779:3NL0RFNU0GUNSIAHWSWORIPR0QIK4J", "dateTime": 1516299599876}, {"current_trial": 193, "trialdata": {"rt": -1000, "trial_type": "single-audio", "word": "gymnast", "stimulus": "/static/audio/wordpool/GYMNAST.wav", "conditions": [12, 800, "a", 12000], "internal_node_id": "0.0-139.0", "trial": 5, "time_elapsed": 921911, "serialpos": 8, "key_press": -1, "wordID": 674, "type": "PRES_AUD", "trial_index": 193}, "uniqueid": "MTK1779:3NL0RFNU0GUNSIAHWSWORIPR0QIK4J", "dateTime": 1516299601653}, {"current_trial": 194, "trialdata": {"rt": -1000, "trial_type": "single-audio", "word": "dorm", "stimulus": "/static/audio/wordpool/DORM.wav", "conditions": [12, 800, "a", 12000], "internal_node_id": "0.0-140.0", "trial": 5, "time_elapsed": 923545, "serialpos": 9, "key_press": -1, "wordID": 487, "type": "PRES_AUD", "trial_index": 194}, "uniqueid": "MTK1779:3NL0RFNU0GUNSIAHWSWORIPR0QIK4J", "dateTime": 1516299603287}, {"current_trial": 195, "trialdata": {"rt": -1000, "trial_type": "single-audio", "word": "cod", "stimulus": "/static/audio/wordpool/COD.wav", "conditions": [12, 800, "a", 12000], "internal_node_id": "0.0-141.0", "trial": 5, "time_elapsed": 925549, "serialpos": 10, "key_press": -1, "wordID": 339, "type": "PRES_AUD", "trial_index": 195}, "uniqueid": "MTK1779:3NL0RFNU0GUNSIAHWSWORIPR0QIK4J", "dateTime": 1516299605291}, {"current_trial": 196, "trialdata": {"rt": -1000, "trial_type": "single-audio", "word": "dancer", "stimulus": "/static/audio/wordpool/DANCER.wav", "conditions": [12, 800, "a", 12000], "internal_node_id": "0.0-142.0", "trial": 5, "time_elapsed": 927311, "serialpos": 11, "key_press": -1, "wordID": 436, "type": "PRES_AUD", "trial_index": 196}, "uniqueid": "MTK1779:3NL0RFNU0GUNSIAHWSWORIPR0QIK4J", "dateTime": 1516299607054}, {"current_trial": 197, "trialdata": {"rt": -1, "trial_type": "single-stim", "stimulus": "", "internal_node_id": "0.0-143.0-0.0", "time_elapsed": 928719, "key_press": -1, "type": "PRE_RECALL_DELAY", "trial_index": 197}, "uniqueid": "MTK1779:3NL0RFNU0GUNSIAHWSWORIPR0QIK4J", "dateTime": 1516299608461}, {"current_trial": 198, "trialdata": {"rt": -1000, "trial_type": "single-audio", "stimulus": "/static/audio/400Hz.wav", "internal_node_id": "0.0-144.0", "time_elapsed": 929225, "key_press": -1, "type": "PRE_RECALL_ALERT", "trial_index": 198}, "uniqueid": "MTK1779:3NL0RFNU0GUNSIAHWSWORIPR0QIK4J", "dateTime": 1516299608969}, {"current_trial": 199, "trialdata": {"rt": [3847, 5175, 7215, 9697, 12016, 16139, 18461, 27228, 37803, 45648], "recwords": ["dancer", "cod", "skillet", "penguine", "scallop", "liver", "skillet", "chest", "dancer", "crab"], "key_times": [778, 2403, 2630, 2817, 2988, 3171, 3847, 4309, 4480, 4606, 5175, 5702, 5813, 6025, 6251, 6420, 6707, 6964, 7215, 7724, 7948, 8113, 8349, 8551, 8741, 8964, 9102, 9697, 10479, 10697, 10892, 11051, 11223, 11436, 11653, 12016, 14796, 15075, 15189, 15384, 15561, 16139, 16695, 17066, 17394, 17718, 17900, 18022, 18268, 18461, 26318, 26477, 26577, 26757, 26989, 27228, 35975, 36240, 36512, 36588, 36726, 37401, 37803, 44370, 44640, 44838, 45335, 45648], "trial_type": "free-recall", "conditions": [12, 800, "a", 12000], "internal_node_id": "0.0-145.0-0.0", "key_presses": [68, 65, 78, 67, 69, 82, 13, 67, 79, 68, 13, 83, 75, 73, 76, 76, 69, 84, 13, 80, 69, 78, 71, 85, 73, 78, 69, 13, 83, 67, 65, 76, 76, 79, 80, 13, 76, 73, 86, 69, 82, 13, 83, 75, 73, 76, 76, 69, 84, 13, 67, 72, 69, 83, 84, 13, 68, 65, 78, 67, 69, 82, 13, 67, 82, 65, 66, 13], "trial": 5, "time_elapsed": 989235, "type": "FREE_RECALL", "trial_index": 199}, "uniqueid": "MTK1779:3NL0RFNU0GUNSIAHWSWORIPR0QIK4J", "dateTime": 1516299668987}, {"current_trial": 200, "trialdata": {"rt": 1536, "trial_type": "text", "internal_node_id": "0.0-146.0", "time_elapsed": 992791, "key_press": 32, "type": "INSTRUCTIONS", "trial_index": 200}, "uniqueid": "MTK1779:3NL0RFNU0GUNSIAHWSWORIPR0QIK4J", "dateTime": 1516299672534}, {"current_trial": 201, "trialdata": {"rt": [6043, 9135, 13012, 15369, 17726, 21341], "trial_type": "math-distractor", "key_times": [5420, 5666, 6043, 8804, 9135, 12532, 12817, 13012, 15249, 15369, 17239, 17523, 17726, 21020, 21199, 21341], "responses": ["12", "9", "14", "4", "14", "11"], "num2": [3, 1, 9, 1, 9, 4, 7], "num3": [7, 1, 4, 2, 4, 4, 1], "conditions": [12, 800, "a", 24000], "internal_node_id": "0.0-147.0", "key_presses": [49, 50, 13, 57, 13, 49, 52, 13, 52, 13, 49, 52, 13, 49, 49, 13], "trial": 6, "time_elapsed": 1018807, "type": "DISTRACTOR", "trial_index": 201, "num1": [2, 7, 1, 1, 1, 3, 9]}, "uniqueid": "MTK1779:3NL0RFNU0GUNSIAHWSWORIPR0QIK4J", "dateTime": 1516299698550}, {"current_trial": 202, "trialdata": {"rt": -1, "trial_type": "single-stim", "stimulus": "<p id=\"stim\">10</p>", "internal_node_id": "0.0-148.0-0.0", "time_elapsed": 1021813, "key_press": -1, "trial_index": 202}, "uniqueid": "MTK1779:3NL0RFNU0GUNSIAHWSWORIPR0QIK4J", "dateTime": 1516299701555}, {"current_trial": 203, "trialdata": {"rt": -1, "trial_type": "single-stim", "stimulus": "<p id=\"stim\">9</p>", "internal_node_id": "0.0-148.0-1.0", "time_elapsed": 1022824, "key_press": -1, "trial_index": 203}, "uniqueid": "MTK1779:3NL0RFNU0GUNSIAHWSWORIPR0QIK4J", "dateTime": 1516299702567}, {"current_trial": 204, "trialdata": {"rt": -1, "trial_type": "single-stim", "stimulus": "<p id=\"stim\">8</p>", "internal_node_id": "0.0-148.0-2.0", "time_elapsed": 1023832, "key_press": -1, "trial_index": 204}, "uniqueid": "MTK1779:3NL0RFNU0GUNSIAHWSWORIPR0QIK4J", "dateTime": 1516299703575}, {"current_trial": 205, "trialdata": {"rt": -1, "trial_type": "single-stim", "stimulus": "<p id=\"stim\">7</p>", "internal_node_id": "0.0-148.0-3.0", "time_elapsed": 1024840, "key_press": -1, "trial_index": 205}, "uniqueid": "MTK1779:3NL0RFNU0GUNSIAHWSWORIPR0QIK4J", "dateTime": 1516299704583}, {"current_trial": 206, "trialdata": {"rt": -1, "trial_type": "single-stim", "stimulus": "<p id=\"stim\">6</p>", "internal_node_id": "0.0-148.0-4.0", "time_elapsed": 1025845, "key_press": -1, "trial_index": 206}, "uniqueid": "MTK1779:3NL0RFNU0GUNSIAHWSWORIPR0QIK4J", "dateTime": 1516299705588}, {"current_trial": 207, "trialdata": {"rt": -1, "trial_type": "single-stim", "stimulus": "<p id=\"stim\">5</p>", "internal_node_id": "0.0-148.0-5.0", "time_elapsed": 1026851, "key_press": -1, "trial_index": 207}, "uniqueid": "MTK1779:3NL0RFNU0GUNSIAHWSWORIPR0QIK4J", "dateTime": 1516299706594}, {"current_trial": 208, "trialdata": {"rt": -1, "trial_type": "single-stim", "stimulus": "<p id=\"stim\">4</p>", "internal_node_id": "0.0-148.0-6.0", "time_elapsed": 1027858, "key_press": -1, "trial_index": 208}, "uniqueid": "MTK1779:3NL0RFNU0GUNSIAHWSWORIPR0QIK4J", "dateTime": 1516299707601}, {"current_trial": 209, "trialdata": {"rt": -1, "trial_type": "single-stim", "stimulus": "<p id=\"stim\">3</p>", "internal_node_id": "0.0-148.0-7.0", "time_elapsed": 1028864, "key_press": -1, "trial_index": 209}, "uniqueid": "MTK1779:3NL0RFNU0GUNSIAHWSWORIPR0QIK4J", "dateTime": 1516299708606}, {"current_trial": 210, "trialdata": {"rt": -1, "trial_type": "single-stim", "stimulus": "<p id=\"stim\">2</p>", "internal_node_id": "0.0-148.0-8.0", "time_elapsed": 1029868, "key_press": -1, "trial_index": 210}, "uniqueid": "MTK1779:3NL0RFNU0GUNSIAHWSWORIPR0QIK4J", "dateTime": 1516299709610}, {"current_trial": 211, "trialdata": {"rt": -1, "trial_type": "single-stim", "stimulus": "<p id=\"stim\">1</p>", "internal_node_id": "0.0-148.0-9.0", "time_elapsed": 1030871, "key_press": -1, "trial_index": 211}, "uniqueid": "MTK1779:3NL0RFNU0GUNSIAHWSWORIPR0QIK4J", "dateTime": 1516299710613}, {"current_trial": 212, "trialdata": {"rt": -1, "trial_type": "single-stim", "stimulus": "<p id=\"stim\">+</p>", "internal_node_id": "0.0-149.0-0.0", "time_elapsed": 1032375, "key_press": -1, "type": "FIXATION", "trial_index": 212}, "uniqueid": "MTK1779:3NL0RFNU0GUNSIAHWSWORIPR0QIK4J", "dateTime": 1516299712117}, {"current_trial": 213, "trialdata": {"rt": -1000, "trial_type": "single-audio", "word": "student", "stimulus": "/static/audio/wordpool/STUDENT.wav", "conditions": [12, 800, "a", 24000], "internal_node_id": "0.0-150.0", "trial": 6, "time_elapsed": 1033989, "serialpos": 0, "key_press": -1, "wordID": 1394, "type": "PRES_AUD", "trial_index": 213}, "uniqueid": "MTK1779:3NL0RFNU0GUNSIAHWSWORIPR0QIK4J", "dateTime": 1516299713731}, {"current_trial": 214, "trialdata": {"rt": -1000, "trial_type": "single-audio", "word": "sidewalk", "stimulus": "/static/audio/wordpool/SIDEWALK.wav", "conditions": [12, 800, "a", 24000], "internal_node_id": "0.0-151.0", "trial": 6, "time_elapsed": 1035786, "serialpos": 1, "key_press": -1, "wordID": 1302, "type": "PRES_AUD", "trial_index": 214}, "uniqueid": "MTK1779:3NL0RFNU0GUNSIAHWSWORIPR0QIK4J", "dateTime": 1516299715528}, {"current_trial": 215, "trialdata": {"rt": -1000, "trial_type": "single-audio", "word": "rabbit", "stimulus": "/static/audio/wordpool/RABBIT.wav", "conditions": [12, 800, "a", 24000], "internal_node_id": "0.0-152.0", "trial": 6, "time_elapsed": 1037737, "serialpos": 2, "key_press": -1, "wordID": 1151, "type": "PRES_AUD", "trial_index": 215}, "uniqueid": "MTK1779:3NL0RFNU0GUNSIAHWSWORIPR0QIK4J", "dateTime": 1516299717479}, {"current_trial": 216, "trialdata": {"rt": -1000, "trial_type": "single-audio", "word": "omelet", "stimulus": "/static/audio/wordpool/OMELET.wav", "conditions": [12, 800, "a", 24000], "internal_node_id": "0.0-153.0", "trial": 6, "time_elapsed": 1039455, "serialpos": 3, "key_press": -1, "wordID": 975, "type": "PRES_AUD", "trial_index": 216}, "uniqueid": "MTK1779:3NL0RFNU0GUNSIAHWSWORIPR0QIK4J", "dateTime": 1516299719197}, {"current_trial": 217, "trialdata": {"rt": -1000, "trial_type": "single-audio", "word": "pasta", "stimulus": "/static/audio/wordpool/PASTA.wav", "conditions": [12, 800, "a", 24000], "internal_node_id": "0.0-154.0", "trial": 6, "time_elapsed": 1041187, "serialpos": 4, "key_press": -1, "wordID": 1020, "type": "PRES_AUD", "trial_index": 217}, "uniqueid": "MTK1779:3NL0RFNU0GUNSIAHWSWORIPR0QIK4J", "dateTime": 1516299720930}, {"current_trial": 218, "trialdata": {"rt": -1000, "trial_type": "single-audio", "word": "beaver", "stimulus": "/static/audio/wordpool/BEAVER.wav", "conditions": [12, 800, "a", 24000], "internal_node_id": "0.0-155.0", "trial": 6, "time_elapsed": 1043131, "serialpos": 5, "key_press": -1, "wordID": 108, "type": "PRES_AUD", "trial_index": 218}, "uniqueid": "MTK1779:3NL0RFNU0GUNSIAHWSWORIPR0QIK4J", "dateTime": 1516299722873}, {"current_trial": 219, "trialdata": {"rt": -1000, "trial_type": "single-audio", "word": "maple", "stimulus": "/static/audio/wordpool/MAPLE.wav", "conditions": [12, 800, "a", 24000], "internal_node_id": "0.0-156.0", "trial": 6, "time_elapsed": 1044968, "serialpos": 6, "key_press": -1, "wordID": 865, "type": "PRES_AUD", "trial_index": 219}, "uniqueid": "MTK1779:3NL0RFNU0GUNSIAHWSWORIPR0QIK4J", "dateTime": 1516299724711}, {"current_trial": 220, "trialdata": {"rt": -1000, "trial_type": "single-audio", "word": "sausage", "stimulus": "/static/audio/wordpool/SAUSAGE.wav", "conditions": [12, 800, "a", 24000], "internal_node_id": "0.0-157.0", "trial": 6, "time_elapsed": 1046758, "serialpos": 7, "key_press": -1, "wordID": 1237, "type": "PRES_AUD", "trial_index": 220}, "uniqueid": "MTK1779:3NL0RFNU0GUNSIAHWSWORIPR0QIK4J", "dateTime": 1516299726500}, {"current_trial": 221, "trialdata": {"rt": -1000, "trial_type": "single-audio", "word": "lover", "stimulus": "/static/audio/wordpool/LOVER.wav", "conditions": [12, 800, "a", 24000], "internal_node_id": "0.0-158.0", "trial": 6, "time_elapsed": 1048673, "serialpos": 8, "key_press": -1, "wordID": 845, "type": "PRES_AUD", "trial_index": 221}, "uniqueid": "MTK1779:3NL0RFNU0GUNSIAHWSWORIPR0QIK4J", "dateTime": 1516299728416}, {"current_trial": 222, "trialdata": {"rt": -1000, "trial_type": "single-audio", "word": "office", "stimulus": "/static/audio/wordpool/OFFICE.wav", "conditions": [12, 800, "a", 24000], "internal_node_id": "0.0-159.0", "trial": 6, "time_elapsed": 1050656, "serialpos": 9, "key_press": -1, "wordID": 971, "type": "PRES_AUD", "trial_index": 222}, "uniqueid": "MTK1779:3NL0RFNU0GUNSIAHWSWORIPR0QIK4J", "dateTime": 1516299730399}, {"current_trial": 223, "trialdata": {"rt": -1000, "trial_type": "single-audio", "word": "banquet", "stimulus": "/static/audio/wordpool/BANQUET.wav", "conditions": [12, 800, "a", 24000], "internal_node_id": "0.0-160.0", "trial": 6, "time_elapsed": 1052611, "serialpos": 10, "key_press": -1, "wordID": 85, "type": "PRES_AUD", "trial_index": 223}, "uniqueid": "MTK1779:3NL0RFNU0GUNSIAHWSWORIPR0QIK4J", "dateTime": 1516299732354}, {"current_trial": 224, "trialdata": {"rt": -1000, "trial_type": "single-audio", "word": "climber", "stimulus": "/static/audio/wordpool/CLIMBER.wav", "conditions": [12, 800, "a", 24000], "internal_node_id": "0.0-161.0", "trial": 6, "time_elapsed": 1054554, "serialpos": 11, "key_press": -1, "wordID": 322, "type": "PRES_AUD", "trial_index": 224}, "uniqueid": "MTK1779:3NL0RFNU0GUNSIAHWSWORIPR0QIK4J", "dateTime": 1516299734304}, {"current_trial": 225, "trialdata": {"rt": -1, "trial_type": "single-stim", "stimulus": "", "internal_node_id": "0.0-162.0-0.0", "time_elapsed": 1055856, "key_press": -1, "type": "PRE_RECALL_DELAY", "trial_index": 225}, "uniqueid": "MTK1779:3NL0RFNU0GUNSIAHWSWORIPR0QIK4J", "dateTime": 1516299735599}, {"current_trial": 226, "trialdata": {"rt": -1000, "trial_type": "single-audio", "stimulus": "/static/audio/400Hz.wav", "internal_node_id": "0.0-163.0", "time_elapsed": 1056363, "key_press": -1, "type": "PRE_RECALL_ALERT", "trial_index": 226}, "uniqueid": "MTK1779:3NL0RFNU0GUNSIAHWSWORIPR0QIK4J", "dateTime": 1516299736106}, {"current_trial": 227, "trialdata": {"rt": [2169, 8518, 10249, 11953, 15207, 17684, 51816], "recwords": ["climber", "banquet", "office", "lover", "student", "sidewalk", "climber"], "key_times": [544, 701, 964, 1225, 1490, 1586, 1734, 2169, 2794, 2966, 5187, 7673, 7887, 8040, 8290, 8518, 9187, 9399, 9526, 9758, 9887, 10071, 10249, 10826, 11046, 11219, 11376, 11591, 11953, 13488, 13747, 13925, 14145, 14326, 14500, 14613, 15207, 15993, 16206, 16316, 16518, 16845, 17056, 17161, 17380, 17684, 23989, 50124, 50258, 50484, 50771, 51158, 51235, 51414, 51816], "trial_type": "free-recall", "conditions": [12, 800, "a", 24000], "internal_node_id": "0.0-164.0-0.0", "key_presses": [67, 76, 73, 77, 66, 69, 82, 13, 66, 65, 78, 81, 85, 69, 84, 13, 79, 70, 70, 73, 67, 69, 13, 76, 79, 86, 69, 82, 13, 83, 84, 85, 68, 69, 78, 84, 13, 83, 73, 68, 69, 87, 65, 76, 75, 13, 18, 67, 76, 73, 77, 66, 69, 82, 13], "trial": 6, "time_elapsed": 1116391, "type": "FREE_RECALL", "trial_index": 227}, "uniqueid": "MTK1779:3NL0RFNU0GUNSIAHWSWORIPR0QIK4J", "dateTime": 1516299796150}, {"current_trial": 228, "trialdata": {"rt": 2531, "trial_type": "text", "internal_node_id": "0.0-165.0", "time_elapsed": 1120950, "key_press": 32, "type": "INSTRUCTIONS", "trial_index": 228}, "uniqueid": "MTK1779:3NL0RFNU0GUNSIAHWSWORIPR0QIK4J", "dateTime": 1516299800692}, {"current_trial": 229, "trialdata": {"rt": [13729, 20270, 23304], "trial_type": "math-distractor", "key_times": [13353, 13522, 13729, 19386, 19784, 20270, 22720, 22909, 23304], "responses": ["22", "26", "16"], "num2": [6, 9, 4, 9], "num3": [7, 8, 8, 8], "conditions": [12, 800, "a", 24000], "internal_node_id": "0.0-166.0", "key_presses": [50, 50, 13, 50, 54, 13, 49, 54, 13], "trial": 7, "time_elapsed": 1146962, "type": "DISTRACTOR", "trial_index": 229, "num1": [9, 9, 4, 7]}, "uniqueid": "MTK1779:3NL0RFNU0GUNSIAHWSWORIPR0QIK4J", "dateTime": 1516299826705}, {"current_trial": 230, "trialdata": {"rt": -1, "trial_type": "single-stim", "stimulus": "<p id=\"stim\">10</p>", "internal_node_id": "0.0-167.0-0.0", "time_elapsed": 1149970, "key_press": -1, "trial_index": 230}, "uniqueid": "MTK1779:3NL0RFNU0GUNSIAHWSWORIPR0QIK4J", "dateTime": 1516299829712}, {"current_trial": 231, "trialdata": {"rt": -1, "trial_type": "single-stim", "stimulus": "<p id=\"stim\">9</p>", "internal_node_id": "0.0-167.0-1.0", "time_elapsed": 1150975, "key_press": -1, "trial_index": 231}, "uniqueid": "MTK1779:3NL0RFNU0GUNSIAHWSWORIPR0QIK4J", "dateTime": 1516299830718}, {"current_trial": 232, "trialdata": {"rt": -1, "trial_type": "single-stim", "stimulus": "<p id=\"stim\">8</p>", "internal_node_id": "0.0-167.0-2.0", "time_elapsed": 1151983, "key_press": -1, "trial_index": 232}, "uniqueid": "MTK1779:3NL0RFNU0GUNSIAHWSWORIPR0QIK4J", "dateTime": 1516299831726}, {"current_trial": 233, "trialdata": {"rt": -1, "trial_type": "single-stim", "stimulus": "<p id=\"stim\">7</p>", "internal_node_id": "0.0-167.0-3.0", "time_elapsed": 1152989, "key_press": -1, "trial_index": 233}, "uniqueid": "MTK1779:3NL0RFNU0GUNSIAHWSWORIPR0QIK4J", "dateTime": 1516299832732}, {"current_trial": 234, "trialdata": {"rt": -1, "trial_type": "single-stim", "stimulus": "<p id=\"stim\">6</p>", "internal_node_id": "0.0-167.0-4.0", "time_elapsed": 1154011, "key_press": -1, "trial_index": 234}, "uniqueid": "MTK1779:3NL0RFNU0GUNSIAHWSWORIPR0QIK4J", "dateTime": 1516299833753}, {"current_trial": 235, "trialdata": {"rt": -1, "trial_type": "single-stim", "stimulus": "<p id=\"stim\">5</p>", "internal_node_id": "0.0-167.0-5.0", "time_elapsed": 1155015, "key_press": -1, "trial_index": 235}, "uniqueid": "MTK1779:3NL0RFNU0GUNSIAHWSWORIPR0QIK4J", "dateTime": 1516299834757}, {"current_trial": 236, "trialdata": {"rt": -1, "trial_type": "single-stim", "stimulus": "<p id=\"stim\">4</p>", "internal_node_id": "0.0-167.0-6.0", "time_elapsed": 1156020, "key_press": -1, "trial_index": 236}, "uniqueid": "MTK1779:3NL0RFNU0GUNSIAHWSWORIPR0QIK4J", "dateTime": 1516299835762}, {"current_trial": 237, "trialdata": {"rt": -1, "trial_type": "single-stim", "stimulus": "<p id=\"stim\">3</p>", "internal_node_id": "0.0-167.0-7.0", "time_elapsed": 1157025, "key_press": -1, "trial_index": 237}, "uniqueid": "MTK1779:3NL0RFNU0GUNSIAHWSWORIPR0QIK4J", "dateTime": 1516299836767}, {"current_trial": 238, "trialdata": {"rt": -1, "trial_type": "single-stim", "stimulus": "<p id=\"stim\">2</p>", "internal_node_id": "0.0-167.0-8.0", "time_elapsed": 1158065, "key_press": -1, "trial_index": 238}, "uniqueid": "MTK1779:3NL0RFNU0GUNSIAHWSWORIPR0QIK4J", "dateTime": 1516299837808}, {"current_trial": 239, "trialdata": {"rt": -1, "trial_type": "single-stim", "stimulus": "<p id=\"stim\">1</p>", "internal_node_id": "0.0-167.0-9.0", "time_elapsed": 1159072, "key_press": -1, "trial_index": 239}, "uniqueid": "MTK1779:3NL0RFNU0GUNSIAHWSWORIPR0QIK4J", "dateTime": 1516299838814}, {"current_trial": 240, "trialdata": {"rt": -1, "trial_type": "single-stim", "stimulus": "<p id=\"stim\">+</p>", "internal_node_id": "0.0-168.0-0.0", "time_elapsed": 1160575, "key_press": -1, "type": "FIXATION", "trial_index": 240}, "uniqueid": "MTK1779:3NL0RFNU0GUNSIAHWSWORIPR0QIK4J", "dateTime": 1516299840318}, {"current_trial": 241, "trialdata": {"rt": -1000, "trial_type": "single-audio", "word": "beaker", "stimulus": "/static/audio/wordpool/BEAKER.wav", "conditions": [12, 800, "a", 24000], "internal_node_id": "0.0-169.0", "trial": 7, "time_elapsed": 1162330, "serialpos": 0, "key_press": -1, "wordID": 103, "type": "PRES_AUD", "trial_index": 241}, "uniqueid": "MTK1779:3NL0RFNU0GUNSIAHWSWORIPR0QIK4J", "dateTime": 1516299842073}, {"current_trial": 242, "trialdata": {"rt": -1000, "trial_type": "single-audio", "word": "dandruff", "stimulus": "/static/audio/wordpool/DANDRUFF.wav", "conditions": [12, 800, "a", 24000], "internal_node_id": "0.0-170.0", "trial": 7, "time_elapsed": 1163981, "serialpos": 1, "key_press": -1, "wordID": 438, "type": "PRES_AUD", "trial_index": 242}, "uniqueid": "MTK1779:3NL0RFNU0GUNSIAHWSWORIPR0QIK4J", "dateTime": 1516299843724}, {"current_trial": 243, "trialdata": {"rt": -1000, "trial_type": "single-audio", "word": "agent", "stimulus": "/static/audio/wordpool/AGENT.wav", "conditions": [12, 800, "a", 24000], "internal_node_id": "0.0-171.0", "trial": 7, "time_elapsed": 1165866, "serialpos": 2, "key_press": -1, "wordID": 9, "type": "PRES_AUD", "trial_index": 243}, "uniqueid": "MTK1779:3NL0RFNU0GUNSIAHWSWORIPR0QIK4J", "dateTime": 1516299845608}, {"current_trial": 244, "trialdata": {"rt": -1000, "trial_type": "single-audio", "word": "temple", "stimulus": "/static/audio/wordpool/TEMPLE.wav", "conditions": [12, 800, "a", 24000], "internal_node_id": "0.0-172.0", "trial": 7, "time_elapsed": 1167665, "serialpos": 3, "key_press": -1, "wordID": 1447, "type": "PRES_AUD", "trial_index": 244}, "uniqueid": "MTK1779:3NL0RFNU0GUNSIAHWSWORIPR0QIK4J", "dateTime": 1516299847407}, {"current_trial": 245, "trialdata": {"rt": -1000, "trial_type": "single-audio", "word": "viking", "stimulus": "/static/audio/wordpool/VIKING.wav", "conditions": [12, 800, "a", 24000], "internal_node_id": "0.0-173.0", "trial": 7, "time_elapsed": 1169338, "serialpos": 4, "key_press": -1, "wordID": 1564, "type": "PRES_AUD", "trial_index": 245}, "uniqueid": "MTK1779:3NL0RFNU0GUNSIAHWSWORIPR0QIK4J", "dateTime": 1516299849081}, {"current_trial": 246, "trialdata": {"rt": -1000, "trial_type": "single-audio", "word": "stove", "stimulus": "/static/audio/wordpool/STOVE.wav", "conditions": [12, 800, "a", 24000], "internal_node_id": "0.0-174.0", "trial": 7, "time_elapsed": 1171150, "serialpos": 5, "key_press": -1, "wordID": 1387, "type": "PRES_AUD", "trial_index": 246}, "uniqueid": "MTK1779:3NL0RFNU0GUNSIAHWSWORIPR0QIK4J", "dateTime": 1516299850893}, {"current_trial": 247, "trialdata": {"rt": -1000, "trial_type": "single-audio", "word": "shelf", "stimulus": "/static/audio/wordpool/SHELF.wav", "conditions": [12, 800, "a", 24000], "internal_node_id": "0.0-175.0", "trial": 7, "time_elapsed": 1173057, "serialpos": 6, "key_press": -1, "wordID": 1279, "type": "PRES_AUD", "trial_index": 247}, "uniqueid": "MTK1779:3NL0RFNU0GUNSIAHWSWORIPR0QIK4J", "dateTime": 1516299852799}, {"current_trial": 248, "trialdata": {"rt": -1000, "trial_type": "single-audio", "word": "rattle", "stimulus": "/static/audio/wordpool/RATTLE.wav", "conditions": [12, 800, "a", 24000], "internal_node_id": "0.0-176.0", "trial": 7, "time_elapsed": 1174709, "serialpos": 7, "key_press": -1, "wordID": 1169, "type": "PRES_AUD", "trial_index": 248}, "uniqueid": "MTK1779:3NL0RFNU0GUNSIAHWSWORIP