{"condition": 0, "counterbalance": 110, "assignmentId": "3Z3ZLGNNSJ1OLPP89JB2DZ9UIBFQ3O", "workerId": "MTK1090", "hitId": "34YWR3PJ28HAQATTM8J9GPBWWSBX0F", "currenttrial": 626, "bonus": 0, "data": [{"uniqueid": "MTK1090:3Z3ZLGNNSJ1OLPP89JB2DZ9UIBFQ3O", "current_trial": 0, "dateTime": 1513101949424, "trialdata": {"rt": 2967, "key_press": 32, "type": "INSTRUCTIONS", "trial_type": "text", "trial_index": 0, "time_elapsed": 2978, "internal_node_id": "0.0-0.0"}}, {"uniqueid": "MTK1090:3Z3ZLGNNSJ1OLPP89JB2DZ9UIBFQ3O", "current_trial": 1, "dateTime": 1513101989106, "trialdata": {"rt": 39678, "key_press": 78, "type": "INSTRUCTIONS", "trial_type": "text", "trial_index": 1, "time_elapsed": 42661, "internal_node_id": "0.0-1.0"}}, {"uniqueid": "MTK1090:3Z3ZLGNNSJ1OLPP89JB2DZ9UIBFQ3O", "current_trial": 2, "dateTime": 1513101996443, "trialdata": {"rt": [7300], "responses": ["ocean"], "type": "AUDIO_TEST", "trial_type": "audio-test", "trial_index": 2, "time_elapsed": 49998, "internal_node_id": "0.0-2.0"}}, {"uniqueid": "MTK1090:3Z3ZLGNNSJ1OLPP89JB2DZ9UIBFQ3O", "current_trial": 3, "dateTime": 1513102004370, "trialdata": {"rt": [7913], "responses": ["crystal"], "type": "AUDIO_TEST", "trial_type": "audio-test", "trial_index": 3, "time_elapsed": 57924, "internal_node_id": "0.0-3.0"}}, {"uniqueid": "MTK1090:3Z3ZLGNNSJ1OLPP89JB2DZ9UIBFQ3O", "current_trial": 4, "dateTime": 1513102011101, "trialdata": {"rt": [6721], "responses": ["spice"], "type": "AUDIO_TEST", "trial_type": "audio-test", "trial_index": 4, "time_elapsed": 64656, "internal_node_id": "0.0-4.0"}}, {"uniqueid": "MTK1090:3Z3ZLGNNSJ1OLPP89JB2DZ9UIBFQ3O", "current_trial": 5, "dateTime": 1513102048705, "trialdata": {"rt": 36847, "responses": "{\"Q0\":\"11:00pm\",\"Q1\":\"6:45pm\",\"Q2\":\"7\"}", "type": "SLEEP_SURVEY", "trial_type": "survey-text", "trial_index": 5, "time_elapsed": 102260, "internal_node_id": "0.0-5.0"}}, {"uniqueid": "MTK1090:3Z3ZLGNNSJ1OLPP89JB2DZ9UIBFQ3O", "current_trial": 6, "dateTime": 1513102066063, "trialdata": {"rt": 16353, "key_press": 75, "type": "INSTRUCTIONS", "trial_type": "text", "trial_index": 6, "time_elapsed": 119617, "internal_node_id": "0.0-6.0"}}, {"uniqueid": "MTK1090:3Z3ZLGNNSJ1OLPP89JB2DZ9UIBFQ3O", "current_trial": 7, "dateTime": 1513102080413, "trialdata": {"rt": 13845, "key_press": 32, "type": "INSTRUCTIONS", "trial_type": "text", "trial_index": 7, "time_elapsed": 133967, "internal_node_id": "0.0-7.0"}}, {"uniqueid": "MTK1090:3Z3ZLGNNSJ1OLPP89JB2DZ9UIBFQ3O", "current_trial": 8, "dateTime": 1513102091027, "trialdata": {"rt": 10109, "key_press": 32, "type": "INSTRUCTIONS", "trial_type": "text", "trial_index": 8, "time_elapsed": 144581, "internal_node_id": "0.0-8.0"}}, {"uniqueid": "MTK1090:3Z3ZLGNNSJ1OLPP89JB2DZ9UIBFQ3O", "current_trial": 9, "dateTime": 1513102110055, "trialdata": {"rt": [2962, 7212, 14884, 17213], "responses": ["12", "15", "14", "16"], "num1": [2, 6, 6, 6, 1], "num2": [8, 2, 9, 5, 8], "num3": [2, 7, 1, 5, 4], "type": "DISTRACTOR", "conditions": [18, 1200, "v", 18000], "trial": 0, "trial_type": "math-distractor", "trial_index": 9, "time_elapsed": 163610, "internal_node_id": "0.0-9.0"}}, {"uniqueid": "MTK1090:3Z3ZLGNNSJ1OLPP89JB2DZ9UIBFQ3O", "current_trial": 10, "dateTime": 1513102113067, "trialdata": {"rt": -1, "stimulus": "<p id=\"stim\">10</p>", "key_press": -1, "trial_type": "single-stim", "trial_index": 10, "time_elapsed": 166621, "internal_node_id": "0.0-10.0-0.0"}}, {"uniqueid": "MTK1090:3Z3ZLGNNSJ1OLPP89JB2DZ9UIBFQ3O", "current_trial": 11, "dateTime": 1513102114071, "trialdata": {"rt": -1, "stimulus": "<p id=\"stim\">9</p>", "key_press": -1, "trial_type": "single-stim", "trial_index": 11, "time_elapsed": 167625, "internal_node_id": "0.0-10.0-1.0"}}, {"uniqueid": "MTK1090:3Z3ZLGNNSJ1OLPP89JB2DZ9UIBFQ3O", "current_trial": 12, "dateTime": 1513102115075, "trialdata": {"rt": -1, "stimulus": "<p id=\"stim\">8</p>", "key_press": -1, "trial_type": "single-stim", "trial_index": 12, "time_elapsed": 168630, "internal_node_id": "0.0-10.0-2.0"}}, {"uniqueid": "MTK1090:3Z3ZLGNNSJ1OLPP89JB2DZ9UIBFQ3O", "current_trial": 13, "dateTime": 1513102116080, "trialdata": {"rt": -1, "stimulus": "<p id=\"stim\">7</p>", "key_press": -1, "trial_type": "single-stim", "trial_index": 13, "time_elapsed": 169635, "internal_node_id": "0.0-10.0-3.0"}}, {"uniqueid": "MTK1090:3Z3ZLGNNSJ1OLPP89JB2DZ9UIBFQ3O", "current_trial": 14, "dateTime": 1513102117084, "trialdata": {"rt": -1, "stimulus": "<p id=\"stim\">6</p>", "key_press": -1, "trial_type": "single-stim", "trial_index": 14, "time_elapsed": 170639, "internal_node_id": "0.0-10.0-4.0"}}, {"uniqueid": "MTK1090:3Z3ZLGNNSJ1OLPP89JB2DZ9UIBFQ3O", "current_trial": 15, "dateTime": 1513102118089, "trialdata": {"rt": -1, "stimulus": "<p id=\"stim\">5</p>", "key_press": -1, "trial_type": "single-stim", "trial_index": 15, "time_elapsed": 171644, "internal_node_id": "0.0-10.0-5.0"}}, {"uniqueid": "MTK1090:3Z3ZLGNNSJ1OLPP89JB2DZ9UIBFQ3O", "current_trial": 16, "dateTime": 1513102119093, "trialdata": {"rt": -1, "stimulus": "<p id=\"stim\">4</p>", "key_press": -1, "trial_type": "single-stim", "trial_index": 16, "time_elapsed": 172648, "internal_node_id": "0.0-10.0-6.0"}}, {"uniqueid": "MTK1090:3Z3ZLGNNSJ1OLPP89JB2DZ9UIBFQ3O", "current_trial": 17, "dateTime": 1513102120102, "trialdata": {"rt": -1, "stimulus": "<p id=\"stim\">3</p>", "key_press": -1, "trial_type": "single-stim", "trial_index": 17, "time_elapsed": 173657, "internal_node_id": "0.0-10.0-7.0"}}, {"uniqueid": "MTK1090:3Z3ZLGNNSJ1OLPP89JB2DZ9UIBFQ3O", "current_trial": 18, "dateTime": 1513102121106, "trialdata": {"rt": -1, "stimulus": "<p id=\"stim\">2</p>", "key_press": -1, "trial_type": "single-stim", "trial_index": 18, "time_elapsed": 174661, "internal_node_id": "0.0-10.0-8.0"}}, {"uniqueid": "MTK1090:3Z3ZLGNNSJ1OLPP89JB2DZ9UIBFQ3O", "current_trial": 19, "dateTime": 1513102122110, "trialdata": {"rt": -1, "stimulus": "<p id=\"stim\">1</p>", "key_press": -1, "trial_type": "single-stim", "trial_index": 19, "time_elapsed": 175665, "internal_node_id": "0.0-10.0-9.0"}}, {"uniqueid": "MTK1090:3Z3ZLGNNSJ1OLPP89JB2DZ9UIBFQ3O", "current_trial": 20, "dateTime": 1513102123616, "trialdata": {"rt": -1, "stimulus": "<p id=\"stim\">+</p>", "key_press": -1, "type": "FIXATION", "trial_type": "single-stim", "trial_index": 20, "time_elapsed": 177169, "internal_node_id": "0.0-11.0-0.0"}}, {"uniqueid": "MTK1090:3Z3ZLGNNSJ1OLPP89JB2DZ9UIBFQ3O", "current_trial": 21, "dateTime": 1513102124820, "trialdata": {"rt": -1, "stimulus": "<p id=\"stim\">VALVE</p>", "key_press": -1, "type": "PRES_VIS", "word": "valve", "wordID": 1545, "conditions": [18, 1200, "v", 18000], "trial": 0, "serialpos": 0, "trial_type": "single-stim", "trial_index": 21, "time_elapsed": 178374, "internal_node_id": "0.0-12.0"}}, {"uniqueid": "MTK1090:3Z3ZLGNNSJ1OLPP89JB2DZ9UIBFQ3O", "current_trial": 22, "dateTime": 1513102127093, "trialdata": {"rt": -1, "stimulus": "<p id=\"stim\">LIPSTICK</p>", "key_press": -1, "type": "PRES_VIS", "word": "lipstick", "wordID": 828, "conditions": [18, 1200, "v", 18000], "trial": 0, "serialpos": 1, "trial_type": "single-stim", "trial_index": 22, "time_elapsed": 180648, "internal_node_id": "0.0-13.0"}}, {"uniqueid": "MTK1090:3Z3ZLGNNSJ1OLPP89JB2DZ9UIBFQ3O", "current_trial": 23, "dateTime": 1513102129277, "trialdata": {"rt": -1, "stimulus": "<p id=\"stim\">OINTMENT</p>", "key_press": -1, "type": "PRES_VIS", "word": "ointment", "wordID": 973, "conditions": [18, 1200, "v", 18000], "trial": 0, "serialpos": 2, "trial_type": "single-stim", "trial_index": 23, "time_elapsed": 182832, "internal_node_id": "0.0-14.0"}}, {"uniqueid": "MTK1090:3Z3ZLGNNSJ1OLPP89JB2DZ9UIBFQ3O", "current_trial": 24, "dateTime": 1513102131331, "trialdata": {"rt": -1, "stimulus": "<p id=\"stim\">ROCKET</p>", "key_press": -1, "type": "PRES_VIS", "word": "rocket", "wordID": 1201, "conditions": [18, 1200, "v", 18000], "trial": 0, "serialpos": 3, "trial_type": "single-stim", "trial_index": 24, "time_elapsed": 184886, "internal_node_id": "0.0-15.0"}}, {"uniqueid": "MTK1090:3Z3ZLGNNSJ1OLPP89JB2DZ9UIBFQ3O", "current_trial": 25, "dateTime": 1513102133705, "trialdata": {"rt": -1, "stimulus": "<p id=\"stim\">MILK</p>", "key_press": -1, "type": "PRES_VIS", "word": "milk", "wordID": 894, "conditions": [18, 1200, "v", 18000], "trial": 0, "serialpos": 4, "trial_type": "single-stim", "trial_index": 25, "time_elapsed": 187259, "internal_node_id": "0.0-16.0"}}, {"uniqueid": "MTK1090:3Z3ZLGNNSJ1OLPP89JB2DZ9UIBFQ3O", "current_trial": 26, "dateTime": 1513102135772, "trialdata": {"rt": -1, "stimulus": "<p id=\"stim\">CIGAR</p>", "key_press": -1, "type": "PRES_VIS", "word": "cigar", "wordID": 307, "conditions": [18, 1200, "v", 18000], "trial": 0, "serialpos": 5, "trial_type": "single-stim", "trial_index": 26, "time_elapsed": 189327, "internal_node_id": "0.0-17.0"}}, {"uniqueid": "MTK1090:3Z3ZLGNNSJ1OLPP89JB2DZ9UIBFQ3O", "current_trial": 27, "dateTime": 1513102137902, "trialdata": {"rt": -1, "stimulus": "<p id=\"stim\">FLUTE</p>", "key_press": -1, "type": "PRES_VIS", "word": "flute", "wordID": 584, "conditions": [18, 1200, "v", 18000], "trial": 0, "serialpos": 6, "trial_type": "single-stim", "trial_index": 27, "time_elapsed": 191457, "internal_node_id": "0.0-18.0"}}, {"uniqueid": "MTK1090:3Z3ZLGNNSJ1OLPP89JB2DZ9UIBFQ3O", "current_trial": 28, "dateTime": 1513102140013, "trialdata": {"rt": -1, "stimulus": "<p id=\"stim\">PIGMENT</p>", "key_press": -1, "type": "PRES_VIS", "word": "pigment", "wordID": 1065, "conditions": [18, 1200, "v", 18000], "trial": 0, "serialpos": 7, "trial_type": "single-stim", "trial_index": 28, "time_elapsed": 193568, "internal_node_id": "0.0-19.0"}}, {"uniqueid": "MTK1090:3Z3ZLGNNSJ1OLPP89JB2DZ9UIBFQ3O", "current_trial": 29, "dateTime": 1513102142189, "trialdata": {"rt": -1, "stimulus": "<p id=\"stim\">SADDLE</p>", "key_press": -1, "type": "PRES_VIS", "word": "saddle", "wordID": 1220, "conditions": [18, 1200, "v", 18000], "trial": 0, "serialpos": 8, "trial_type": "single-stim", "trial_index": 29, "time_elapsed": 195743, "internal_node_id": "0.0-20.0"}}, {"uniqueid": "MTK1090:3Z3ZLGNNSJ1OLPP89JB2DZ9UIBFQ3O", "current_trial": 30, "dateTime": 1513102144559, "trialdata": {"rt": -1, "stimulus": "<p id=\"stim\">WITNESS</p>", "key_press": -1, "type": "PRES_VIS", "word": "witness", "wordID": 1617, "conditions": [18, 1200, "v", 18000], "trial": 0, "serialpos": 9, "trial_type": "single-stim", "trial_index": 30, "time_elapsed": 198114, "internal_node_id": "0.0-21.0"}}, {"uniqueid": "MTK1090:3Z3ZLGNNSJ1OLPP89JB2DZ9UIBFQ3O", "current_trial": 31, "dateTime": 1513102146702, "trialdata": {"rt": -1, "stimulus": "<p id=\"stim\">SERVANT</p>", "key_press": -1, "type": "PRES_VIS", "word": "servant", "wordID": 1270, "conditions": [18, 1200, "v", 18000], "trial": 0, "serialpos": 10, "trial_type": "single-stim", "trial_index": 31, "time_elapsed": 200257, "internal_node_id": "0.0-22.0"}}, {"uniqueid": "MTK1090:3Z3ZLGNNSJ1OLPP89JB2DZ9UIBFQ3O", "current_trial": 32, "dateTime": 1513102149067, "trialdata": {"rt": -1, "stimulus": "<p id=\"stim\">TUTU</p>", "key_press": -1, "type": "PRES_VIS", "word": "tutu", "wordID": 1523, "conditions": [18, 1200, "v", 18000], "trial": 0, "serialpos": 11, "trial_type": "single-stim", "trial_index": 32, "time_elapsed": 202622, "internal_node_id": "0.0-23.0"}}, {"uniqueid": "MTK1090:3Z3ZLGNNSJ1OLPP89JB2DZ9UIBFQ3O", "current_trial": 33, "dateTime": 1513102151098, "trialdata": {"rt": -1, "stimulus": "<p id=\"stim\">STATUE</p>", "key_press": -1, "type": "PRES_VIS", "word": "statue", "wordID": 1373, "conditions": [18, 1200, "v", 18000], "trial": 0, "serialpos": 12, "trial_type": "single-stim", "trial_index": 33, "time_elapsed": 204653, "internal_node_id": "0.0-24.0"}}, {"uniqueid": "MTK1090:3Z3ZLGNNSJ1OLPP89JB2DZ9UIBFQ3O", "current_trial": 34, "dateTime": 1513102153358, "trialdata": {"rt": -1, "stimulus": "<p id=\"stim\">DRILL</p>", "key_press": -1, "type": "PRES_VIS", "word": "drill", "wordID": 496, "conditions": [18, 1200, "v", 18000], "trial": 0, "serialpos": 13, "trial_type": "single-stim", "trial_index": 34, "time_elapsed": 206913, "internal_node_id": "0.0-25.0"}}, {"uniqueid": "MTK1090:3Z3ZLGNNSJ1OLPP89JB2DZ9UIBFQ3O", "current_trial": 35, "dateTime": 1513102155394, "trialdata": {"rt": -1, "stimulus": "<p id=\"stim\">BUNNY</p>", "key_press": -1, "type": "PRES_VIS", "word": "bunny", "wordID": 197, "conditions": [18, 1200, "v", 18000], "trial": 0, "serialpos": 14, "trial_type": "single-stim", "trial_index": 35, "time_elapsed": 208948, "internal_node_id": "0.0-26.0"}}, {"uniqueid": "MTK1090:3Z3ZLGNNSJ1OLPP89JB2DZ9UIBFQ3O", "current_trial": 36, "dateTime": 1513102157793, "trialdata": {"rt": -1, "stimulus": "<p id=\"stim\">LADY</p>", "key_press": -1, "type": "PRES_VIS", "word": "lady", "wordID": 793, "conditions": [18, 1200, "v", 18000], "trial": 0, "serialpos": 15, "trial_type": "single-stim", "trial_index": 36, "time_elapsed": 211348, "internal_node_id": "0.0-27.0"}}, {"uniqueid": "MTK1090:3Z3ZLGNNSJ1OLPP89JB2DZ9UIBFQ3O", "current_trial": 37, "dateTime": 1513102159916, "trialdata": {"rt": -1, "stimulus": "<p id=\"stim\">HELMET</p>", "key_press": -1, "type": "PRES_VIS", "word": "helmet", "wordID": 701, "conditions": [18, 1200, "v", 18000], "trial": 0, "serialpos": 16, "trial_type": "single-stim", "trial_index": 37, "time_elapsed": 213471, "internal_node_id": "0.0-28.0"}}, {"uniqueid": "MTK1090:3Z3ZLGNNSJ1OLPP89JB2DZ9UIBFQ3O", "current_trial": 38, "dateTime": 1513102162035, "trialdata": {"rt": -1, "stimulus": "<p id=\"stim\">PICTURE</p>", "key_press": -1, "type": "PRES_VIS", "word": "picture", "wordID": 1060, "conditions": [18, 1200, "v", 18000], "trial": 0, "serialpos": 17, "trial_type": "single-stim", "trial_index": 38, "time_elapsed": 215590, "internal_node_id": "0.0-29.0"}}, {"uniqueid": "MTK1090:3Z3ZLGNNSJ1OLPP89JB2DZ9UIBFQ3O", "current_trial": 39, "dateTime": 1513102164280, "trialdata": {"rt": -1, "stimulus": "", "key_press": -1, "type": "PRE_RECALL_DELAY", "trial_type": "single-stim", "trial_index": 39, "time_elapsed": 217835, "internal_node_id": "0.0-30.0-0.0"}}, {"uniqueid": "MTK1090:3Z3ZLGNNSJ1OLPP89JB2DZ9UIBFQ3O", "current_trial": 40, "dateTime": 1513102164790, "trialdata": {"rt": -1000, "stimulus": "/static/audio/400Hz.wav", "key_press": -1, "type": "PRE_RECALL_ALERT", "trial_type": "single-audio", "trial_index": 40, "time_elapsed": 218345, "internal_node_id": "0.0-31.0"}}, {"uniqueid": "MTK1090:3Z3ZLGNNSJ1OLPP89JB2DZ9UIBFQ3O", "current_trial": 41, "dateTime": 1513102224816, "trialdata": {"rt": [5424, 5664, 9345, 11866, 56026], "recwords": ["bunny", "", "valve", "lipstick", "miror"], "type": "FREE_RECALL", "conditions": [18, 1200, "v", 18000], "trial": 0, "trial_type": "free-recall", "trial_index": 41, "time_elapsed": 278354, "internal_node_id": "0.0-32.0-0.0"}}, {"uniqueid": "MTK1090:3Z3ZLGNNSJ1OLPP89JB2DZ9UIBFQ3O", "current_trial": 42, "dateTime": 1513102228809, "trialdata": {"rt": 1989, "key_press": 32, "type": "INSTRUCTIONS", "trial_type": "text", "trial_index": 42, "time_elapsed": 282364, "internal_node_id": "0.0-33.0"}}, {"uniqueid": "MTK1090:3Z3ZLGNNSJ1OLPP89JB2DZ9UIBFQ3O", "current_trial": 43, "dateTime": 1513102248821, "trialdata": {"rt": [], "responses": [], "num1": [6], "num2": [9], "num3": [2], "type": "DISTRACTOR", "conditions": [18, 1200, "a", 18000], "trial": 1, "trial_type": "math-distractor", "trial_index": 43, "time_elapsed": 302376, "internal_node_id": "0.0-34.0"}}, {"uniqueid": "MTK1090:3Z3ZLGNNSJ1OLPP89JB2DZ9UIBFQ3O", "current_trial": 44, "dateTime": 1513102251828, "trialdata": {"rt": -1, "stimulus": "<p id=\"stim\">10</p>", "key_press": -1, "trial_type": "single-stim", "trial_index": 44, "time_elapsed": 305383, "internal_node_id": "0.0-35.0-0.0"}}, {"uniqueid": "MTK1090:3Z3ZLGNNSJ1OLPP89JB2DZ9UIBFQ3O", "current_trial": 45, "dateTime": 1513102252831, "trialdata": {"rt": -1, "stimulus": "<p id=\"stim\">9</p>", "key_press": -1, "trial_type": "single-stim", "trial_index": 45, "time_elapsed": 306386, "internal_node_id": "0.0-35.0-1.0"}}, {"uniqueid": "MTK1090:3Z3ZLGNNSJ1OLPP89JB2DZ9UIBFQ3O", "current_trial": 46, "dateTime": 1513102253835, "trialdata": {"rt": -1, "stimulus": "<p id=\"stim\">8</p>", "key_press": -1, "trial_type": "single-stim", "trial_index": 46, "time_elapsed": 307389, "internal_node_id": "0.0-35.0-2.0"}}, {"uniqueid": "MTK1090:3Z3ZLGNNSJ1OLPP89JB2DZ9UIBFQ3O", "current_trial": 47, "dateTime": 1513102254841, "trialdata": {"rt": -1, "stimulus": "<p id=\"stim\">7</p>", "key_press": -1, "trial_type": "single-stim", "trial_index": 47, "time_elapsed": 308395, "internal_node_id": "0.0-35.0-3.0"}}, {"uniqueid": "MTK1090:3Z3ZLGNNSJ1OLPP89JB2DZ9UIBFQ3O", "current_trial": 48, "dateTime": 1513102255846, "trialdata": {"rt": -1, "stimulus": "<p id=\"stim\">6</p>", "key_press": -1, "trial_type": "single-stim", "trial_index": 48, "time_elapsed": 309401, "internal_node_id": "0.0-35.0-4.0"}}, {"uniqueid": "MTK1090:3Z3ZLGNNSJ1OLPP89JB2DZ9UIBFQ3O", "current_trial": 49, "dateTime": 1513102256850, "trialdata": {"rt": -1, "stimulus": "<p id=\"stim\">5</p>", "key_press": -1, "trial_type": "single-stim", "trial_index": 49, "time_elapsed": 310403, "internal_node_id": "0.0-35.0-5.0"}}, {"uniqueid": "MTK1090:3Z3ZLGNNSJ1OLPP89JB2DZ9UIBFQ3O", "current_trial": 50, "dateTime": 1513102257854, "trialdata": {"rt": -1, "stimulus": "<p id=\"stim\">4</p>", "key_press": -1, "trial_type": "single-stim", "trial_index": 50, "time_elapsed": 311408, "internal_node_id": "0.0-35.0-6.0"}}, {"uniqueid": "MTK1090:3Z3ZLGNNSJ1OLPP89JB2DZ9UIBFQ3O", "current_trial": 51, "dateTime": 1513102258864, "trialdata": {"rt": -1, "stimulus": "<p id=\"stim\">3</p>", "key_press": -1, "trial_type": "single-stim", "trial_index": 51, "time_elapsed": 312416, "internal_node_id": "0.0-35.0-7.0"}}, {"uniqueid": "MTK1090:3Z3ZLGNNSJ1OLPP89JB2DZ9UIBFQ3O", "current_trial": 52, "dateTime": 1513102259874, "trialdata": {"rt": -1, "stimulus": "<p id=\"stim\">2</p>", "key_press": -1, "trial_type": "single-stim", "trial_index": 52, "time_elapsed": 313429, "internal_node_id": "0.0-35.0-8.0"}}, {"uniqueid": "MTK1090:3Z3ZLGNNSJ1OLPP89JB2DZ9UIBFQ3O", "current_trial": 53, "dateTime": 1513102260886, "trialdata": {"rt": -1, "stimulus": "<p id=\"stim\">1</p>", "key_press": -1, "trial_type": "single-stim", "trial_index": 53, "time_elapsed": 314441, "internal_node_id": "0.0-35.0-9.0"}}, {"uniqueid": "MTK1090:3Z3ZLGNNSJ1OLPP89JB2DZ9UIBFQ3O", "current_trial": 54, "dateTime": 1513102262389, "trialdata": {"rt": -1, "stimulus": "<p id=\"stim\">+</p>", "key_press": -1, "type": "FIXATION", "trial_type": "single-stim", "trial_index": 54, "time_elapsed": 315943, "internal_node_id": "0.0-36.0-0.0"}}, {"uniqueid": "MTK1090:3Z3ZLGNNSJ1OLPP89JB2DZ9UIBFQ3O", "current_trial": 55, "dateTime": 1513102264464, "trialdata": {"rt": -1000, "stimulus": "/static/audio/wordpool/FLASHLIGHT.wav", "key_press": -1, "type": "PRES_AUD", "word": "flashlight", "wordID": 574, "conditions": [18, 1200, "a", 18000], "trial": 1, "serialpos": 0, "trial_type": "single-audio", "trial_index": 55, "time_elapsed": 318018, "internal_node_id": "0.0-37.0"}}, {"uniqueid": "MTK1090:3Z3ZLGNNSJ1OLPP89JB2DZ9UIBFQ3O", "current_trial": 56, "dateTime": 1513102266865, "trialdata": {"rt": -1000, "stimulus": "/static/audio/wordpool/THREAD.wav", "key_press": -1, "type": "PRES_AUD", "word": "thread", "wordID": 1459, "conditions": [18, 1200, "a", 18000], "trial": 1, "serialpos": 1, "trial_type": "single-audio", "trial_index": 56, "time_elapsed": 320420, "internal_node_id": "0.0-38.0"}}, {"uniqueid": "MTK1090:3Z3ZLGNNSJ1OLPP89JB2DZ9UIBFQ3O", "current_trial": 57, "dateTime": 1513102269075, "trialdata": {"rt": -1000, "stimulus": "/static/audio/wordpool/ICEBERG.wav", "key_press": -1, "type": "PRES_AUD", "word": "iceberg", "wordID": 730, "conditions": [18, 1200, "a", 18000], "trial": 1, "serialpos": 2, "trial_type": "single-audio", "trial_index": 57, "time_elapsed": 322630, "internal_node_id": "0.0-39.0"}}, {"uniqueid": "MTK1090:3Z3ZLGNNSJ1OLPP89JB2DZ9UIBFQ3O", "current_trial": 58, "dateTime": 1513102271251, "trialdata": {"rt": -1000, "stimulus": "/static/audio/wordpool/MOTOR.wav", "key_press": -1, "type": "PRES_AUD", "word": "motor", "wordID": 921, "conditions": [18, 1200, "a", 18000], "trial": 1, "serialpos": 3, "trial_type": "single-audio", "trial_index": 58, "time_elapsed": 324804, "internal_node_id": "0.0-40.0"}}, {"uniqueid": "MTK1090:3Z3ZLGNNSJ1OLPP89JB2DZ9UIBFQ3O", "current_trial": 59, "dateTime": 1513102273436, "trialdata": {"rt": -1000, "stimulus": "/static/audio/wordpool/PUDDLE.wav", "key_press": -1, "type": "PRES_AUD", "word": "puddle", "wordID": 1139, "conditions": [18, 1200, "a", 18000], "trial": 1, "serialpos": 4, "trial_type": "single-audio", "trial_index": 59, "time_elapsed": 326991, "internal_node_id": "0.0-41.0"}}, {"uniqueid": "MTK1090:3Z3ZLGNNSJ1OLPP89JB2DZ9UIBFQ3O", "current_trial": 60, "dateTime": 1513102275773, "trialdata": {"rt": -1000, "stimulus": "/static/audio/wordpool/EXPERT.wav", "key_press": -1, "type": "PRES_AUD", "word": "expert", "wordID": 542, "conditions": [18, 1200, "a", 18000], "trial": 1, "serialpos": 5, "trial_type": "single-audio", "trial_index": 60, "time_elapsed": 329327, "internal_node_id": "0.0-42.0"}}, {"uniqueid": "MTK1090:3Z3ZLGNNSJ1OLPP89JB2DZ9UIBFQ3O", "current_trial": 61, "dateTime": 1513102278158, "trialdata": {"rt": -1000, "stimulus": "/static/audio/wordpool/POCKET.wav", "key_press": -1, "type": "PRES_AUD", "word": "pocket", "wordID": 1092, "conditions": [18, 1200, "a", 18000], "trial": 1, "serialpos": 6, "trial_type": "single-audio", "trial_index": 61, "time_elapsed": 331713, "internal_node_id": "0.0-43.0"}}, {"uniqueid": "MTK1090:3Z3ZLGNNSJ1OLPP89JB2DZ9UIBFQ3O", "current_trial": 62, "dateTime": 1513102280246, "trialdata": {"rt": -1000, "stimulus": "/static/audio/wordpool/CASHEW.wav", "key_press": -1, "type": "PRES_AUD", "word": "cashew", "wordID": 252, "conditions": [18, 1200, "a", 18000], "trial": 1, "serialpos": 7, "trial_type": "single-audio", "trial_index": 62, "time_elapsed": 333801, "internal_node_id": "0.0-44.0"}}, {"uniqueid": "MTK1090:3Z3ZLGNNSJ1OLPP89JB2DZ9UIBFQ3O", "current_trial": 63, "dateTime": 1513102282455, "trialdata": {"rt": -1000, "stimulus": "/static/audio/wordpool/HOSTESS.wav", "key_press": -1, "type": "PRES_AUD", "word": "hostess", "wordID": 722, "conditions": [18, 1200, "a", 18000], "trial": 1, "serialpos": 8, "trial_type": "single-audio", "trial_index": 63, "time_elapsed": 336010, "internal_node_id": "0.0-45.0"}}, {"uniqueid": "MTK1090:3Z3ZLGNNSJ1OLPP89JB2DZ9UIBFQ3O", "current_trial": 64, "dateTime": 1513102284808, "trialdata": {"rt": -1000, "stimulus": "/static/audio/wordpool/WRENCH.wav", "key_press": -1, "type": "PRES_AUD", "word": "wrench", "wordID": 1624, "conditions": [18, 1200, "a", 18000], "trial": 1, "serialpos": 9, "trial_type": "single-audio", "trial_index": 64, "time_elapsed": 338362, "internal_node_id": "0.0-46.0"}}, {"uniqueid": "MTK1090:3Z3ZLGNNSJ1OLPP89JB2DZ9UIBFQ3O", "current_trial": 65, "dateTime": 1513102286932, "trialdata": {"rt": -1000, "stimulus": "/static/audio/wordpool/SCOTCH.wav", "key_press": -1, "type": "PRES_AUD", "word": "scotch", "wordID": 1250, "conditions": [18, 1200, "a", 18000], "trial": 1, "serialpos": 10, "trial_type": "single-audio", "trial_index": 65, "time_elapsed": 340487, "internal_node_id": "0.0-47.0"}}, {"uniqueid": "MTK1090:3Z3ZLGNNSJ1OLPP89JB2DZ9UIBFQ3O", "current_trial": 66, "dateTime": 1513102289143, "trialdata": {"rt": -1000, "stimulus": "/static/audio/wordpool/PLASTER.wav", "key_press": -1, "type": "PRES_AUD", "word": "plaster", "wordID": 1084, "conditions": [18, 1200, "a", 18000], "trial": 1, "serialpos": 11, "trial_type": "single-audio", "trial_index": 66, "time_elapsed": 342697, "internal_node_id": "0.0-48.0"}}, {"uniqueid": "MTK1090:3Z3ZLGNNSJ1OLPP89JB2DZ9UIBFQ3O", "current_trial": 67, "dateTime": 1513102291443, "trialdata": {"rt": -1000, "stimulus": "/static/audio/wordpool/CATTLE.wav", "key_press": -1, "type": "PRES_AUD", "word": "cattle", "wordID": 260, "conditions": [18, 1200, "a", 18000], "trial": 1, "serialpos": 12, "trial_type": "single-audio", "trial_index": 67, "time_elapsed": 344998, "internal_node_id": "0.0-49.0"}}, {"uniqueid": "MTK1090:3Z3ZLGNNSJ1OLPP89JB2DZ9UIBFQ3O", "current_trial": 68, "dateTime": 1513102293653, "trialdata": {"rt": -1000, "stimulus": "/static/audio/wordpool/FEMALE.wav", "key_press": -1, "type": "PRES_AUD", "word": "female", "wordID": 558, "conditions": [18, 1200, "a", 18000], "trial": 1, "serialpos": 13, "trial_type": "single-audio", "trial_index": 68, "time_elapsed": 347174, "internal_node_id": "0.0-50.0"}}, {"uniqueid": "MTK1090:3Z3ZLGNNSJ1OLPP89JB2DZ9UIBFQ3O", "current_trial": 69, "dateTime": 1513102295673, "trialdata": {"rt": -1000, "stimulus": "/static/audio/wordpool/BEEF.wav", "key_press": -1, "type": "PRES_AUD", "word": "beef", "wordID": 112, "conditions": [18, 1200, "a", 18000], "trial": 1, "serialpos": 14, "trial_type": "single-audio", "trial_index": 69, "time_elapsed": 349228, "internal_node_id": "0.0-51.0"}}, {"uniqueid": "MTK1090:3Z3ZLGNNSJ1OLPP89JB2DZ9UIBFQ3O", "current_trial": 70, "dateTime": 1513102298014, "trialdata": {"rt": -1000, "stimulus": "/static/audio/wordpool/COD.wav", "key_press": -1, "type": "PRES_AUD", "word": "cod", "wordID": 339, "conditions": [18, 1200, "a", 18000], "trial": 1, "serialpos": 15, "trial_type": "single-audio", "trial_index": 70, "time_elapsed": 351569, "internal_node_id": "0.0-52.0"}}, {"uniqueid": "MTK1090:3Z3ZLGNNSJ1OLPP89JB2DZ9UIBFQ3O", "current_trial": 71, "dateTime": 1513102300116, "trialdata": {"rt": -1000, "stimulus": "/static/audio/wordpool/GYMNAST.wav", "key_press": -1, "type": "PRES_AUD", "word": "gymnast", "wordID": 674, "conditions": [18, 1200, "a", 18000], "trial": 1, "serialpos": 16, "trial_type": "single-audio", "trial_index": 71, "time_elapsed": 353670, "internal_node_id": "0.0-53.0"}}, {"uniqueid": "MTK1090:3Z3ZLGNNSJ1OLPP89JB2DZ9UIBFQ3O", "current_trial": 72, "dateTime": 1513102302139, "trialdata": {"rt": -1000, "stimulus": "/static/audio/wordpool/FLASK.wav", "key_press": -1, "type": "PRES_AUD", "word": "flask", "wordID": 575, "conditions": [18, 1200, "a", 18000], "trial": 1, "serialpos": 17, "trial_type": "single-audio", "trial_index": 72, "time_elapsed": 355694, "internal_node_id": "0.0-54.0"}}, {"uniqueid": "MTK1090:3Z3ZLGNNSJ1OLPP89JB2DZ9UIBFQ3O", "current_trial": 73, "dateTime": 1513102303380, "trialdata": {"rt": -1, "stimulus": "", "key_press": -1, "type": "PRE_RECALL_DELAY", "trial_type": "single-stim", "trial_index": 73, "time_elapsed": 356935, "internal_node_id": "0.0-55.0-0.0"}}, {"uniqueid": "MTK1090:3Z3ZLGNNSJ1OLPP89JB2DZ9UIBFQ3O", "current_trial": 74, "dateTime": 1513102303886, "trialdata": {"rt": -1000, "stimulus": "/static/audio/400Hz.wav", "key_press": -1, "type": "PRE_RECALL_ALERT", "trial_type": "single-audio", "trial_index": 74, "time_elapsed": 357441, "internal_node_id": "0.0-56.0"}}, {"uniqueid": "MTK1090:3Z3ZLGNNSJ1OLPP89JB2DZ9UIBFQ3O", "current_trial": 75, "dateTime": 1513102363914, "trialdata": {"rt": [], "recwords": [], "type": "FREE_RECALL", "conditions": [18, 1200, "a", 18000], "trial": 1, "trial_type": "free-recall", "trial_index": 75, "time_elapsed": 417452, "internal_node_id": "0.0-57.0-0.0"}}, {"uniqueid": "MTK1090:3Z3ZLGNNSJ1OLPP89JB2DZ9UIBFQ3O", "current_trial": 76, "dateTime": 1513102372417, "trialdata": {"rt": 6488, "key_press": 32, "type": "INSTRUCTIONS", "trial_type": "text", "trial_index": 76, "time_elapsed": 425961, "internal_node_id": "0.0-58.0"}}, {"uniqueid": "MTK1090:3Z3ZLGNNSJ1OLPP89JB2DZ9UIBFQ3O", "current_trial": 77, "dateTime": 1513102385434, "trialdata": {"rt": [5970, 10839], "responses": ["16", "19"], "num1": [5, 5, 3], "num2": [9, 9, 9], "num3": [2, 5, 9], "type": "DISTRACTOR", "conditions": [24, 1600, "a", 12000], "trial": 2, "trial_type": "math-distractor", "trial_index": 77, "time_elapsed": 438988, "internal_node_id": "0.0-59.0"}}, {"uniqueid": "MTK1090:3Z3ZLGNNSJ1OLPP89JB2DZ9UIBFQ3O", "current_trial": 78, "dateTime": 1513102388441, "trialdata": {"rt": -1, "stimulus": "<p id=\"stim\">10</p>", "key_press": -1, "trial_type": "single-stim", "trial_index": 78, "time_elapsed": 441996, "internal_node_id": "0.0-60.0-0.0"}}, {"uniqueid": "MTK1090:3Z3ZLGNNSJ1OLPP89JB2DZ9UIBFQ3O", "current_trial": 79, "dateTime": 1513102389444, "trialdata": {"rt": -1, "stimulus": "<p id=\"stim\">9</p>", "key_press": -1, "trial_type": "single-stim", "trial_index": 79, "time_elapsed": 442999, "internal_node_id": "0.0-60.0-1.0"}}, {"uniqueid": "MTK1090:3Z3ZLGNNSJ1OLPP89JB2DZ9UIBFQ3O", "current_trial": 80, "dateTime": 1513102390447, "trialdata": {"rt": -1, "stimulus": "<p id=\"stim\">8</p>", "key_press": -1, "trial_type": "single-stim", "trial_index": 80, "time_elapsed": 444001, "internal_node_id": "0.0-60.0-2.0"}}, {"uniqueid": "MTK1090:3Z3ZLGNNSJ1OLPP89JB2DZ9UIBFQ3O", "current_trial": 81, "dateTime": 1513102391449, "trialdata": {"rt": -1, "stimulus": "<p id=\"stim\">7</p>", "key_press": -1, "trial_type": "single-stim", "trial_index": 81, "time_elapsed": 445004, "internal_node_id": "0.0-60.0-3.0"}}, {"uniqueid": "MTK1090:3Z3ZLGNNSJ1OLPP89JB2DZ9UIBFQ3O", "current_trial": 82, "dateTime": 1513102392457, "trialdata": {"rt": -1, "stimulus": "<p id=\"stim\">6</p>", "key_press": -1, "trial_type": "single-stim", "trial_index": 82, "time_elapsed": 446012, "internal_node_id": "0.0-60.0-4.0"}}, {"uniqueid": "MTK1090:3Z3ZLGNNSJ1OLPP89JB2DZ9UIBFQ3O", "current_trial": 83, "dateTime": 1513102393462, "trialdata": {"rt": -1, "stimulus": "<p id=\"stim\">5</p>", "key_press": -1, "trial_type": "single-stim", "trial_index": 83, "time_elapsed": 447017, "internal_node_id": "0.0-60.0-5.0"}}, {"uniqueid": "MTK1090:3Z3ZLGNNSJ1OLPP89JB2DZ9UIBFQ3O", "current_trial": 84, "dateTime": 1513102394466, "trialdata": {"rt": -1, "stimulus": "<p id=\"stim\">4</p>", "key_press": -1, "trial_type": "single-stim", "trial_index": 84, "time_elapsed": 448021, "internal_node_id": "0.0-60.0-6.0"}}, {"uniqueid": "MTK1090:3Z3ZLGNNSJ1OLPP89JB2DZ9UIBFQ3O", "current_trial": 85, "dateTime": 1513102395474, "trialdata": {"rt": -1, "stimulus": "<p id=\"stim\">3</p>", "key_press": -1, "trial_type": "single-stim", "trial_index": 85, "time_elapsed": 449029, "internal_node_id": "0.0-60.0-7.0"}}, {"uniqueid": "MTK1090:3Z3ZLGNNSJ1OLPP89JB2DZ9UIBFQ3O", "current_trial": 86, "dateTime": 1513102396478, "trialdata": {"rt": -1, "stimulus": "<p id=\"stim\">2</p>", "key_press": -1, "trial_type": "single-stim", "trial_index": 86, "time_elapsed": 450032, "internal_node_id": "0.0-60.0-8.0"}}, {"uniqueid": "MTK1090:3Z3ZLGNNSJ1OLPP89JB2DZ9UIBFQ3O", "current_trial": 87, "dateTime": 1513102397480, "trialdata": {"rt": -1, "stimulus": "<p id=\"stim\">1</p>", "key_press": -1, "trial_type": "single-stim", "trial_index": 87, "time_elapsed": 451035, "internal_node_id": "0.0-60.0-9.0"}}, {"uniqueid": "MTK1090:3Z3ZLGNNSJ1OLPP89JB2DZ9UIBFQ3O", "current_trial": 88, "dateTime": 1513102398982, "trialdata": {"rt": -1, "stimulus": "<p id=\"stim\">+</p>", "key_press": -1, "type": "FIXATION", "trial_type": "single-stim", "trial_index": 88, "time_elapsed": 452537, "internal_node_id": "0.0-61.0-0.0"}}, {"uniqueid": "MTK1090:3Z3ZLGNNSJ1OLPP89JB2DZ9UIBFQ3O", "current_trial": 89, "dateTime": 1513102401538, "trialdata": {"rt": -1000, "stimulus": "/static/audio/wordpool/TWIG.wav", "key_press": -1, "type": "PRES_AUD", "word": "twig", "wordID": 1526, "conditions": [24, 1600, "a", 12000], "trial": 2, "serialpos": 0, "trial_type": "single-audio", "trial_index": 89, "time_elapsed": 455093, "internal_node_id": "0.0-62.0"}}, {"uniqueid": "MTK1090:3Z3ZLGNNSJ1OLPP89JB2DZ9UIBFQ3O", "current_trial": 90, "dateTime": 1513102404338, "trialdata": {"rt": -1000, "stimulus": "/static/audio/wordpool/CLOCK.wav", "key_press": -1, "type": "PRES_AUD", "word": "clock", "wordID": 324, "conditions": [24, 1600, "a", 12000], "trial": 2, "serialpos": 1, "trial_type": "single-audio", "trial_index": 90, "time_elapsed": 457893, "internal_node_id": "0.0-63.0"}}, {"uniqueid": "MTK1090:3Z3ZLGNNSJ1OLPP89JB2DZ9UIBFQ3O", "current_trial": 91, "dateTime": 1513102407125, "trialdata": {"rt": -1000, "stimulus": "/static/audio/wordpool/WIDOW.wav", "key_press": -1, "type": "PRES_AUD", "word": "widow", "wordID": 1607, "conditions": [24, 1600, "a", 12000], "trial": 2, "serialpos": 2, "trial_type": "single-audio", "trial_index": 91, "time_elapsed": 460680, "internal_node_id": "0.0-64.0"}}, {"uniqueid": "MTK1090:3Z3ZLGNNSJ1OLPP89JB2DZ9UIBFQ3O", "current_trial": 92, "dateTime": 1513102409894, "trialdata": {"rt": -1000, "stimulus": "/static/audio/wordpool/WASP.wav", "key_press": -1, "type": "PRES_AUD", "word": "wasp", "wordID": 1592, "conditions": [24, 1600, "a", 12000], "trial": 2, "serialpos": 3, "trial_type": "single-audio", "trial_index": 92, "time_elapsed": 463449, "internal_node_id": "0.0-65.0"}}, {"uniqueid": "MTK1090:3Z3ZLGNNSJ1OLPP89JB2DZ9UIBFQ3O", "current_trial": 93, "dateTime": 1513102412466, "trialdata": {"rt": -1000, "stimulus": "/static/audio/wordpool/BLUEPRINT.wav", "key_press": -1, "type": "PRES_AUD", "word": "blueprint", "wordID": 141, "conditions": [24, 1600, "a", 12000], "trial": 2, "serialpos": 4, "trial_type": "single-audio", "trial_index": 93, "time_elapsed": 466021, "internal_node_id": "0.0-66.0"}}, {"uniqueid": "MTK1090:3Z3ZLGNNSJ1OLPP89JB2DZ9UIBFQ3O", "current_trial": 94, "dateTime": 1513102415192, "trialdata": {"rt": -1000, "stimulus": "/static/audio/wordpool/HUSBAND.wav", "key_press": -1, "type": "PRES_AUD", "word": "husband", "wordID": 727, "conditions": [24, 1600, "a", 12000], "trial": 2, "serialpos": 5, "trial_type": "single-audio", "trial_index": 94, "time_elapsed": 468745, "internal_node_id": "0.0-67.0"}}, {"uniqueid": "MTK1090:3Z3ZLGNNSJ1OLPP89JB2DZ9UIBFQ3O", "current_trial": 95, "dateTime": 1513102417733, "trialdata": {"rt": -1000, "stimulus": "/static/audio/wordpool/LOVER.wav", "key_press": -1, "type": "PRES_AUD", "word": "lover", "wordID": 845, "conditions": [24, 1600, "a", 12000], "trial": 2, "serialpos": 6, "trial_type": "single-audio", "trial_index": 95, "time_elapsed": 471288, "internal_node_id": "0.0-68.0"}}, {"uniqueid": "MTK1090:3Z3ZLGNNSJ1OLPP89JB2DZ9UIBFQ3O", "current_trial": 96, "dateTime": 1513102420373, "trialdata": {"rt": -1000, "stimulus": "/static/audio/wordpool/ATLAS.wav", "key_press": -1, "type": "PRES_AUD", "word": "atlas", "wordID": 52, "conditions": [24, 1600, "a", 12000], "trial": 2, "serialpos": 7, "trial_type": "single-audio", "trial_index": 96, "time_elapsed": 473927, "internal_node_id": "0.0-69.0"}}, {"uniqueid": "MTK1090:3Z3ZLGNNSJ1OLPP89JB2DZ9UIBFQ3O", "current_trial": 97, "dateTime": 1513102423061, "trialdata": {"rt": -1000, "stimulus": "/static/audio/wordpool/PLATE.wav", "key_press": -1, "type": "PRES_AUD", "word": "plate", "wordID": 1085, "conditions": [24, 1600, "a", 12000], "trial": 2, "serialpos": 8, "trial_type": "single-audio", "trial_index": 97, "time_elapsed": 476616, "internal_node_id": "0.0-70.0"}}, {"uniqueid": "MTK1090:3Z3ZLGNNSJ1OLPP89JB2DZ9UIBFQ3O", "current_trial": 98, "dateTime": 1513102425831, "trialdata": {"rt": -1000, "stimulus": "/static/audio/wordpool/SPOON.wav", "key_press": -1, "type": "PRES_AUD", "word": "spoon", "wordID": 1356, "conditions": [24, 1600, "a", 12000], "trial": 2, "serialpos": 9, "trial_type": "single-audio", "trial_index": 98, "time_elapsed": 479386, "internal_node_id": "0.0-71.0"}}, {"uniqueid": "MTK1090:3Z3ZLGNNSJ1OLPP89JB2DZ9UIBFQ3O", "current_trial": 99, "dateTime": 1513102428443, "trialdata": {"rt": -1000, "stimulus": "/static/audio/wordpool/COBRA.wav", "key_press": -1, "type": "PRES_AUD", "word": "cobra", "wordID": 335, "conditions": [24, 1600, "a", 12000], "trial": 2, "serialpos": 10, "trial_type": "single-audio", "trial_index": 99, "time_elapsed": 481998, "internal_node_id": "0.0-72.0"}}, {"uniqueid": "MTK1090:3Z3ZLGNNSJ1OLPP89JB2DZ9UIBFQ3O", "current_trial": 100, "dateTime": 1513102431157, "trialdata": {"rt": -1000, "stimulus": "/static/audio/wordpool/ROBIN.wav", "key_press": -1, "type": "PRES_AUD", "word": "robin", "wordID": 1198, "conditions": [24, 1600, "a", 12000], "trial": 2, "serialpos": 11, "trial_type": "single-audio", "trial_index": 100, "time_elapsed": 484711, "internal_node_id": "0.0-73.0"}}, {"uniqueid": "MTK1090:3Z3ZLGNNSJ1OLPP89JB2DZ9UIBFQ3O", "current_trial": 101, "dateTime": 1513102433908, "trialdata": {"rt": -1000, "stimulus": "/static/audio/wordpool/SURVEY.wav", "key_press": -1, "type": "PRES_AUD", "word": "survey", "wordID": 1413, "conditions": [24, 1600, "a", 12000], "trial": 2, "serialpos": 12, "trial_type": "single-audio", "trial_index": 101, "time_elapsed": 487462, "internal_node_id": "0.0-74.0"}}, {"uniqueid": "MTK1090:3Z3ZLGNNSJ1OLPP89JB2DZ9UIBFQ3O", "current_trial": 102, "dateTime": 1513102436398, "trialdata": {"rt": -1000, "stimulus": "/static/audio/wordpool/GRAVE.wav", "key_press": -1, "type": "PRES_AUD", "word": "grave", "wordID": 657, "conditions": [24, 1600, "a", 12000], "trial": 2, "serialpos": 13, "trial_type": "single-audio", "trial_index": 102, "time_elapsed": 489953, "internal_node_id": "0.0-75.0"}}, {"uniqueid": "MTK1090:3Z3ZLGNNSJ1OLPP89JB2DZ9UIBFQ3O", "current_trial": 103, "dateTime": 1513102439148, "trialdata": {"rt": -1000, "stimulus": "/static/audio/wordpool/COCKTAIL.wav", "key_press": -1, "type": "PRES_AUD", "word": "cocktail", "wordID": 337, "conditions": [24, 1600, "a", 12000], "trial": 2, "serialpos": 14, "trial_type": "single-audio", "trial_index": 103, "time_elapsed": 492702, "internal_node_id": "0.0-76.0"}}, {"uniqueid": "MTK1090:3Z3ZLGNNSJ1OLPP89JB2DZ9UIBFQ3O", "current_trial": 104, "dateTime": 1513102441853, "trialdata": {"rt": -1000, "stimulus": "/static/audio/wordpool/CROSS.wav", "key_press": -1, "type": "PRES_AUD", "word": "cross", "wordID": 412, "conditions": [24, 1600, "a", 12000], "trial": 2, "serialpos": 15, "trial_type": "single-audio", "trial_index": 104, "time_elapsed": 495408, "internal_node_id": "0.0-77.0"}}, {"uniqueid": "MTK1090:3Z3ZLGNNSJ1OLPP89JB2DZ9UIBFQ3O", "current_trial": 105, "dateTime": 1513102444509, "trialdata": {"rt": -1000, "stimulus": "/static/audio/wordpool/REPORT.wav", "key_press": -1, "type": "PRES_AUD", "word": "report", "wordID": 1183, "conditions": [24, 1600, "a", 12000], "trial": 2, "serialpos": 16, "trial_type": "single-audio", "trial_index": 105, "time_elapsed": 498064, "internal_node_id": "0.0-78.0"}}, {"uniqueid": "MTK1090:3Z3ZLGNNSJ1OLPP89JB2DZ9UIBFQ3O", "current_trial": 106, "dateTime": 1513102447023, "trialdata": {"rt": -1000, "stimulus": "/static/audio/wordpool/PADDLE.wav", "key_press": -1, "type": "PRES_AUD", "word": "paddle", "wordID": 999, "conditions": [24, 1600, "a", 12000], "trial": 2, "serialpos": 17, "trial_type": "single-audio", "trial_index": 106, "time_elapsed": 500577, "internal_node_id": "0.0-79.0"}}, {"uniqueid": "MTK1090:3Z3ZLGNNSJ1OLPP89JB2DZ9UIBFQ3O", "current_trial": 107, "dateTime": 1513102449786, "trialdata": {"rt": -1000, "stimulus": "/static/audio/wordpool/PASTRY.wav", "key_press": -1, "type": "PRES_AUD", "word": "pastry", "wordID": 1021, "conditions": [24, 1600, "a", 12000], "trial": 2, "serialpos": 18, "trial_type": "single-audio", "trial_index": 107, "time_elapsed": 503341, "internal_node_id": "0.0-80.0"}}, {"uniqueid": "MTK1090:3Z3ZLGNNSJ1OLPP89JB2DZ9UIBFQ3O", "current_trial": 108, "dateTime": 1513102452411, "trialdata": {"rt": -1000, "stimulus": "/static/audio/wordpool/PASTA.wav", "key_press": -1, "type": "PRES_AUD", "word": "pasta", "wordID": 1020, "conditions": [24, 1600, "a", 12000], "trial": 2, "serialpos": 19, "trial_type": "single-audio", "trial_index": 108, "time_elapsed": 505966, "internal_node_id": "0.0-81.0"}}, {"uniqueid": "MTK1090:3Z3ZLGNNSJ1OLPP89JB2DZ9UIBFQ3O", "current_trial": 109, "dateTime": 1513102454927, "trialdata": {"rt": -1000, "stimulus": "/static/audio/wordpool/TRANSPLANT.wav", "key_press": -1, "type": "PRES_AUD", "word": "transplant", "wordID": 1495, "conditions": [24, 1600, "a", 12000], "trial": 2, "serialpos": 20, "trial_type": "single-audio", "trial_index": 109, "time_elapsed": 508482, "internal_node_id": "0.0-82.0"}}, {"uniqueid": "MTK1090:3Z3ZLGNNSJ1OLPP89JB2DZ9UIBFQ3O", "current_trial": 110, "dateTime": 1513102457648, "trialdata": {"rt": -1000, "stimulus": "/static/audio/wordpool/DRUG.wav", "key_press": -1, "type": "PRES_AUD", "word": "drug", "wordID": 500, "conditions": [24, 1600, "a", 12000], "trial": 2, "serialpos": 21, "trial_type": "single-audio", "trial_index": 110, "time_elapsed": 511202, "internal_node_id": "0.0-83.0"}}, {"uniqueid": "MTK1090:3Z3ZLGNNSJ1OLPP89JB2DZ9UIBFQ3O", "current_trial": 111, "dateTime": 1513102460337, "trialdata": {"rt": -1000, "stimulus": "/static/audio/wordpool/CRUTCH.wav", "key_press": -1, "type": "PRES_AUD", "word": "crutch", "wordID": 416, "conditions": [24, 1600, "a", 12000], "trial": 2, "serialpos": 22, "trial_type": "single-audio", "trial_index": 111, "time_elapsed": 513892, "internal_node_id": "0.0-84.0"}}, {"uniqueid": "MTK1090:3Z3ZLGNNSJ1OLPP89JB2DZ9UIBFQ3O", "current_trial": 112, "dateTime": 1513102462917, "trialdata": {"rt": -1000, "stimulus": "/static/audio/wordpool/VIRUS.wav", "key_press": -1, "type": "PRES_AUD", "word": "virus", "wordID": 1571, "conditions": [24, 1600, "a", 12000], "trial": 2, "serialpos": 23, "trial_type": "single-audio", "trial_index": 112, "time_elapsed": 516471, "internal_node_id": "0.0-85.0"}}, {"uniqueid": "MTK1090:3Z3ZLGNNSJ1OLPP89JB2DZ9UIBFQ3O", "current_trial": 113, "dateTime": 1513102464331, "trialdata": {"rt": -1, "stimulus": "", "key_press": -1, "type": "PRE_RECALL_DELAY", "trial_type": "single-stim", "trial_index": 113, "time_elapsed": 517885, "internal_node_id": "0.0-86.0-0.0"}}, {"uniqueid": "MTK1090:3Z3ZLGNNSJ1OLPP89JB2DZ9UIBFQ3O", "current_trial": 114, "dateTime": 1513102464835, "trialdata": {"rt": -1000, "stimulus": "/static/audio/400Hz.wav", "key_press": -1, "type": "PRE_RECALL_ALERT", "trial_type": "single-audio", "trial_index": 114, "time_elapsed": 518389, "internal_node_id": "0.0-87.0"}}, {"uniqueid": "MTK1090:3Z3ZLGNNSJ1OLPP89JB2DZ9UIBFQ3O", "current_trial": 115, "dateTime": 1513102524853, "trialdata": {"rt": [6469, 8509, 48771, 49153, 49500, 49780], "recwords": ["virus", "wasp", "", "", "", ""], "type": "FREE_RECALL", "conditions": [24, 1600, "a", 12000], "trial": 2, "trial_type": "free-recall", "trial_index": 115, "time_elapsed": 578394, "internal_node_id": "0.0-88.0-0.0"}}, {"uniqueid": "MTK1090:3Z3ZLGNNSJ1OLPP89JB2DZ9UIBFQ3O", "current_trial": 116, "dateTime": 1513102531532, "trialdata": {"rt": 4676, "key_press": 32, "type": "INSTRUCTIONS", "trial_type": "text", "trial_index": 116, "time_elapsed": 585087, "internal_node_id": "0.0-89.0"}}, {"uniqueid": "MTK1090:3Z3ZLGNNSJ1OLPP89JB2DZ9UIBFQ3O", "current_trial": 117, "dateTime": 1513102545550, "trialdata": {"rt": [3198, 5957, 8427], "responses": ["13", "12", "16"], "num1": [3, 4, 3, 9], "num2": [8, 7, 8, 9], "num3": [2, 1, 5, 5], "type": "DISTRACTOR", "conditions": [12, 800, "a", 12000], "trial": 3, "trial_type": "math-distractor", "trial_index": 117, "time_elapsed": 599104, "internal_node_id": "0.0-90.0"}}, {"uniqueid": "MTK1090:3Z3ZLGNNSJ1OLPP89JB2DZ9UIBFQ3O", "current_trial": 118, "dateTime": 1513102548554, "trialdata": {"rt": -1, "stimulus": "<p id=\"stim\">10</p>", "key_press": -1, "trial_type": "single-stim", "trial_index": 118, "time_elapsed": 602109, "internal_node_id": "0.0-91.0-0.0"}}, {"uniqueid": "MTK1090:3Z3ZLGNNSJ1OLPP89JB2DZ9UIBFQ3O", "current_trial": 119, "dateTime": 1513102549558, "trialdata": {"rt": -1, "stimulus": "<p id=\"stim\">9</p>", "key_press": -1, "trial_type": "single-stim", "trial_index": 119, "time_elapsed": 603113, "internal_node_id": "0.0-91.0-1.0"}}, {"uniqueid": "MTK1090:3Z3ZLGNNSJ1OLPP89JB2DZ9UIBFQ3O", "current_trial": 120, "dateTime": 1513102550561, "trialdata": {"rt": -1, "stimulus": "<p id=\"stim\">8</p>", "key_press": -1, "trial_type": "single-stim", "trial_index": 120, "time_elapsed": 604116, "internal_node_id": "0.0-91.0-2.0"}}, {"uniqueid": "MTK1090:3Z3ZLGNNSJ1OLPP89JB2DZ9UIBFQ3O", "current_trial": 121, "dateTime": 1513102551565, "trialdata": {"rt": -1, "stimulus": "<p id=\"stim\">7</p>", "key_press": -1, "trial_type": "single-stim", "trial_index": 121, "time_elapsed": 605120, "internal_node_id": "0.0-91.0-3.0"}}, {"uniqueid": "MTK1090:3Z3ZLGNNSJ1OLPP89JB2DZ9UIBFQ3O", "current_trial": 122, "dateTime": 1513102552568, "trialdata": {"rt": -1, "stimulus": "<p id=\"stim\">6</p>", "key_press": -1, "trial_type": "single-stim", "trial_index": 122, "time_elapsed": 606123, "internal_node_id": "0.0-91.0-4.0"}}, {"uniqueid": "MTK1090:3Z3ZLGNNSJ1OLPP89JB2DZ9UIBFQ3O", "current_trial": 123, "dateTime": 1513102553571, "trialdata": {"rt": -1, "stimulus": "<p id=\"stim\">5</p>", "key_press": -1, "trial_type": "single-stim", "trial_index": 123, "time_elapsed": 607126, "internal_node_id": "0.0-91.0-5.0"}}, {"uniqueid": "MTK1090:3Z3ZLGNNSJ1OLPP89JB2DZ9UIBFQ3O", "current_trial": 124, "dateTime": 1513102554574, "trialdata": {"rt": -1, "stimulus": "<p id=\"stim\">4</p>", "key_press": -1, "trial_type": "single-stim", "trial_index": 124, "time_elapsed": 608129, "internal_node_id": "0.0-91.0-6.0"}}, {"uniqueid": "MTK1090:3Z3ZLGNNSJ1OLPP89JB2DZ9UIBFQ3O", "current_trial": 125, "dateTime": 1513102555576, "trialdata": {"rt": -1, "stimulus": "<p id=\"stim\">3</p>", "key_press": -1, "trial_type": "single-stim", "trial_index": 125, "time_elapsed": 609131, "internal_node_id": "0.0-91.0-7.0"}}, {"uniqueid": "MTK1090:3Z3ZLGNNSJ1OLPP89JB2DZ9UIBFQ3O", "current_trial": 126, "dateTime": 1513102556581, "trialdata": {"rt": -1, "stimulus": "<p id=\"stim\">2</p>", "key_press": -1, "trial_type": "single-stim", "trial_index": 126, "time_elapsed": 610136, "internal_node_id": "0.0-91.0-8.0"}}, {"uniqueid": "MTK1090:3Z3ZLGNNSJ1OLPP89JB2DZ9UIBFQ3O", "current_trial": 127, "dateTime": 1513102557585, "trialdata": {"rt": -1, "stimulus": "<p id=\"stim\">1</p>", "key_press": -1, "trial_type": "single-stim", "trial_index": 127, "time_elapsed": 611140, "internal_node_id": "0.0-91.0-9.0"}}, {"uniqueid": "MTK1090:3Z3ZLGNNSJ1OLPP89JB2DZ9UIBFQ3O", "current_trial": 128, "dateTime": 1513102559088, "trialdata": {"rt": -1, "stimulus": "<p id=\"stim\">+</p>", "key_press": -1, "type": "FIXATION", "trial_type": "single-stim", "trial_index": 128, "time_elapsed": 612643, "internal_node_id": "0.0-92.0-0.0"}}, {"uniqueid": "MTK1090:3Z3ZLGNNSJ1OLPP89JB2DZ9UIBFQ3O", "current_trial": 129, "dateTime": 1513102560741, "trialdata": {"rt": -1000, "stimulus": "/static/audio/wordpool/CROWN.wav", "key_press": -1, "type": "PRES_AUD", "word": "crown", "wordID": 414, "conditions": [12, 800, "a", 12000], "trial": 3, "serialpos": 0, "trial_type": "single-audio", "trial_index": 129, "time_elapsed": 614295, "internal_node_id": "0.0-93.0"}}, {"uniqueid": "MTK1090:3Z3ZLGNNSJ1OLPP89JB2DZ9UIBFQ3O", "current_trial": 130, "dateTime": 1513102562513, "trialdata": {"rt": -1000, "stimulus": "/static/audio/wordpool/SCARF.wav", "key_press": -1, "type": "PRES_AUD", "word": "scarf", "wordID": 1245, "conditions": [12, 800, "a", 12000], "trial": 3, "serialpos": 1, "trial_type": "single-audio", "trial_index": 130, "time_elapsed": 616068, "internal_node_id": "0.0-94.0"}}, {"uniqueid": "MTK1090:3Z3ZLGNNSJ1OLPP89JB2DZ9UIBFQ3O", "current_trial": 131, "dateTime": 1513102564490, "trialdata": {"rt": -1000, "stimulus": "/static/audio/wordpool/POLICE.wav", "key_press": -1, "type": "PRES_AUD", "word": "police", "wordID": 1097, "conditions": [12, 800, "a", 12000], "trial": 3, "serialpos": 2, "trial_type": "single-audio", "trial_index": 131, "time_elapsed": 618045, "internal_node_id": "0.0-95.0"}}, {"uniqueid": "MTK1090:3Z3ZLGNNSJ1OLPP89JB2DZ9UIBFQ3O", "current_trial": 132, "dateTime": 1513102566300, "trialdata": {"rt": -1000, "stimulus": "/static/audio/wordpool/PATROL.wav", "key_press": -1, "type": "PRES_AUD", "word": "patrol", "wordID": 1026, "conditions": [12, 800, "a", 12000], "trial": 3, "serialpos": 3, "trial_type": "single-audio", "trial_index": 132, "time_elapsed": 619855, "internal_node_id": "0.0-96.0"}}, {"uniqueid": "MTK1090:3Z3ZLGNNSJ1OLPP89JB2DZ9UIBFQ3O", "current_trial": 133, "dateTime": 1513102567944, "trialdata": {"rt": -1000, "stimulus": "/static/audio/wordpool/BACON.wav", "key_press": -1, "type": "PRES_AUD", "word": "bacon", "wordID": 66, "conditions": [12, 800, "a", 12000], "trial": 3, "serialpos": 4, "trial_type": "single-audio", "trial_index": 133, "time_elapsed": 621499, "internal_node_id": "0.0-97.0"}}, {"uniqueid": "MTK1090:3Z3ZLGNNSJ1OLPP89JB2DZ9UIBFQ3O", "current_trial": 134, "dateTime": 1513102569929, "trialdata": {"rt": -1000, "stimulus": "/static/audio/wordpool/HERO.wav", "key_press": -1, "type": "PRES_AUD", "word": "hero", "wordID": 705, "conditions": [12, 800, "a", 12000], "trial": 3, "serialpos": 5, "trial_type": "single-audio", "trial_index": 134, "time_elapsed": 623484, "internal_node_id": "0.0-98.0"}}, {"uniqueid": "MTK1090:3Z3ZLGNNSJ1OLPP89JB2DZ9UIBFQ3O", "current_trial": 135, "dateTime": 1513102571866, "trialdata": {"rt": -1000, "stimulus": "/static/audio/wordpool/MASK.wav", "key_press": -1, "type": "PRES_AUD", "word": "mask", "wordID": 875, "conditions": [12, 800, "a", 12000], "trial": 3, "serialpos": 6, "trial_type": "single-audio", "trial_index": 135, "time_elapsed": 625420, "internal_node_id": "0.0-99.0"}}, {"uniqueid": "MTK1090:3Z3ZLGNNSJ1OLPP89JB2DZ9UIBFQ3O", "current_trial": 136, "dateTime": 1513102573641, "trialdata": {"rt": -1000, "stimulus": "/static/audio/wordpool/CLOUD.wav", "key_press": -1, "type": "PRES_AUD", "word": "cloud", "wordID": 327, "conditions": [12, 800, "a", 12000], "trial": 3, "serialpos": 7, "trial_type": "single-audio", "trial_index": 136, "time_elapsed": 627195, "internal_node_id": "0.0-100.0"}}, {"uniqueid": "MTK1090:3Z3ZLGNNSJ1OLPP89JB2DZ9UIBFQ3O", "current_trial": 137, "dateTime": 1513102575249, "trialdata": {"rt": -1000, "stimulus": "/static/audio/wordpool/PEPPER.wav", "key_press": -1, "type": "PRES_AUD", "word": "pepper", "wordID": 1046, "conditions": [12, 800, "a", 12000], "trial": 3, "serialpos": 8, "trial_type": "single-audio", "trial_index": 137, "time_elapsed": 628803, "internal_node_id": "0.0-101.0"}}, {"uniqueid": "MTK1090:3Z3ZLGNNSJ1OLPP89JB2DZ9UIBFQ3O", "current_trial": 138, "dateTime": 1513102576954, "trialdata": {"rt": -1000, "stimulus": "/static/audio/wordpool/VICTIM.wav", "key_press": -1, "type": "PRES_AUD", "word": "victim", "wordID": 1561, "conditions": [12, 800, "a", 12000], "trial": 3, "serialpos": 9, "trial_type": "single-audio", "trial_index": 138, "time_elapsed": 630509, "internal_node_id": "0.0-102.0"}}, {"uniqueid": "MTK1090:3Z3ZLGNNSJ1OLPP89JB2DZ9UIBFQ3O", "current_trial": 139, "dateTime": 1513102578841, "trialdata": {"rt": -1000, "stimulus": "/static/audio/wordpool/TABLE.wav", "key_press": -1, "type": "PRES_AUD", "word": "table", "wordID": 1425, "conditions": [12, 800, "a", 12000], "trial": 3, "serialpos": 10, "trial_type": "single-audio", "trial_index": 139, "time_elapsed": 632395, "internal_node_id": "0.0-103.0"}}, {"uniqueid": "MTK1090:3Z3ZLGNNSJ1OLPP89JB2DZ9UIBFQ3O", "current_trial": 140, "dateTime": 1513102580513, "trialdata": {"rt": -1000, "stimulus": "/static/audio/wordpool/SHIRT.wav", "key_press": -1, "type": "PRES_AUD", "word": "shirt", "wordID": 1286, "conditions": [12, 800, "a", 12000], "trial": 3, "serialpos": 11, "trial_type": "single-audio", "trial_index": 140, "time_elapsed": 634067, "internal_node_id": "0.0-104.0"}}, {"uniqueid": "MTK1090:3Z3ZLGNNSJ1OLPP89JB2DZ9UIBFQ3O", "current_trial": 141, "dateTime": 1513102581897, "trialdata": {"rt": -1, "stimulus": "", "key_press": -1, "type": "PRE_RECALL_DELAY", "trial_type": "single-stim", "trial_index": 141, "time_elapsed": 635451, "internal_node_id": "0.0-105.0-0.0"}}, {"uniqueid": "MTK1090:3Z3ZLGNNSJ1OLPP89JB2DZ9UIBFQ3O", "current_trial": 142, "dateTime": 1513102582400, "trialdata": {"rt": -1000, "stimulus": "/static/audio/400Hz.wav", "key_press": -1, "type": "PRE_RECALL_ALERT", "trial_type": "single-audio", "trial_index": 142, "time_elapsed": 635955, "internal_node_id": "0.0-106.0"}}, {"uniqueid": "MTK1090:3Z3ZLGNNSJ1OLPP89JB2DZ9UIBFQ3O", "current_trial": 143, "dateTime": 1513102642427, "trialdata": {"rt": [3093, 5597, 7956, 11273, 13486, 15642, 18637, 22644, 26561, 28801, 30863, 34947], "recwords": ["pound", "scarf", "police", "bacon", "her", "mask", "cloud", "pepper", "victim", "table", "shirt", "mask"], "type": "FREE_RECALL", "conditions": [12, 800, "a", 12000], "trial": 3, "trial_type": "free-recall", "trial_index": 143, "time_elapsed": 695962, "internal_node_id": "0.0-107.0-0.0"}}, {"uniqueid": "MTK1090:3Z3ZLGNNSJ1OLPP89JB2DZ9UIBFQ3O", "current_trial": 144, "dateTime": 1513102646016, "trialdata": {"rt": 1586, "key_press": 32, "type": "INSTRUCTIONS", "trial_type": "text", "trial_index": 144, "time_elapsed": 699571, "internal_node_id": "0.0-108.0"}}, {"uniqueid": "MTK1090:3Z3ZLGNNSJ1OLPP89JB2DZ9UIBFQ3O", "current_trial": 145, "dateTime": 1513102672027, "trialdata": {"rt": [3781, 6710, 8284, 9928, 12468, 18182, 20825, 22928], "responses": ["16", "19", "18", "17", "8", "15", "9", "15"], "num1": [2, 9, 2, 6, 3, 5, 5, 2, 7], "num2": [9, 4, 7, 7, 4, 3, 3, 5, 6], "num3": [5, 9, 9, 4, 1, 7, 1, 8, 2], "type": "DISTRACTOR", "conditions": [12, 1600, "a", 24000], "trial": 4, "trial_type": "math-distractor", "trial_index": 145, "time_elapsed": 725582, "internal_node_id": "0.0-109.0"}}, {"uniqueid": "MTK1090:3Z3ZLGNNSJ1OLPP89JB2DZ9UIBFQ3O", "current_trial": 146, "dateTime": 1513102675030, "trialdata": {"rt": -1, "stimulus": "<p id=\"stim\">10</p>", "key_press": -1, "trial_type": "single-stim", "trial_index": 146, "time_elapsed": 728585, "internal_node_id": "0.0-110.0-0.0"}}, {"uniqueid": "MTK1090:3Z3ZLGNNSJ1OLPP89JB2DZ9UIBFQ3O", "current_trial": 147, "dateTime": 1513102676035, "trialdata": {"rt": -1, "stimulus": "<p id=\"stim\">9</p>", "key_press": -1, "trial_type": "single-stim", "trial_index": 147, "time_elapsed": 729589, "internal_node_id": "0.0-110.0-1.0"}}, {"uniqueid": "MTK1090:3Z3ZLGNNSJ1OLPP89JB2DZ9UIBFQ3O", "current_trial": 148, "dateTime": 1513102677036, "trialdata": {"rt": -1, "stimulus": "<p id=\"stim\">8</p>", "key_press": -1, "trial_type": "single-stim", "trial_index": 148, "time_elapsed": 730591, "internal_node_id": "0.0-110.0-2.0"}}, {"uniqueid": "MTK1090:3Z3ZLGNNSJ1OLPP89JB2DZ9UIBFQ3O", "current_trial": 149, "dateTime": 1513102678040, "trialdata": {"rt": -1, "stimulus": "<p id=\"stim\">7</p>", "key_press": -1, "trial_type": "single-stim", "trial_index": 149, "time_elapsed": 731595, "internal_node_id": "0.0-110.0-3.0"}}, {"uniqueid": "MTK1090:3Z3ZLGNNSJ1OLPP89JB2DZ9UIBFQ3O", "current_trial": 150, "dateTime": 1513102679044, "trialdata": {"rt": -1, "stimulus": "<p id=\"stim\">6</p>", "key_press": -1, "trial_type": "single-stim", "trial_index": 150, "time_elapsed": 732599, "internal_node_id": "0.0-110.0-4.0"}}, {"uniqueid": "MTK1090:3Z3ZLGNNSJ1OLPP89JB2DZ9UIBFQ3O", "current_trial": 151, "dateTime": 1513102680046, "trialdata": {"rt": -1, "stimulus": "<p id=\"stim\">5</p>", "key_press": -1, "trial_type": "single-stim", "trial_index": 151, "time_elapsed": 733601, "internal_node_id": "0.0-110.0-5.0"}}, {"uniqueid": "MTK1090:3Z3ZLGNNSJ1OLPP89JB2DZ9UIBFQ3O", "current_trial": 152, "dateTime": 1513102681048, "trialdata": {"rt": -1, "stimulus": "<p id=\"stim\">4</p>", "key_press": -1, "trial_type": "single-stim", "trial_index": 152, "time_elapsed": 734603, "internal_node_id": "0.0-110.0-6.0"}}, {"uniqueid": "MTK1090:3Z3ZLGNNSJ1OLPP89JB2DZ9UIBFQ3O", "current_trial": 153, "dateTime": 1513102682050, "trialdata": {"rt": -1, "stimulus": "<p id=\"stim\">3</p>", "key_press": -1, "trial_type": "single-stim", "trial_index": 153, "time_elapsed": 735605, "internal_node_id": "0.0-110.0-7.0"}}, {"uniqueid": "MTK1090:3Z3ZLGNNSJ1OLPP89JB2DZ9UIBFQ3O", "current_trial": 154, "dateTime": 1513102683055, "trialdata": {"rt": -1, "stimulus": "<p id=\"stim\">2</p>", "key_press": -1, "trial_type": "single-stim", "trial_index": 154, "time_elapsed": 736610, "internal_node_id": "0.0-110.0-8.0"}}, {"uniqueid": "MTK1090:3Z3ZLGNNSJ1OLPP89JB2DZ9UIBFQ3O", "current_trial": 155, "dateTime": 1513102684058, "trialdata": {"rt": -1, "stimulus": "<p id=\"stim\">1</p>", "key_press": -1, "trial_type": "single-stim", "trial_index": 155, "time_elapsed": 737613, "internal_node_id": "0.0-110.0-9.0"}}, {"uniqueid": "MTK1090:3Z3ZLGNNSJ1OLPP89JB2DZ9UIBFQ3O", "current_trial": 156, "dateTime": 1513102685562, "trialdata": {"rt": -1, "stimulus": "<p id=\"stim\">+</p>", "key_press": -1, "type": "FIXATION", "trial_type": "single-stim", "trial_index": 156, "time_elapsed": 739117, "internal_node_id": "0.0-111.0-0.0"}}, {"uniqueid": "MTK1090:3Z3ZLGNNSJ1OLPP89JB2DZ9UIBFQ3O", "current_trial": 157, "dateTime": 1513102688272, "trialdata": {"rt": -1000, "stimulus": "/static/audio/wordpool/COUNTY.wav", "key_press": -1, "type": "PRES_AUD", "word": "county", "wordID": 388, "conditions": [12, 1600, "a", 24000], "trial": 4, "serialpos": 0, "trial_type": "single-audio", "trial_index": 157, "time_elapsed": 741827, "internal_node_id": "0.0-112.0"}}, {"uniqueid": "MTK1090:3Z3ZLGNNSJ1OLPP89JB2DZ9UIBFQ3O", "current_trial": 158, "dateTime": 1513102691060, "trialdata": {"rt": -1000, "stimulus": "/static/audio/wordpool/BREAST.wav", "key_press": -1, "type": "PRES_AUD", "word": "breast", "wordID": 170, "conditions": [12, 1600, "a", 24000], "trial": 4, "serialpos": 1, "trial_type": "single-audio", "trial_index": 158, "time_elapsed": 744615, "internal_node_id": "0.0-113.0"}}, {"uniqueid": "MTK1090:3Z3ZLGNNSJ1OLPP89JB2DZ9UIBFQ3O", "current_trial": 159, "dateTime": 1513102693773, "trialdata": {"rt": -1000, "stimulus": "/static/audio/wordpool/SALAD.wav", "key_press": -1, "type": "PRES_AUD", "word": "salad", "wordID": 1223, "conditions": [12, 1600, "a", 24000], "trial": 4, "serialpos": 2, "trial_type": "single-audio", "trial_index": 159, "time_elapsed": 747328, "internal_node_id": "0.0-114.0"}}, {"uniqueid": "MTK1090:3Z3ZLGNNSJ1OLPP89JB2DZ9UIBFQ3O", "current_trial": 160, "dateTime": 1513102696488, "trialdata": {"rt": -1000, "stimulus": "/static/audio/wordpool/SILK.wav", "key_press": -1, "type": "PRES_AUD", "word": "silk", "wordID": 1306, "conditions": [12, 1600, "a", 24000], "trial": 4, "serialpos": 3, "trial_type": "single-audio", "trial_index": 160, "time_elapsed": 750043, "internal_node_id": "0.0-115.0"}}, {"uniqueid": "MTK1090:3Z3ZLGNNSJ1OLPP89JB2DZ9UIBFQ3O", "current_trial": 161, "dateTime": 1513102698911, "trialdata": {"rt": -1000, "stimulus": "/static/audio/wordpool/LACE.wav", "key_press": -1, "type": "PRES_AUD", "word": "lace", "wordID": 791, "conditions": [12, 1600, "a", 24000], "trial": 4, "serialpos": 4, "trial_type": "single-audio", "trial_index": 161, "time_elapsed": 752465, "internal_node_id": "0.0-116.0"}}, {"uniqueid": "MTK1090:3Z3ZLGNNSJ1OLPP89JB2DZ9UIBFQ3O", "current_trial": 162, "dateTime": 1513102701385, "trialdata": {"rt": -1000, "stimulus": "/static/audio/wordpool/SHERIFF.wav", "key_press": -1, "type": "PRES_AUD", "word": "sheriff", "wordID": 1283, "conditions": [12, 1600, "a", 24000], "trial": 4, "serialpos": 5, "trial_type": "single-audio", "trial_index": 162, "time_elapsed": 754940, "internal_node_id": "0.0-117.0"}}, {"uniqueid": "MTK1090:3Z3ZLGNNSJ1OLPP89JB2DZ9UIBFQ3O", "current_trial": 163, "dateTime": 1513102703812, "trialdata": {"rt": -1000, "stimulus": "/static/audio/wordpool/MATTRESS.wav", "key_press": -1, "type": "PRES_AUD", "word": "mattress", "wordID": 878, "conditions": [12, 1600, "a", 24000], "trial": 4, "serialpos": 6, "trial_type": "single-audio", "trial_index": 163, "time_elapsed": 757367, "internal_node_id": "0.0-118.0"}}, {"uniqueid": "MTK1090:3Z3ZLGNNSJ1OLPP89JB2DZ9UIBFQ3O", "current_trial": 164, "dateTime": 1513102706314, "trialdata": {"rt": -1000, "stimulus": "/static/audio/wordpool/KLEENEX.wav", "key_press": -1, "type": "PRES_AUD", "word": "kleenex", "wordID": 781, "conditions": [12, 1600, "a", 24000], "trial": 4, "serialpos": 7, "trial_type": "single-audio", "trial_index": 164, "time_elapsed": 759869, "internal_node_id": "0.0-119.0"}}, {"uniqueid": "MTK1090:3Z3ZLGNNSJ1OLPP89JB2DZ9UIBFQ3O", "current_trial": 165, "dateTime": 1513102708964, "trialdata": {"rt": -1000, "stimulus": "/static/audio/wordpool/BRACES.wav", "key_press": -1, "type": "PRES_AUD", "word": "braces", "wordID": 163, "conditions": [12, 1600, "a", 24000], "trial": 4, "serialpos": 8, "trial_type": "single-audio", "trial_index": 165, "time_elapsed": 762519, "internal_node_id": "0.0-120.0"}}, {"uniqueid": "MTK1090:3Z3ZLGNNSJ1OLPP89JB2DZ9UIBFQ3O", "current_trial": 166, "dateTime": 1513102711713, "trialdata": {"rt": -1000, "stimulus": "/static/audio/wordpool/HAMPER.wav", "key_press": -1, "type": "PRES_AUD", "word": "hamper", "wordID": 681, "conditions": [12, 1600, "a", 24000], "trial": 4, "serialpos": 9, "trial_type": "single-audio", "trial_index": 166, "time_elapsed": 765264, "internal_node_id": "0.0-121.0"}}, {"uniqueid": "MTK1090:3Z3ZLGNNSJ1OLPP89JB2DZ9UIBFQ3O", "current_trial": 167, "dateTime": 1513102714166, "trialdata": {"rt": -1000, "stimulus": "/static/audio/wordpool/OMELET.wav", "key_press": -1, "type": "PRES_AUD", "word": "omelet", "wordID": 975, "conditions": [12, 1600, "a", 24000], "trial": 4, "serialpos": 10, "trial_type": "single-audio", "trial_index": 167, "time_elapsed": 767720, "internal_node_id": "0.0-122.0"}}, {"uniqueid": "MTK1090:3Z3ZLGNNSJ1OLPP89JB2DZ9UIBFQ3O", "current_trial": 168, "dateTime": 1513102716599, "trialdata": {"rt": -1000, "stimulus": "/static/audio/wordpool/JURY.wav", "key_press": -1, "type": "PRES_AUD", "word": "jury", "wordID": 765, "conditions": [12, 1600, "a", 24000], "trial": 4, "serialpos": 11, "trial_type": "single-audio", "trial_index": 168, "time_elapsed": 770154, "internal_node_id": "0.0-123.0"}}, {"uniqueid": "MTK1090:3Z3ZLGNNSJ1OLPP89JB2DZ9UIBFQ3O", "current_trial": 169, "dateTime": 1513102717829, "trialdata": {"rt": -1, "stimulus": "", "key_press": -1, "type": "PRE_RECALL_DELAY", "trial_type": "single-stim", "trial_index": 169, "time_elapsed": 771383, "internal_node_id": "0.0-124.0-0.0"}}, {"uniqueid": "MTK1090:3Z3ZLGNNSJ1OLPP89JB2DZ9UIBFQ3O", "current_trial": 170, "dateTime": 1513102718333, "trialdata": {"rt": -1000, "stimulus": "/static/audio/400Hz.wav", "key_press": -1, "type": "PRE_RECALL_ALERT", "trial_type": "single-audio", "trial_index": 170, "time_elapsed": 771888, "internal_node_id": "0.0-125.0"}}, {"uniqueid": "MTK1090:3Z3ZLGNNSJ1OLPP89JB2DZ9UIBFQ3O", "current_trial": 171, "dateTime": 1513102778346, "trialdata": {"rt": [4231, 11338, 14689, 18905, 21540, 22002, 24110], "recwords": ["silk", "sheriff", "mattress", "kleenex", "braces", "", "omlet"], "type": "FREE_RECALL", "conditions": [12, 1600, "a", 24000], "trial": 4, "trial_type": "free-recall", "trial_index": 171, "time_elapsed": 831895, "internal_node_id": "0.0-126.0-0.0"}}, {"uniqueid": "MTK1090:3Z3ZLGNNSJ1OLPP89JB2DZ9UIBFQ3O", "current_trial": 172, "dateTime": 1513102782286, "trialdata": {"rt": 1937, "key_press": 32, "type": "INSTRUCTIONS", "trial_type": "text", "trial_index": 172, "time_elapsed": 835841, "internal_node_id": "0.0-127.0"}}, {"uniqueid": "MTK1090:3Z3ZLGNNSJ1OLPP89JB2DZ9UIBFQ3O", "current_trial": 173, "dateTime": 1513102808295, "trialdata": {"rt": [7052, 10969, 15541, 17483, 19999], "responses": ["11", "19", "20", "122", "19"], "num1": [1, 8, 9, 5, 5, 9], "num2": [9, 7, 6, 1, 7, 5], "num3": [1, 4, 4, 6, 7, 7], "type": "DISTRACTOR", "conditions": [12, 800, "a", 24000], "trial": 5, "trial_type": "math-distractor", "trial_index": 173, "time_elapsed": 861850, "internal_node_id": "0.0-128.0"}}, {"uniqueid": "MTK1090:3Z3ZLGNNSJ1OLPP89JB2DZ9UIBFQ3O", "current_trial": 174, "dateTime": 1513102811303, "trialdata": {"rt": -1, "stimulus": "<p id=\"stim\">10</p>", "key_press": -1, "trial_type": "single-stim", "trial_index": 174, "time_elapsed": 864857, "internal_node_id": "0.0-129.0-0.0"}}, {"uniqueid": "MTK1090:3Z3ZLGNNSJ1OLPP89JB2DZ9UIBFQ3O", "current_trial": 175, "dateTime": 1513102812306, "trialdata": {"rt": -1, "stimulus": "<p id=\"stim\">9</p>", "key_press": -1, "trial_type": "single-stim", "trial_index": 175, "time_elapsed": 865861, "internal_node_id": "0.0-129.0-1.0"}}, {"uniqueid": "MTK1090:3Z3ZLGNNSJ1OLPP89JB2DZ9UIBFQ3O", "current_trial": 176, "dateTime": 1513102813308, "trialdata": {"rt": -1, "stimulus": "<p id=\"stim\">8</p>", "key_press": -1, "trial_type": "single-stim", "trial_index": 176, "time_elapsed": 866863, "internal_node_id": "0.0-129.0-2.0"}}, {"uniqueid": "MTK1090:3Z3ZLGNNSJ1OLPP89JB2DZ9UIBFQ3O", "current_trial": 177, "dateTime": 1513102814311, "trialdata": {"rt": -1, "stimulus": "<p id=\"stim\">7</p>", "key_press": -1, "trial_type": "single-stim", "trial_index": 177, "time_elapsed": 867866, "internal_node_id": "0.0-129.0-3.0"}}, {"uniqueid": "MTK1090:3Z3ZLGNNSJ1OLPP89JB2DZ9UIBFQ3O", "current_trial": 178, "dateTime": 1513102815314, "trialdata": {"rt": -1, "stimulus": "<p id=\"stim\">6</p>", "key_press": -1, "trial_type": "single-stim", "trial_index": 178, "time_elapsed": 868869, "internal_node_id": "0.0-129.0-4.0"}}, {"uniqueid": "MTK1090:3Z3ZLGNNSJ1OLPP89JB2DZ9UIBFQ3O", "current_trial": 179, "dateTime": 1513102816317, "trialdata": {"rt": -1, "stimulus": "<p id=\"stim\">5</p>", "key_press": -1, "trial_type": "single-stim", "trial_index": 179, "time_elapsed": 869872, "internal_node_id": "0.0-129.0-5.0"}}, {"uniqueid": "MTK1090:3Z3ZLGNNSJ1OLPP89JB2DZ9UIBFQ3O", "current_trial": 180, "dateTime": 1513102817319, "trialdata": {"rt": -1, "stimulus": "<p id=\"stim\">4</p>", "key_press": -1, "trial_type": "single-stim", "trial_index": 180, "time_elapsed": 870874, "internal_node_id": "0.0-129.0-6.0"}}, {"uniqueid": "MTK1090:3Z3ZLGNNSJ1OLPP89JB2DZ9UIBFQ3O", "current_trial": 181, "dateTime": 1513102818324, "trialdata": {"rt": -1, "stimulus": "<p id=\"stim\">3</p>", "key_press": -1, "trial_type": "single-stim", "trial_index": 181, "time_elapsed": 871879, "internal_node_id": "0.0-129.0-7.0"}}, {"uniqueid": "MTK1090:3Z3ZLGNNSJ1OLPP89JB2DZ9UIBFQ3O", "current_trial": 182, "dateTime": 1513102819327, "trialdata": {"rt": -1, "stimulus": "<p id=\"stim\">2</p>", "key_press": -1, "trial_type": "single-stim", "trial_index": 182, "time_elapsed": 872882, "internal_node_id": "0.0-129.0-8.0"}}, {"uniqueid": "MTK1090:3Z3ZLGNNSJ1OLPP89JB2DZ9UIBFQ3O", "current_trial": 183, "dateTime": 1513102820330, "trialdata": {"rt": -1, "stimulus": "<p id=\"stim\">1</p>", "key_press": -1, "trial_type": "single-stim", "trial_index": 183, "time_elapsed": 873885, "internal_node_id": "0.0-129.0-9.0"}}, {"uniqueid": "MTK1090:3Z3ZLGNNSJ1OLPP89JB2DZ9UIBFQ3O", "current_trial": 184, "dateTime": 1513102821833, "trialdata": {"rt": -1, "stimulus": "<p id=\"stim\">+</p>", "key_press": -1, "type": "FIXATION", "trial_type": "single-stim", "trial_index": 184, "time_elapsed": 875388, "internal_node_id": "0.0-130.0-0.0"}}, {"uniqueid": "MTK1090:3Z3ZLGNNSJ1OLPP89JB2DZ9UIBFQ3O", "current_trial": 185, "dateTime": 1513102823816, "trialdata": {"rt": -1000, "stimulus": "/static/audio/wordpool/SKIRT.wav", "key_press": -1, "type": "PRES_AUD", "word": "skirt", "wordID": 1318, "conditions": [12, 800, "a", 24000], "trial": 5, "serialpos": 0, "trial_type": "single-audio", "trial_index": 185, "time_elapsed": 877370, "internal_node_id": "0.0-131.0"}}, {"uniqueid": "MTK1090:3Z3ZLGNNSJ1OLPP89JB2DZ9UIBFQ3O", "current_trial": 186, "dateTime": 1513102825768, "trialdata": {"rt": -1000, "stimulus": "/static/audio/wordpool/VELVET.wav", "key_press": -1, "type": "PRES_AUD", "word": "velvet", "wordID": 1554, "conditions": [12, 800, "a", 24000], "trial": 5, "serialpos": 1, "trial_type": "single-audio", "trial_index": 186, "time_elapsed": 879323, "internal_node_id": "0.0-132.0"}}, {"uniqueid": "MTK1090:3Z3ZLGNNSJ1OLPP89JB2DZ9UIBFQ3O", "current_trial": 187, "dateTime": 1513102827475, "trialdata": {"rt": -1000, "stimulus": "/static/audio/wordpool/CHILD.wav", "key_press": -1, "type": "PRES_AUD", "word": "child", "wordID": 298, "conditions": [12, 800, "a", 24000], "trial": 5, "serialpos": 2, "trial_type": "single-audio", "trial_index": 187, "time_elapsed": 881030, "internal_node_id": "0.0-133.0"}}, {"uniqueid": "MTK1090:3Z3ZLGNNSJ1OLPP89JB2DZ9UIBFQ3O", "current_trial": 188, "dateTime": 1513102829271, "trialdata": {"rt": -1000, "stimulus": "/static/audio/wordpool/INFANT.wav", "key_press": -1, "type": "PRES_AUD", "word": "infant", "wordID": 736, "conditions": [12, 800, "a", 24000], "trial": 5, "serialpos": 3, "trial_type": "single-audio", "trial_index": 188, "time_elapsed": 882825, "internal_node_id": "0.0-134.0"}}, {"uniqueid": "MTK1090:3Z3ZLGNNSJ1OLPP89JB2DZ9UIBFQ3O", "current_trial": 189, "dateTime": 1513102831099, "trialdata": {"rt": -1000, "stimulus": "/static/audio/wordpool/TYPIST.wav", "key_press": -1, "type": "PRES_AUD", "word": "typist", "wordID": 1531, "conditions": [12, 800, "a", 24000], "trial": 5, "serialpos": 4, "trial_type": "single-audio", "trial_index": 189, "time_elapsed": 884653, "internal_node_id": "0.0-135.0"}}, {"uniqueid": "MTK1090:3Z3ZLGNNSJ1OLPP89JB2DZ9UIBFQ3O", "current_trial": 190, "dateTime": 1513102833106, "trialdata": {"rt": -1000, "stimulus": "/static/audio/wordpool/CLOTHES.wav", "key_press": -1, "type": "PRES_AUD", "word": "clothes", "wordID": 326, "conditions": [12, 800, "a", 24000], "trial": 5, "serialpos": 5, "trial_type": "single-audio", "trial_index": 190, "time_elapsed": 886660, "internal_node_id": "0.0-136.0"}}, {"uniqueid": "MTK1090:3Z3ZLGNNSJ1OLPP89JB2DZ9UIBFQ3O", "current_trial": 191, "dateTime": 1513102834996, "trialdata": {"rt": -1000, "stimulus": "/static/audio/wordpool/COWBOY.wav", "key_press": -1, "type": "PRES_AUD", "word": "cowboy", "wordID": 394, "conditions": [12, 800, "a", 24000], "trial": 5, "serialpos": 6, "trial_type": "single-audio", "trial_index": 191, "time_elapsed": 888550, "internal_node_id": "0.0-137.0"}}, {"uniqueid": "MTK1090:3Z3ZLGNNSJ1OLPP89JB2DZ9UIBFQ3O", "current_trial": 192, "dateTime": 1513102837002, "trialdata": {"rt": -1000, "stimulus": "/static/audio/wordpool/GARDEN.wav", "key_press": -1, "type": "PRES_AUD", "word": "garden", "wordID": 622, "conditions": [12, 800, "a", 24000], "trial": 5, "serialpos": 7, "trial_type": "single-audio", "trial_index": 192, "time_elapsed": 890556, "internal_node_id": "0.0-138.0"}}, {"uniqueid": "MTK1090:3Z3ZLGNNSJ1OLPP89JB2DZ9UIBFQ3O", "current_trial": 193, "dateTime": 1513102838923, "trialdata": {"rt": -1000, "stimulus": "/static/audio/wordpool/DRESS.wav", "key_press": -1, "type": "PRES_AUD", "word": "dress", "wordID": 494, "conditions": [12, 800, "a", 24000], "trial": 5, "serialpos": 8, "trial_type": "single-audio", "trial_index": 193, "time_elapsed": 892478, "internal_node_id": "0.0-139.0"}}, {"uniqueid": "MTK1090:3Z3ZLGNNSJ1OLPP89JB2DZ9UIBFQ3O", "current_trial": 194, "dateTime": 1513102840916, "trialdata": {"rt": -1000, "stimulus": "/static/audio/wordpool/AGENT.wav", "key_press": -1, "type": "PRES_AUD", "word": "agent", "wordID": 9, "conditions": [12, 800, "a", 24000], "trial": 5, "serialpos": 9, "trial_type": "single-audio", "trial_index": 194, "time_elapsed": 894470, "internal_node_id": "0.0-140.0"}}, {"uniqueid": "MTK1090:3Z3ZLGNNSJ1OLPP89JB2DZ9UIBFQ3O", "current_trial": 195, "dateTime": 1513102842766, "trialdata": {"rt": -1000, "stimulus": "/static/audio/wordpool/NOMAD.wav", "key_press": -1, "type": "PRES_AUD", "word": "nomad", "wordID": 954, "conditions": [12, 800, "a", 24000], "trial": 5, "serialpos": 10, "trial_type": "single-audio", "trial_index": 195, "time_elapsed": 896320, "internal_node_id": "0.0-141.0"}}, {"uniqueid": "MTK1090:3Z3ZLGNNSJ1OLPP89JB2DZ9UIBFQ3O", "current_trial": 196, "dateTime": 1513102844648, "trialdata": {"rt": -1000, "stimulus": "/static/audio/wordpool/POWDER.wav", "key_press": -1, "type": "PRES_AUD", "word": "powder", "wordID": 1116, "conditions": [12, 800, "a", 24000], "trial": 5, "serialpos": 11, "trial_type": "single-audio", "trial_index": 196, "time_elapsed": 898203, "internal_node_id": "0.0-142.0"}}, {"uniqueid": "MTK1090:3Z3ZLGNNSJ1OLPP89JB2DZ9UIBFQ3O", "current_trial": 197, "dateTime": 1513102845928, "trialdata": {"rt": -1, "stimulus": "", "key_press": -1, "type": "PRE_RECALL_DELAY", "trial_type": "single-stim", "trial_index": 197, "time_elapsed": 899483, "internal_node_id": "0.0-143.0-0.0"}}, {"uniqueid": "MTK1090:3Z3ZLGNNSJ1OLPP89JB2DZ9UIBFQ3O", "current_trial": 198, "dateTime": 1513102846436, "trialdata": {"rt": -1000, "stimulus": "/static/audio/400Hz.wav", "key_press": -1, "type": "PRE_RECALL_ALERT", "trial_type": "single-audio", "trial_index": 198, "time_elapsed": 899991, "internal_node_id": "0.0-144.0"}}, {"uniqueid": "MTK1090:3Z3ZLGNNSJ1OLPP89JB2DZ9UIBFQ3O", "current_trial": 199, "dateTime": 1513102906444, "trialdata": {"rt": [2840, 6482, 8439, 12089, 14974, 17250, 19066, 20838], "recwords": ["shirt", "velvet'", "child", "typist", "cowboy", "garden", "dress", "powder"], "type": "FREE_RECALL", "conditions": [12, 800, "a", 24000], "trial": 5, "trial_type": "free-recall", "trial_index": 199, "time_elapsed": 959995, "internal_node_id": "0.0-145.0-0.0"}}, {"uniqueid": "MTK1090:3Z3ZLGNNSJ1OLPP89JB2DZ9UIBFQ3O", "current_trial": 200, "dateTime": 1513102910294, "trialdata": {"rt": 1847, "key_press": 32, "type": "INSTRUCTIONS", "trial_type": "text", "trial_index": 200, "time_elapsed": 963849, "internal_node_id": "0.0-146.0"}}, {"uniqueid": "MTK1090:3Z3ZLGNNSJ1OLPP89JB2DZ9UIBFQ3O", "current_trial": 201, "dateTime": 1513102924300, "trialdata": {"rt": [4318, 8939], "responses": ["20", "16"], "num1": [4, 8, 4], "num2": [7, 3, 5], "num3": [9, 5, 9], "type": "DISTRACTOR", "conditions": [24, 800, "v", 12000], "trial": 6, "trial_type": "math-distractor", "trial_index": 201, "time_elapsed": 977855, "internal_node_id": "0.0-147.0"}}, {"uniqueid": "MTK1090:3Z3ZLGNNSJ1OLPP89JB2DZ9UIBFQ3O", "current_trial": 202, "dateTime": 1513102927305, "trialdata": {"rt": -1, "stimulus": "<p id=\"stim\">10</p>", "key_press": -1, "trial_type": "single-stim", "trial_index": 202, "time_elapsed": 980860, "internal_node_id": "0.0-148.0-0.0"}}, {"uniqueid": "MTK1090:3Z3ZLGNNSJ1OLPP89JB2DZ9UIBFQ3O", "current_trial": 203, "dateTime": 1513102928309, "trialdata": {"rt": -1, "stimulus": "<p id=\"stim\">9</p>", "key_press": -1, "trial_type": "single-stim", "trial_index": 203, "time_elapsed": 981864, "internal_node_id": "0.0-148.0-1.0"}}, {"uniqueid": "MTK1090:3Z3ZLGNNSJ1OLPP89JB2DZ9UIBFQ3O", "current_trial": 204, "dateTime": 1513102929313, "trialdata": {"rt": -1, "stimulus": "<p id=\"stim\">8</p>", "key_press": -1, "trial_type": "single-stim", "trial_index": 204, "time_elapsed": 982868, "internal_node_id": "0.0-148.0-2.0"}}, {"uniqueid": "MTK1090:3Z3ZLGNNSJ1OLPP89JB2DZ9UIBFQ3O", "current_trial": 205, "dateTime": 1513102930317, "trialdata": {"rt": -1, "stimulus": "<p id=\"stim\">7</p>", "key_press": -1, "trial_type": "single-stim", "trial_index": 205, "time_elapsed": 983872, "internal_node_id": "0.0-148.0-3.0"}}, {"uniqueid": "MTK1090:3Z3ZLGNNSJ1OLPP89JB2DZ9UIBFQ3O", "current_trial": 206, "dateTime": 1513102931321, "trialdata": {"rt": -1, "stimulus": "<p id=\"stim\">6</p>", "key_press": -1, "trial_type": "single-stim", "trial_index": 206, "time_elapsed": 984876, "internal_node_id": "0.0-148.0-4.0"}}, {"uniqueid": "MTK1090:3Z3ZLGNNSJ1OLPP89JB2DZ9UIBFQ3O", "current_trial": 207, "dateTime": 1513102932324, "trialdata": {"rt": -1, "stimulus": "<p id=\"stim\">5</p>", "key_press": -1, "trial_type": "single-stim", "trial_index": 207, "time_elapsed": 985879, "internal_node_id": "0.0-148.0-5.0"}}, {"uniqueid": "MTK1090:3Z3ZLGNNSJ1OLPP89JB2DZ9UIBFQ3O", "current_trial": 208, "dateTime": 1513102933326, "trialdata": {"rt": -1, "stimulus": "<p id=\"stim\">4</p>", "key_press": -1, "trial_type": "single-stim", "trial_index": 208, "time_elapsed": 986881, "internal_node_id": "0.0-148.0-6.0"}}, {"uniqueid": "MTK1090:3Z3ZLGNNSJ1OLPP89JB2DZ9UIBFQ3O", "current_trial": 209, "dateTime": 1513102934329, "trialdata": {"rt": -1, "stimulus": "<p id=\"stim\">3</p>", "key_press": -1, "trial_type": "single-stim", "trial_index": 209, "time_elapsed": 987884, "internal_node_id": "0.0-148.0-7.0"}}, {"uniqueid": "MTK1090:3Z3ZLGNNSJ1OLPP89JB2DZ9UIBFQ3O", "current_trial": 210, "dateTime": 1513102935333, "trialdata": {"rt": -1, "stimulus": "<p id=\"stim\">2</p>", "key_press": -1, "trial_type": "single-stim", "trial_index": 210, "time_elapsed": 988888, "internal_node_id": "0.0-148.0-8.0"}}, {"uniqueid": "MTK1090:3Z3ZLGNNSJ1OLPP89JB2DZ9UIBFQ3O", "current_trial": 211, "dateTime": 1513102936337, "trialdata": {"rt": -1, "stimulus": "<p id=\"stim\">1</p>", "key_press": -1, "trial_type": "single-stim", "trial_index": 211, "time_elapsed": 989891, "internal_node_id": "0.0-148.0-9.0"}}, {"uniqueid": "MTK1090:3Z3ZLGNNSJ1OLPP89JB2DZ9UIBFQ3O", "current_trial": 212, "dateTime": 1513102937840, "trialdata": {"rt": -1, "stimulus": "<p id=\"stim\">+</p>", "key_press": -1, "type": "FIXATION", "trial_type": "single-stim", "trial_index": 212, "time_elapsed": 991395, "internal_node_id": "0.0-149.0-0.0"}}, {"uniqueid": "MTK1090:3Z3ZLGNNSJ1OLPP89JB2DZ9UIBFQ3O", "current_trial": 213, "dateTime": 1513102938644, "trialdata": {"rt": -1, "stimulus": "<p id=\"stim\">FLESH</p>", "key_press": -1, "type": "PRES_VIS", "word": "flesh", "wordID": 578, "conditions": [24, 800, "v", 12000], "trial": 6, "serialpos": 0, "trial_type": "single-stim", "trial_index": 213, "time_elapsed": 992199, "internal_node_id": "0.0-150.0"}}, {"uniqueid": "MTK1090:3Z3ZLGNNSJ1OLPP89JB2DZ9UIBFQ3O", "current_trial": 214, "dateTime": 1513102940377, "trialdata": {"rt": -1, "stimulus": "<p id=\"stim\">GALLON</p>", "key_press": -1, "type": "PRES_VIS", "word": "gallon", "wordID": 617, "conditions": [24, 800, "v", 12000], "trial": 6, "serialpos": 1, "trial_type": "single-stim", "trial_index": 214, "time_elapsed": 993932, "internal_node_id": "0.0-151.0"}}, {"uniqueid": "MTK1090:3Z3ZLGNNSJ1OLPP89JB2DZ9UIBFQ3O", "current_trial": 215, "dateTime": 1513102942252, "trialdata": {"rt": -1, "stimulus": "<p id=\"stim\">MOTEL</p>", "key_press": -1, "type": "PRES_VIS", "word": "motel", "wordID": 918, "conditions": [24, 800, "v", 12000], "trial": 6, "serialpos": 2, "trial_type": "single-stim", "trial_index": 215, "time_elapsed": 995806, "internal_node_id": "0.0-152.0"}}, {"uniqueid": "MTK1090:3Z3ZLGNNSJ1OLPP89JB2DZ9UIBFQ3O", "current_trial": 216, "dateTime": 1513102944111, "trialdata": {"rt": -1, "stimulus": "<p id=\"stim\">TWEEZERS</p>", "key_press": -1, "type": "PRES_VIS", "word": "tweezers", "wordID": 1525, "conditions": [24, 800, "v", 12000], "trial": 6, "serialpos": 3, "trial_type": "single-stim", "trial_index": 216, "time_elapsed": 997665, "internal_node_id": "0.0-153.0"}}, {"uniqueid": "MTK1090:3Z3ZLGNNSJ1OLPP89JB2DZ9UIBFQ3O", "current_trial": 217, "dateTime": 1513102945881, "trialdata": {"rt": -1, "stimulus": "<p id=\"stim\">MARKER</p>", "key_press": -1, "type": "PRES_VIS", "word": "marker", "wordID": 869, "conditions": [24, 800, "v", 12000], "trial": 6, "serialpos": 4, "trial_type": "single-stim", "trial_index": 217, "time_elapsed": 999436, "internal_node_id": "0.0-154.0"}}, {"uniqueid": "MTK1090:3Z3ZLGNNSJ1OLPP89JB2DZ9UIBFQ3O", "current_trial": 218, "dateTime": 1513102947720, "trialdata": {"rt": -1, "stimulus": "<p id=\"stim\">LIZARD</p>", "key_press": -1, "type": "PRES_VIS", "word": "lizard", "wordID": 833, "conditions": [24, 800, "v", 12000], "trial": 6, "serialpos": 5, "trial_type": "single-stim", "trial_index": 218, "time_elapsed": 1001273, "internal_node_id": "0.0-155.0"}}, {"uniqueid": "MTK1090:3Z3ZLGNNSJ1OLPP89JB2DZ9UIBFQ3O", "current_trial": 219, "dateTime": 1513102949387, "trialdata": {"rt": -1, "stimulus": "<p id=\"stim\">PENGUIN</p>", "key_press": -1, "type": "PRES_VIS", "word": "penguin", "wordID": 1043, "conditions": [24, 800, "v", 12000], "trial": 6, "serialpos": 6, "trial_type": "single-stim", "trial_index": 219, "time_elapsed": 1002942, "internal_node_id": "0.0-156.0"}}, {"uniqueid": "MTK1090:3Z3ZLGNNSJ1OLPP89JB2DZ9UIBFQ3O", "current_trial": 220, "dateTime": 1513102951354, "trialdata": {"rt": -1, "stimulus": "<p id=\"stim\">LUGGAGE</p>", "key_press": -1, "type": "PRES_VIS", "word": "luggage", "wordID": 846, "conditions": [24, 800, "v", 12000], "trial": 6, "serialpos": 7, "trial_type": "single-stim", "trial_index": 220, "time_elapsed": 1004908, "internal_node_id": "0.0-157.0"}}, {"uniqueid": "MTK1090:3Z3ZLGNNSJ1OLPP89JB2DZ9UIBFQ3O", "current_trial": 221, "dateTime": 1513102952969, "trialdata": {"rt": -1, "stimulus": "<p id=\"stim\">CANYON</p>", "key_press": -1, "type": "PRES_VIS", "word": "canyon", "wordID": 234, "conditions": [24, 800, "v", 12000], "trial": 6, "serialpos": 8, "trial_type": "single-stim", "trial_index": 221, "time_elapsed": 1006524, "internal_node_id": "0.0-158.0"}}, {"uniqueid": "MTK1090:3Z3ZLGNNSJ1OLPP89JB2DZ9UIBFQ3O", "current_trial": 222, "dateTime": 1513102954828, "trialdata": {"rt": -1, "stimulus": "<p id=\"stim\">BABY</p>", "key_press": -1, "type": "PRES_VIS", "word": "baby", "wordID": 63, "conditions": [24, 800, "v", 12000], "trial": 6, "serialpos": 9, "trial_type": "single-stim", "trial_index": 222, "time_elapsed": 1008383, "internal_node_id": "0.0-159.0"}}, {"uniqueid": "MTK1090:3Z3ZLGNNSJ1OLPP89JB2DZ9UIBFQ3O", "current_trial": 223, "dateTime": 1513102956536, "trialdata": {"rt": -1, "stimulus": "<p id=\"stim\">WAITER</p>", "key_press": -1, "type": "PRES_VIS", "word": "waiter", "wordID": 1579, "conditions": [24, 800, "v", 12000], "trial": 6, "serialpos": 10, "trial_type": "single-stim", "trial_index": 223, "time_elapsed": 1010090, "internal_node_id": "0.0-160.0"}}, {"uniqueid": "MTK1090:3Z3ZLGNNSJ1OLPP89JB2DZ9UIBFQ3O", "current_trial": 224, "dateTime": 1513102958319, "trialdata": {"rt": -1, "stimulus": "<p id=\"stim\">SUITCASE</p>", "key_press": -1, "type": "PRES_VIS", "word": "suitcase", "wordID": 1402, "conditions": [24, 800, "v", 12000], "trial": 6, "serialpos": 11, "trial_type": "single-stim", "trial_index": 224, "time_elapsed": 1011873, "internal_node_id": "0.0-161.0"}}, {"uniqueid": "MTK1090:3Z3ZLGNNSJ1OLPP89JB2DZ9UIBFQ3O", "current_trial": 225, "dateTime": 1513102959952, "trialdata": {"rt": -1, "stimulus": "<p id=\"stim\">RABBIT</p>", "key_press": -1, "type": "PRES_VIS", "word": "rabbit", "wordID": 1151, "conditions": [24, 800, "v", 12000], "trial": 6, "serialpos": 12, "trial_type": "single-stim", "trial_index": 225, "time_elapsed": 1013506, "internal_node_id": "0.0-162.0"}}, {"uniqueid": "MTK1090:3Z3ZLGNNSJ1OLPP89JB2DZ9UIBFQ3O", "current_trial": 226, "dateTime": 1513102961851, "trialdata": {"rt": -1, "stimulus": "<p id=\"stim\">NEUTRON</p>", "key_press": -1, "type": "PRES_VIS", "word": "neutron", "wordID": 946, "conditions": [24, 800, "v", 12000], "trial": 6, "serialpos": 13, "trial_type": "single-stim", "trial_index": 226, "time_elapsed": 1015406, "internal_node_id": "0.0-163.0"}}, {"uniqueid": "MTK1090:3Z3ZLGNNSJ1OLPP89JB2DZ9UIBFQ3O", "current_trial": 227, "dateTime": 1513102963594, "trialdata": {"rt": -1, "stimulus": "<p id=\"stim\">TUBA</p>", "key_press": -1, "type": "PRES_VIS", "word": "tuba", "wordID": 1514, "conditions": [24, 800, "v", 12000], "trial": 6, "serialpos": 14, "trial_type": "single-stim", "trial_index": 227, "time_elapsed": 1017149, "internal_node_id": "0.0-164.0"}}, {"uniqueid": "MTK1090:3Z3ZLGNNSJ1OLPP89JB2DZ9UIBFQ3O", "current_trial": 228, "dateTime": 1513102965429, "trialdata": {"rt": -1, "stimulus": "<p id=\"stim\">TROMBONE</p>", "key_press": -1, "type": "PRES_VIS", "word": "trombone", "wordID": 1507, "conditions": [24, 800, "v", 12000], "trial": 6, "serialpos": 15, "trial_type": "single-stim", "trial_index": 228, "time_elapsed": 1018984, "internal_node_id": "0.0-165.0"}}, {"uniqueid": "MTK1090:3Z3ZLGNNSJ1OLPP89JB2DZ9UIBFQ3O", "current_trial": 229, "dateTime": 1513102967427, "trialdata": {"rt": -1, "stimulus": "<p id=\"stim\">LUNCH</p>", "key_press": -1, "type": "PRES_VIS", "word": "lunch", "wordID": 848, "conditions": [24, 800, "v", 12000], "trial": 6, "serialpos": 16, "trial_type": "single-stim", "trial_index": 229, "time_elapsed": 1020981, "internal_node_id": "0.0-166.0"}}, {"uniqueid": "MTK1090:3Z3ZLGNNSJ1OLPP89JB2DZ9UIBFQ3O", "current_trial": 230, "dateTime": 1513102969110, "trialdata": {"rt": -1, "stimulus": "<p id=\"stim\">STOMACH</p>", "key_press": -1, "type": "PRES_VIS", "word": "stomach", "wordID": 1383, "conditions": [24, 800, "v", 12000], "trial": 6, "serialpos": 17, "trial_type": "single-stim", "trial_index": 230, "time_elapsed": 1022665, "internal_node_id": "0.0-167.0"}}, {"uniqueid": "MTK1090:3Z3ZLGNNSJ1OLPP89JB2DZ9UIBFQ3O", "current_trial": 231, "dateTime": 1513102970751, "trialdata": {"rt": -1, "stimulus": "<p id=\"stim\">TILE</p>", "key_press": -1, "type": "PRES_VIS", "word": "tile", "wordID": 1467, "conditions": [24, 800, "v", 12000], "trial": 6, "serialpos": 18, "trial_type": "single-stim", "trial_index": 231, "time_elapsed": 1024305, "internal_node_id": "0.0-168.0"}}, {"uniqueid": "MTK1090:3Z3ZLGNNSJ1OLPP89JB2DZ9UIBFQ3O", "current_trial": 232, "dateTime": 1513102972506, "trialdata": {"rt": -1, "stimulus": "<p id=\"stim\">CLAM</p>", "key_press": -1, "type": "PRES_VIS", "word": "clam", "wordID": 314, "conditions": [24, 800, "v", 12000], "trial": 6, "serialpos": 19, "trial_type": "single-stim", "trial_index": 232, "time_elapsed": 1026060, "internal_node_id": "0.0-169.0"}}, {"uniqueid": "MTK1090:3Z3ZLGNNSJ1OLPP89JB2DZ9UIBFQ3O", "current_trial": 233, "dateTime": 1513102974354, "trialdata": {"rt": -1, "stimulus": "<p id=\"stim\">BARREL</p>", "key_press": -1, "type": "PRES_VIS", "word": "barrel", "wordID": 90, "conditions": [24, 800, "v", 12000], "trial": 6, "serialpos": 20, "trial_type": "single-stim", "trial_index": 233, "time_elapsed": 1027909, "internal_node_id": "0.0-170.0"}}, {"uniqueid": "MTK1090:3Z3ZLGNNSJ1OLPP89JB2DZ9UIBFQ3O", "current_trial": 234, "dateTime": 1513102976178, "trialdata": {"rt": -1, "stimulus": "<p id=\"stim\">CHEST</p>", "key_press": -1, "type": "PRES_VIS", "word": "chest", "wordID": 294, "conditions": [24, 800, "v", 12000], "trial": 6, "serialpos": 21, "trial_type": "single-stim", "trial_index": 234, "time_elapsed": 1029733, "internal_node_id": "0.0-171.0"}}, {"uniqueid": "MTK1090:3Z3ZLGNNSJ1OLPP89JB2DZ9UIBFQ3O", "current_trial": 235, "dateTime": 1513102978041, "trialdata": {"rt": -1, "stimulus": "<p id=\"stim\">DRINK</p>", "key_press": -1, "type": "PRES_VIS", "word": "drink", "wordID": 497, "conditions": [24, 800, "v", 12000], "trial": 6, "serialpos": 22, "trial_type": "single-stim", "trial_index": 235, "time_elapsed": 1031596, "internal_node_id": "0.0-172.0"}}, {"uniqueid": "MTK1090:3Z3ZLGNNSJ1OLPP89JB2DZ9UIBFQ3O", "current_trial": 236, "dateTime": 1513102979699, "trialdata": {"rt": -1, "stimulus": "<p id=\"stim\">COOKBOOK</p>", "key_press": -1, "type": "PRES_VIS", "word": "cookbook", "wordID": 372, "conditions": [24, 800, "v", 12000], "trial": 6, "serialpos": 23, "trial_type": "single-stim", "trial_index": 236, "time_elapsed": 1033254, "internal_node_id": "0.0-173.0"}}, {"uniqueid": "MTK1090:3Z3ZLGNNSJ1OLPP89JB2DZ9UIBFQ3O", "current_trial": 237, "dateTime": 1513102982133, "trialdata": {"rt": -1, "stimulus": "", "key_press": -1, "type": "PRE_RECALL_DELAY", "trial_type": "single-stim", "trial_index": 237, "time_elapsed": 1035688, "internal_node_id": "0.0-174.0-0.0"}}, {"uniqueid": "MTK1090:3Z3ZLGNNSJ1OLPP89JB2DZ9UIBFQ3O", "current_trial": 238, "dateTime": 1513102982651, "trialdata": {"rt": -1000, "stimulus": "/static/audio/400Hz.wav", "key_press": -1, "type": "PRE_RECALL_ALERT", "trial_type": "single-audio", "trial_index": 238, "time_elapsed": 1036205, "internal_node_id": "0.0-175.0"}}, {"uniqueid": "MTK1090:3Z3ZLGNNSJ1OLPP89JB2DZ9UIBFQ3O", "current_trial": 239, "dateTime": 1513103042707, "trialdata": {"rt": [4968, 7741, 12617, 16141, 20678, 23373, 25882, 28561], "recwords": ["drink", "cookbook", "flesh", "gallon", "lizard", "penguin", "canyon", "suitcase"], "type": "FREE_RECALL", "conditions": [24, 800, "v", 12000], "trial": 6, "trial_type": "free-recall", "trial_index": 239, "time_elapsed": 1096216, "internal_node_id": "0.0-176.0-0.0"}}, {"uniqueid": "MTK1090:3Z3ZLGNNSJ1OLPP89JB2DZ9UIBFQ3O", "current_trial": 240, "dateTime": 1513103047771, "trialdata": {"rt": 3060, "key_press": 32, "type": "INSTRUCTIONS", "trial_type": "text", "trial_index": 240, "time_elapsed": 1101326, "internal_node_id": "0.0-177.0"}}, {"uniqueid": "MTK1090:3Z3ZLGNNSJ1OLPP89JB2DZ9UIBFQ3O", "current_trial": 241, "dateTime": 1513103061785, "trialdata": {"rt": [2721, 6927, 10683], "responses": ["15", "15", "11"], "num1": [3, 6, 5, 1], "num2": [2, 4, 5, 9], "num3": [8, 5, 1, 6], "type": "DISTRACTOR", "conditions": [24, 1600, "v", 12000], "trial": 7, "trial_type": "math-distractor", "trial_index": 241, "time_elapsed": 1115340, "internal_node_id": "0.0-178.0"}}, {"uniqueid": "MTK1090:3Z3ZLGNNSJ1OLPP89JB2DZ9UIBFQ3O", "current_trial": 242, "dateTime": 1513103064790, "trialdata": {"rt": -1, "stimulus": "<p id=\"stim\">10</p>", "key_press": -1, "trial_type": "single-stim", "trial_index": 242, "time_elapsed": 1118344, "internal_node_id": "0.0-179.0-0.0"}}, {"uniqueid": "MTK1090:3Z3ZLGNNSJ1OLPP89JB2DZ9UIBFQ3O", "current_trial": 243, "dateTime": 1513103065795, "trialdata": {"rt": -1, "stimulus": "<p id=\"stim\">9</p>", "key_press": -1, "trial_type": "single-stim", "trial_index": 243, "time_elapsed": 1119348, "internal_node_id": "0.0-179.0-1.0"}}, {"uniqueid": "MTK1090:3Z3ZLGNNSJ1OLPP89JB2DZ9UIBFQ3O", "current_trial": 244, "dateTime": 1513103066802, "trialdata": {"rt": -1, "stimulus": "<p id=\"stim\">8</p>", "key_press": -1, "trial_type": "single-stim", "trial_index": 244, "time_elapsed": 1120356, "internal_node_id": "0.0-179.0-2.0"}}, {"uniqueid": "MTK1090:3Z3ZLGNNSJ1OLPP89JB2DZ9UIBFQ3O", "current_trial": 245, "dateTime": 1513103067807, "trialdata": {"rt": -1, "stimulus": "<p id=\"stim\">7</p>", "key_press": -1, "trial_type": "single-stim", "trial_index": 245, "time_elapsed": 1121361, "internal_node_id": "0.0-179.0-3.0"}}, {"uniqueid": "MTK1090:3Z3ZLGNNSJ1OLPP89JB2DZ9UIBFQ3O", "current_trial": 246, "dateTime": 1513103068817, "trialdata": {"rt": -1, "stimulus": "<p id=\"stim\">6</p>", "key_press": -1, "trial_type": "single-stim", "trial_index": 246, "time_elapsed": 1122365, "internal_node_id": "0.0-179.0-4.0"}}, {"uniqueid": "MTK1090:3Z3ZLGNNSJ1OLPP89JB2DZ9UIBFQ3O", "current_trial": 247, "dateTime": 1513103069820, "trialdata": {"rt": -1, "stimulus": "<p id=\"stim\">5</p>", "key_press": -1, "trial_type": "single-stim", "trial_index": 247, "time_elapsed": 1123374, "internal_node_id": "0.0-179.0-5.0"}}, {"uniqueid": "MTK1090:3Z3ZLGNNSJ1OLPP89JB2DZ9UIBFQ3O", "current_trial": 248, "dateTime": 1513103070825, "trialdata": {"rt": -1, "stimulus": "<p id=\"stim\">4</p>", "key_press": -1, "trial_type": "single-stim", "trial_index": 248, "time_elapsed": 1124379, "internal_node_id": "0.0-179.0-6.0"}}, {"uniqueid": "MTK1090:3Z3ZLGNNSJ1OLPP89JB2DZ9UIBFQ3O", "current_trial": 249, "dateTime": 1513103071829, "trialdata": {"rt": -1, "stimulus": "<p id=\"stim\">3</p>", "key_press": -1, "trial_type": "single-stim", "trial_index": 249, "time_elapsed": 1125384, "internal_node_id": "0.0-179.0-7.0"}}, {"uniqueid": "MTK1090:3Z3ZLGNNSJ1OLPP89JB2DZ9UIBFQ3O", "current_trial": 250, "dateTime": 1513103072831, "trialdata": {"rt": -1, "stimulus": "<p id=\"stim\">2</p>", "key_press": -1, "trial_type": "single-stim", "trial_index": 250, "time_elapsed": 1126386, "internal_node_id": "0.0-179.0-8.0"}}, {"uniqueid": "MTK1090:3Z3ZLGNNSJ1OLPP89JB2DZ9UIBFQ3O", "current_trial": 251, "dateTime": 1513103073835, "trialdata": {"rt": -1, "stimulus": "<p id=\"stim\">1</p>", "key_press": -1, "trial_type": "single-stim", "trial_index": 251, "time_elapsed": 1127390, "internal_node_id": "0.0-179.0-9.0"}}, {"uniqueid": "MTK1090:3Z3ZLGNNSJ1OLPP89JB2DZ9UIBFQ3O", "current_trial": 252, "dateTime": 1513103075338, "trialdata": {"rt": -1, "stimulus": "<p id=\"stim\">+</p>", "key_press": -1, "type": "FIXATION", "trial_type": "single-stim", "trial_index": 252, "time_elapsed": 1128893, "internal_node_id": "0.0-180.0-0.0"}}, {"uniqueid": "MTK1090:3Z3ZLGNNSJ1OLPP89JB2DZ9UIBFQ3O", "current_trial": 253, "dateTime": 1513103076944, "trialdata": {"rt": -1, "stimulus": "<p id=\"stim\">PERCH</p>", "key_press": -1, "type": "PRES_VIS", "word": "perch", "wordID": 1047, "conditions": [24, 1600, "v", 12000], "trial": 7, "serialpos": 0, "trial_type": "single-stim", "trial_index": 253, "time_elapsed": 1130498, "internal_node_id": "0.0-181.0"}}, {"uniqueid": "MTK1090:3Z3ZLGNNSJ1OLPP89JB2DZ9UIBFQ3O", "current_trial": 254, "dateTime": 1513103079600, "trialdata": {"rt": -1, "stimulus": "<p id=\"stim\">MUFFIN</p>", "key_press": -1, "type": "PRES_VIS", "word": "muffin", "wordID": 928, "conditions": [24, 1600, "v", 12000], "trial": 7, "serialpos": 1, "trial_type": "single-stim", "trial_index": 254, "time_elapsed": 1133155, "internal_node_id": "0.0-182.0"}}, {"uniqueid": "MTK1090:3Z3ZLGNNSJ1OLPP89JB2DZ9UIBFQ3O", "current_trial": 255, "dateTime": 1513103082212, "trialdata": {"rt": -1, "stimulus": "<p id=\"stim\">FARMER</p>", "key_press": -1, "type": "PRES_VIS", "word": "farmer", "wordID": 552, "conditions": [24, 1600, "v", 12000], "trial": 7, "serialpos": 2, "trial_type": "single-stim", "trial_index": 255, "time_elapsed": 1135767, "internal_node_id": "0.0-183.0"}}, {"uniqueid": "MTK1090:3Z3ZLGNNSJ1OLPP89JB2DZ9UIBFQ3O", "current_trial": 256, "dateTime": 1513103084878, "trialdata": {"rt": -1, "stimulus": "<p id=\"stim\">MARSH</p>", "key_press": -1, "type": "PRES_VIS", "word": "marsh", "wordID": 873, "conditions": [24, 1600, "v", 12000], "trial": 7, "serialpos": 3, "trial_type": "single-stim", "trial_index": 256, "time_elapsed": 1138432, "internal_node_id": "0.0-184.0"}}, {"uniqueid": "MTK1090:3Z3ZLGNNSJ1OLPP89JB2DZ9UIBFQ3O", "current_trial": 257, "dateTime": 1513103087392, "trialdata": {"rt": -1, "stimulus": "<p id=\"stim\">FLOWER</p>", "key_press": -1, "type": "PRES_VIS", "word": "flower", "wordID": 583, "conditions": [24, 1600, "v", 12000], "trial": 7, "serialpos": 4, "trial_type": "single-stim", "trial_index": 257, "time_elapsed": 1140946, "internal_node_id": "0.0-185.0"}}, {"uniqueid": "MTK1090:3Z3ZLGNNSJ1OLPP89JB2DZ9UIBFQ3O", "current_trial": 258, "dateTime": 1513103090048, "trialdata": {"rt": -1, "stimulus": "<p id=\"stim\">MAPLE</p>", "key_press": -1, "type": "PRES_VIS", "word": "maple", "wordID": 865, "conditions": [24, 1600, "v", 12000], "trial": 7, "serialpos": 5, "trial_type": "single-stim", "trial_index": 258, "time_elapsed": 1143603, "internal_node_id": "0.0-186.0"}}, {"uniqueid": "MTK1090:3Z3ZLGNNSJ1OLPP89JB2DZ9UIBFQ3O", "current_trial": 259, "dateTime": 1513103092463, "trialdata": {"rt": -1, "stimulus": "<p id=\"stim\">SHORTCAKE</p>", "key_press": -1, "type": "PRES_VIS", "word": "shortcake", "wordID": 1291, "conditions": [24, 1600, "v", 12000], "trial": 7, "serialpos": 6, "trial_type": "single-stim", "trial_index": 259, "time_elapsed": 1146018, "internal_node_id": "0.0-187.0"}}, {"uniqueid": "MTK1090:3Z3ZLGNNSJ1OLPP89JB2DZ9UIBFQ3O", "current_trial": 260, "dateTime": 1513103095113, "trialdata": {"rt": -1, "stimulus": "<p id=\"stim\">MAILBOX</p>", "key_press": -1, "type": "PRES_VIS", "word": "mailbox", "wordID": 856, "conditions": [24, 1600, "v", 12000], "trial": 7, "serialpos": 7, "trial_type": "single-stim", "trial_index": 260, "time_elapsed": 1148668, "internal_node_id": "0.0-188.0"}}, {"uniqueid": "MTK1090:3Z3ZLGNNSJ1OLPP89JB2DZ9UIBFQ3O", "current_trial": 261, "dateTime": 1513103097554, "trialdata": {"rt": -1, "stimulus": "<p id=\"stim\">MAILMAN</p>", "key_press": -1, "type": "PRES_VIS", "word": "mailman", "wordID": 857, "conditions": [24, 1600, "v", 12000], "trial": 7, "serialpos": 8, "trial_type": "single-stim", "trial_index": 261, "time_elapsed": 1151109, "internal_node_id": "0.0-189.0"}}, {"uniqueid": "MTK1090:3Z3ZLGNNSJ1OLPP89JB2DZ9UIBFQ3O", "current_trial": 262, "dateTime": 1513103099990, "trialdata": {"rt": -1, "stimulus": "<p id=\"stim\">PERMIT</p>", "key_press": -1, "type": "PRES_VIS", "word": "permit", "wordID": 1050, "conditions": [24, 1600, "v", 12000], "trial": 7, "serialpos": 9, "trial_type": "single-stim", "trial_index": 262, "time_elapsed": 1153545, "internal_node_id": "0.0-190.0"}}, {"uniqueid": "MTK1090:3Z3ZLGNNSJ1OLPP89JB2DZ9UIBFQ3O", "current_trial": 263, "dateTime": 1513103102438, "trialdata": {"rt": -1, "stimulus": "<p id=\"stim\">BARLEY</p>", "key_press": -1, "type": "PRES_VIS", "word": "barley", "wordID": 87, "conditions": [24, 1600, "v", 12000], "trial": 7, "serialpos": 10, "trial_type": "single-stim", "trial_index": 263, "time_elapsed": 1155992, "internal_node_id": "0.0-191.0"}}, {"uniqueid": "MTK1090:3Z3ZLGNNSJ1OLPP89JB2DZ9UIBFQ3O", "current_trial": 264, "dateTime": 1513103104956, "trialdata": {"rt": -1, "stimulus": "<p id=\"stim\">JELLO</p>", "key_press": -1, "type": "PRES_VIS", "word": "jello", "wordID": 753, "conditions": [24, 1600, "v", 12000], "trial": 7, "serialpos": 11, "trial_type": "single-stim", "trial_index": 264, "time_elapsed": 1158511, "internal_node_id": "0.0-192.0"}}, {"uniqueid": "MTK1090:3Z3ZLGNNSJ1OLPP89JB2DZ9UIBFQ3O", "current_trial": 265, "dateTime": 1513103107593, "trialdata": {"rt": -1, "stimulus": "<p id=\"stim\">BLACKBOARD</p>", "key_press": -1, "type": "PRES_VIS", "word": "blackboard", "wordID": 132, "conditions": [24, 1600, "v", 12000], "trial": 7, "serialpos": 12, "trial_type": "single-stim", "trial_index": 265, "time_elapsed": 1161148, "internal_node_id": "0.0-193.0"}}, {"uniqueid": "MTK1090:3Z3ZLGNNSJ1OLPP89JB2DZ9UIBFQ3O", "current_trial": 266, "dateTime": 1513103110268, "trialdata": {"rt": -1, "stimulus": "<p id=\"stim\">DOLPHIN</p>", "key_press": -1, "type": "PRES_VIS", "word": "dolphin", "wordID": 482, "conditions": [24, 1600, "v", 12000], "trial": 7, "serialpos": 13, "trial_type": "single-stim", "trial_index": 266, "time_elapsed": 1163823, "internal_node_id": "0.0-194.0"}}, {"uniqueid": "MTK1090:3Z3ZLGNNSJ1OLPP89JB2DZ9UIBFQ3O", "current_trial": 267, "dateTime": 1513103112950, "trialdata": {"rt": -1, "stimulus": "<p id=\"stim\">COSTUME</p>", "key_press": -1, "type": "PRES_VIS", "word": "costume", "wordID": 382, "conditions": [24, 1600, "v", 12000], "trial": 7, "serialpos": 14, "trial_type": "single-stim", "trial_index": 267, "time_elapsed": 1166505, "internal_node_id": "0.0-195.0"}}, {"uniqueid": "MTK1090:3Z3ZLGNNSJ1OLPP89JB2DZ9UIBFQ3O", "current_trial": 268, "dateTime": 1513103115654, "trialdata": {"rt": -1, "stimulus": "<p id=\"stim\">OX</p>", "key_press": -1, "type": "PRES_VIS", "word": "ox", "wordID": 993, "conditions": [24, 1600, "v", 12000], "trial": 7, "serialpos": 15, "trial_type": "single-stim", "trial_index": 268, "time_elapsed": 1169208, "internal_node_id": "0.0-196.0"}}, {"uniqueid": "MTK1090:3Z3ZLGNNSJ1OLPP89JB2DZ9UIBFQ3O", "current_trial": 269, "dateTime": 1513103118147, "trialdata": {"rt": -1, "stimulus": "<p id=\"stim\">BEAVER</p>", "key_press": -1, "type": "PRES_VIS", "word": "beaver", "wordID": 108, "conditions": [24, 1600, "v", 12000], "trial": 7, "serialpos": 16, "trial_type": "single-stim", "trial_index": 269, "time_elapsed": 1171702, "internal_node_id": "0.0-197.0"}}, {"uniqueid": "MTK1090:3Z3ZLGNNSJ1OLPP89JB2DZ9UIBFQ3O", "current_trial": 270, "dateTime": 1513103120796, "trialdata": {"rt": -1, "stimulus": "<p id=\"stim\">KIDNEY</p>", "key_press": -1, "type": "PRES_VIS", "word": "kidney", "wordID": 775, "conditions": [24, 1600, "v", 12000], "trial": 7, "serialpos": 17, "trial_type": "single-stim", "trial_index": 270, "time_elapsed": 1174350, "internal_node_id": "0.0-198.0"}}, {"uniqueid": "MTK1090:3Z3ZLGNNSJ1OLPP89JB2DZ9UIBFQ3O", "current_trial": 271, "dateTime": 1513103123355, "trialdata": {"rt": -1, "stimulus": "<p id=\"stim\">WARDROBE</p>", "key_press": -1, "type": "PRES_VIS", "word": "wardrobe", "wordID": 1586, "conditions": [24, 1600, "v", 12000], "trial": 7, "serialpos": 18, "trial_type": "single-stim", "trial_index": 271, "time_elapsed": 1176910, "internal_node_id": "0.0-199.0"}}, {"uniqueid": "MTK1090:3Z3ZLGNNSJ1OLPP89JB2DZ9UIBFQ3O", "current_trial": 272, "dateTime": 1513103126066, "trialdata": {"rt": -1, "stimulus": "<p id=\"stim\">BISON</p>", "key_press": -1, "type": "PRES_VIS", "word": "bison", "wordID": 130, "conditions": [24, 1600, "v", 12000], "trial": 7, "serialpos": 19, "trial_type": "single-stim", "trial_index": 272, "time_elapsed": 1179621, "internal_node_id": "0.0-200.0"}}, {"uniqueid": "MTK1090:3Z3ZLGNNSJ1OLPP89JB2DZ9UIBFQ3O", "current_trial": 273, "dateTim