{"assignmentId": "3FIJLY1B6VBY1P4MT1XFE38HK97PFQ", "workerId": "MTK1989", "questiondata": {"origin": "United States", "strat-rehearsal": "85", "marital": "Married/Domestic Partnership", "education": "High school diploma", "ethnicity": "Not Hispanic", "color_depth": 24, "distracted": "No", "wrote-notes": "Yes", "strat-other": "", "screen_width": 1366, "avail_screen_width": 1366, "avail_screen_height": 728, "strat-image": "36", "language": "English", "gender": "Female", "age": "30", "gender_other": "", "race": ["White"], "strat-categorize": "18", "pixel_depth": 24, "strat-spatial": "3", "strat-story": "27", "race_other": "", "screen_height": 768}, "bonus": 0, "hitId": "34F34TZU7W6GR0RIKR8M84WWKUV2J1", "counterbalance": 1225, "useragent": "Mozilla/5.0 (Windows NT 10.0; Win64; x64) AppleWebKit/537.36 (KHTML, like Gecko) Chrome/63.0.3239.132 Safari/537.36", "eventdata": [{"eventtype": "initialized", "interval": 0, "value": null, "timestamp": 1516643213140}, {"eventtype": "window_resize", "interval": 0, "value": [1366, 721], "timestamp": 1516643213140}, {"eventtype": "focus", "interval": 50247, "value": "off", "timestamp": 1516643263387}, {"eventtype": "focus", "interval": 11811, "value": "on", "timestamp": 1516643275198}, {"eventtype": "focus", "interval": 1545327, "value": "off", "timestamp": 1516644820525}, {"eventtype": "focus", "interval": 5269, "value": "on", "timestamp": 1516644825794}, {"eventtype": "focus", "interval": 1, "value": "on", "timestamp": 1516644825795}], "data": [{"current_trial": 0, "trialdata": {"rt": 2206, "trial_type": "text", "internal_node_id": "0.0-0.0", "time_elapsed": 2211, "key_press": 32, "type": "INSTRUCTIONS", "trial_index": 0}, "uniqueid": "MTK1989:3FIJLY1B6VBY1P4MT1XFE38HK97PFQ", "dateTime": 1516643215867}, {"current_trial": 1, "trialdata": {"rt": 40627, "trial_type": "text", "internal_node_id": "0.0-1.0", "time_elapsed": 42841, "key_press": 13, "type": "INSTRUCTIONS", "trial_index": 1}, "uniqueid": "MTK1989:3FIJLY1B6VBY1P4MT1XFE38HK97PFQ", "dateTime": 1516643256496}, {"current_trial": 2, "trialdata": {"rt": [23757], "trial_type": "audio-test", "responses": ["ocean"], "internal_node_id": "0.0-2.0", "time_elapsed": 66607, "type": "AUDIO_TEST", "trial_index": 2}, "uniqueid": "MTK1989:3FIJLY1B6VBY1P4MT1XFE38HK97PFQ", "dateTime": 1516643280263}, {"current_trial": 3, "trialdata": {"rt": [17708], "trial_type": "audio-test", "responses": ["crystal"], "internal_node_id": "0.0-3.0", "time_elapsed": 84321, "type": "AUDIO_TEST", "trial_index": 3}, "uniqueid": "MTK1989:3FIJLY1B6VBY1P4MT1XFE38HK97PFQ", "dateTime": 1516643297976}, {"current_trial": 4, "trialdata": {"rt": [5481], "trial_type": "audio-test", "responses": ["spice"], "internal_node_id": "0.0-4.0", "time_elapsed": 89808, "type": "AUDIO_TEST", "trial_index": 4}, "uniqueid": "MTK1989:3FIJLY1B6VBY1P4MT1XFE38HK97PFQ", "dateTime": 1516643303463}, {"current_trial": 5, "trialdata": {"rt": 18557, "trial_type": "survey-text", "responses": "{\"Q0\":\"11 pm \",\"Q1\":\"5:45 am \",\"Q2\":\"3\"}", "internal_node_id": "0.0-5.0", "time_elapsed": 109118, "type": "SLEEP_SURVEY", "trial_index": 5}, "uniqueid": "MTK1989:3FIJLY1B6VBY1P4MT1XFE38HK97PFQ", "dateTime": 1516643322773}, {"current_trial": 6, "trialdata": {"rt": 13509, "trial_type": "text", "internal_node_id": "0.0-6.0", "time_elapsed": 123628, "key_press": 32, "type": "INSTRUCTIONS", "trial_index": 6}, "uniqueid": "MTK1989:3FIJLY1B6VBY1P4MT1XFE38HK97PFQ", "dateTime": 1516643337283}, {"current_trial": 7, "trialdata": {"rt": 8656, "trial_type": "text", "internal_node_id": "0.0-7.0", "time_elapsed": 132787, "key_press": 32, "type": "INSTRUCTIONS", "trial_index": 7}, "uniqueid": "MTK1989:3FIJLY1B6VBY1P4MT1XFE38HK97PFQ", "dateTime": 1516643346442}, {"current_trial": 8, "trialdata": {"rt": 3519, "trial_type": "text", "internal_node_id": "0.0-8.0", "time_elapsed": 136807, "key_press": 32, "type": "INSTRUCTIONS", "trial_index": 8}, "uniqueid": "MTK1989:3FIJLY1B6VBY1P4MT1XFE38HK97PFQ", "dateTime": 1516643350462}, {"current_trial": 9, "trialdata": {"rt": [3522, 6308, 8834, 16935], "trial_type": "math-distractor", "key_times": [3133, 3522, 6022, 6088, 6308, 8478, 8555, 8834, 16485, 16706, 16935], "responses": ["4", "10", "16", "17"], "num2": [1, 3, 2, 3, 8], "num3": [2, 2, 6, 9, 9], "conditions": [18, 1200, "v", 18000], "internal_node_id": "0.0-9.0", "key_presses": [100, 13, 97, 96, 13, 97, 102, 13, 97, 103, 13], "trial": 0, "time_elapsed": 155831, "type": "DISTRACTOR", "trial_index": 9, "num1": [1, 4, 8, 5, 1]}, "uniqueid": "MTK1989:3FIJLY1B6VBY1P4MT1XFE38HK97PFQ", "dateTime": 1516643369486}, {"current_trial": 10, "trialdata": {"rt": -1, "trial_type": "single-stim", "stimulus": "<p id=\"stim\">10</p>", "internal_node_id": "0.0-10.0-0.0", "time_elapsed": 158833, "key_press": -1, "trial_index": 10}, "uniqueid": "MTK1989:3FIJLY1B6VBY1P4MT1XFE38HK97PFQ", "dateTime": 1516643372489}, {"current_trial": 11, "trialdata": {"rt": -1, "trial_type": "single-stim", "stimulus": "<p id=\"stim\">9</p>", "internal_node_id": "0.0-10.0-1.0", "time_elapsed": 159835, "key_press": -1, "trial_index": 11}, "uniqueid": "MTK1989:3FIJLY1B6VBY1P4MT1XFE38HK97PFQ", "dateTime": 1516643373491}, {"current_trial": 12, "trialdata": {"rt": -1, "trial_type": "single-stim", "stimulus": "<p id=\"stim\">8</p>", "internal_node_id": "0.0-10.0-2.0", "time_elapsed": 160837, "key_press": -1, "trial_index": 12}, "uniqueid": "MTK1989:3FIJLY1B6VBY1P4MT1XFE38HK97PFQ", "dateTime": 1516643374492}, {"current_trial": 13, "trialdata": {"rt": -1, "trial_type": "single-stim", "stimulus": "<p id=\"stim\">7</p>", "internal_node_id": "0.0-10.0-3.0", "time_elapsed": 161839, "key_press": -1, "trial_index": 13}, "uniqueid": "MTK1989:3FIJLY1B6VBY1P4MT1XFE38HK97PFQ", "dateTime": 1516643375494}, {"current_trial": 14, "trialdata": {"rt": -1, "trial_type": "single-stim", "stimulus": "<p id=\"stim\">6</p>", "internal_node_id": "0.0-10.0-4.0", "time_elapsed": 162840, "key_press": -1, "trial_index": 14}, "uniqueid": "MTK1989:3FIJLY1B6VBY1P4MT1XFE38HK97PFQ", "dateTime": 1516643376495}, {"current_trial": 15, "trialdata": {"rt": -1, "trial_type": "single-stim", "stimulus": "<p id=\"stim\">5</p>", "internal_node_id": "0.0-10.0-5.0", "time_elapsed": 163842, "key_press": -1, "trial_index": 15}, "uniqueid": "MTK1989:3FIJLY1B6VBY1P4MT1XFE38HK97PFQ", "dateTime": 1516643377497}, {"current_trial": 16, "trialdata": {"rt": -1, "trial_type": "single-stim", "stimulus": "<p id=\"stim\">4</p>", "internal_node_id": "0.0-10.0-6.0", "time_elapsed": 164853, "key_press": -1, "trial_index": 16}, "uniqueid": "MTK1989:3FIJLY1B6VBY1P4MT1XFE38HK97PFQ", "dateTime": 1516643378508}, {"current_trial": 17, "trialdata": {"rt": -1, "trial_type": "single-stim", "stimulus": "<p id=\"stim\">3</p>", "internal_node_id": "0.0-10.0-7.0", "time_elapsed": 165856, "key_press": -1, "trial_index": 17}, "uniqueid": "MTK1989:3FIJLY1B6VBY1P4MT1XFE38HK97PFQ", "dateTime": 1516643379512}, {"current_trial": 18, "trialdata": {"rt": -1, "trial_type": "single-stim", "stimulus": "<p id=\"stim\">2</p>", "internal_node_id": "0.0-10.0-8.0", "time_elapsed": 166858, "key_press": -1, "trial_index": 18}, "uniqueid": "MTK1989:3FIJLY1B6VBY1P4MT1XFE38HK97PFQ", "dateTime": 1516643380513}, {"current_trial": 19, "trialdata": {"rt": -1, "trial_type": "single-stim", "stimulus": "<p id=\"stim\">1</p>", "internal_node_id": "0.0-10.0-9.0", "time_elapsed": 167859, "key_press": -1, "trial_index": 19}, "uniqueid": "MTK1989:3FIJLY1B6VBY1P4MT1XFE38HK97PFQ", "dateTime": 1516643381514}, {"current_trial": 20, "trialdata": {"rt": -1, "trial_type": "single-stim", "stimulus": "<p id=\"stim\">+</p>", "internal_node_id": "0.0-11.0-0.0", "time_elapsed": 169361, "key_press": -1, "type": "FIXATION", "trial_index": 20}, "uniqueid": "MTK1989:3FIJLY1B6VBY1P4MT1XFE38HK97PFQ", "dateTime": 1516643383016}, {"current_trial": 21, "trialdata": {"rt": -1, "trial_type": "single-stim", "word": "thief", "stimulus": "<p id=\"stim\">THIEF</p>", "conditions": [18, 1200, "v", 18000], "internal_node_id": "0.0-12.0", "trial": 0, "time_elapsed": 170562, "serialpos": 0, "key_press": -1, "wordID": 1455, "type": "PRES_VIS", "trial_index": 21}, "uniqueid": "MTK1989:3FIJLY1B6VBY1P4MT1XFE38HK97PFQ", "dateTime": 1516643384217}, {"current_trial": 22, "trialdata": {"rt": -1, "trial_type": "single-stim", "word": "cross", "stimulus": "<p id=\"stim\">CROSS</p>", "conditions": [18, 1200, "v", 18000], "internal_node_id": "0.0-13.0", "trial": 0, "time_elapsed": 172825, "serialpos": 1, "key_press": -1, "wordID": 412, "type": "PRES_VIS", "trial_index": 22}, "uniqueid": "MTK1989:3FIJLY1B6VBY1P4MT1XFE38HK97PFQ", "dateTime": 1516643386480}, {"current_trial": 23, "trialdata": {"rt": -1, "trial_type": "single-stim", "word": "padding", "stimulus": "<p id=\"stim\">PADDING</p>", "conditions": [18, 1200, "v", 18000], "internal_node_id": "0.0-14.0", "trial": 0, "time_elapsed": 174934, "serialpos": 2, "key_press": -1, "wordID": 998, "type": "PRES_VIS", "trial_index": 23}, "uniqueid": "MTK1989:3FIJLY1B6VBY1P4MT1XFE38HK97PFQ", "dateTime": 1516643388589}, {"current_trial": 24, "trialdata": {"rt": -1, "trial_type": "single-stim", "word": "skillet", "stimulus": "<p id=\"stim\">SKILLET</p>", "conditions": [18, 1200, "v", 18000], "internal_node_id": "0.0-15.0", "trial": 0, "time_elapsed": 177098, "serialpos": 3, "key_press": -1, "wordID": 1316, "type": "PRES_VIS", "trial_index": 24}, "uniqueid": "MTK1989:3FIJLY1B6VBY1P4MT1XFE38HK97PFQ", "dateTime": 1516643390753}, {"current_trial": 25, "trialdata": {"rt": -1, "trial_type": "single-stim", "word": "slime", "stimulus": "<p id=\"stim\">SLIME</p>", "conditions": [18, 1200, "v", 18000], "internal_node_id": "0.0-16.0", "trial": 0, "time_elapsed": 179493, "serialpos": 4, "key_press": -1, "wordID": 1326, "type": "PRES_VIS", "trial_index": 25}, "uniqueid": "MTK1989:3FIJLY1B6VBY1P4MT1XFE38HK97PFQ", "dateTime": 1516643393148}, {"current_trial": 26, "trialdata": {"rt": -1, "trial_type": "single-stim", "word": "fleet", "stimulus": "<p id=\"stim\">FLEET</p>", "conditions": [18, 1200, "v", 18000], "internal_node_id": "0.0-17.0", "trial": 0, "time_elapsed": 181577, "serialpos": 5, "key_press": -1, "wordID": 577, "type": "PRES_VIS", "trial_index": 26}, "uniqueid": "MTK1989:3FIJLY1B6VBY1P4MT1XFE38HK97PFQ", "dateTime": 1516643395232}, {"current_trial": 27, "trialdata": {"rt": -1, "trial_type": "single-stim", "word": "venus", "stimulus": "<p id=\"stim\">VENUS</p>", "conditions": [18, 1200, "v", 18000], "internal_node_id": "0.0-18.0", "trial": 0, "time_elapsed": 183726, "serialpos": 6, "key_press": -1, "wordID": 1556, "type": "PRES_VIS", "trial_index": 27}, "uniqueid": "MTK1989:3FIJLY1B6VBY1P4MT1XFE38HK97PFQ", "dateTime": 1516643397381}, {"current_trial": 28, "trialdata": {"rt": -1, "trial_type": "single-stim", "word": "widow", "stimulus": "<p id=\"stim\">WIDOW</p>", "conditions": [18, 1200, "v", 18000], "internal_node_id": "0.0-19.0", "trial": 0, "time_elapsed": 185817, "serialpos": 7, "key_press": -1, "wordID": 1607, "type": "PRES_VIS", "trial_index": 28}, "uniqueid": "MTK1989:3FIJLY1B6VBY1P4MT1XFE38HK97PFQ", "dateTime": 1516643399472}, {"current_trial": 29, "trialdata": {"rt": -1, "trial_type": "single-stim", "word": "tweezers", "stimulus": "<p id=\"stim\">TWEEZERS</p>", "conditions": [18, 1200, "v", 18000], "internal_node_id": "0.0-20.0", "trial": 0, "time_elapsed": 188208, "serialpos": 8, "key_press": -1, "wordID": 1525, "type": "PRES_VIS", "trial_index": 29}, "uniqueid": "MTK1989:3FIJLY1B6VBY1P4MT1XFE38HK97PFQ", "dateTime": 1516643401863}, {"current_trial": 30, "trialdata": {"rt": -1, "trial_type": "single-stim", "word": "scarecrow", "stimulus": "<p id=\"stim\">SCARECROW</p>", "conditions": [18, 1200, "v", 18000], "internal_node_id": "0.0-21.0", "trial": 0, "time_elapsed": 190287, "serialpos": 9, "key_press": -1, "wordID": 1244, "type": "PRES_VIS", "trial_index": 30}, "uniqueid": "MTK1989:3FIJLY1B6VBY1P4MT1XFE38HK97PFQ", "dateTime": 1516643403942}, {"current_trial": 31, "trialdata": {"rt": -1, "trial_type": "single-stim", "word": "highway", "stimulus": "<p id=\"stim\">HIGHWAY</p>", "conditions": [18, 1200, "v", 18000], "internal_node_id": "0.0-22.0", "trial": 0, "time_elapsed": 192403, "serialpos": 10, "key_press": -1, "wordID": 706, "type": "PRES_VIS", "trial_index": 31}, "uniqueid": "MTK1989:3FIJLY1B6VBY1P4MT1XFE38HK97PFQ", "dateTime": 1516643406058}, {"current_trial": 32, "trialdata": {"rt": -1, "trial_type": "single-stim", "word": "female", "stimulus": "<p id=\"stim\">FEMALE</p>", "conditions": [18, 1200, "v", 18000], "internal_node_id": "0.0-23.0", "trial": 0, "time_elapsed": 194630, "serialpos": 11, "key_press": -1, "wordID": 558, "type": "PRES_VIS", "trial_index": 32}, "uniqueid": "MTK1989:3FIJLY1B6VBY1P4MT1XFE38HK97PFQ", "dateTime": 1516643408285}, {"current_trial": 33, "trialdata": {"rt": -1, "trial_type": "single-stim", "word": "empire", "stimulus": "<p id=\"stim\">EMPIRE</p>", "conditions": [18, 1200, "v", 18000], "internal_node_id": "0.0-24.0", "trial": 0, "time_elapsed": 197004, "serialpos": 12, "key_press": -1, "wordID": 529, "type": "PRES_VIS", "trial_index": 33}, "uniqueid": "MTK1989:3FIJLY1B6VBY1P4MT1XFE38HK97PFQ", "dateTime": 1516643410659}, {"current_trial": 34, "trialdata": {"rt": -1, "trial_type": "single-stim", "word": "spouse", "stimulus": "<p id=\"stim\">SPOUSE</p>", "conditions": [18, 1200, "v", 18000], "internal_node_id": "0.0-25.0", "trial": 0, "time_elapsed": 199243, "serialpos": 13, "key_press": -1, "wordID": 1357, "type": "PRES_VIS", "trial_index": 34}, "uniqueid": "MTK1989:3FIJLY1B6VBY1P4MT1XFE38HK97PFQ", "dateTime": 1516643412898}, {"current_trial": 35, "trialdata": {"rt": -1, "trial_type": "single-stim", "word": "uncle", "stimulus": "<p id=\"stim\">UNCLE</p>", "conditions": [18, 1200, "v", 18000], "internal_node_id": "0.0-26.0", "trial": 0, "time_elapsed": 201537, "serialpos": 14, "key_press": -1, "wordID": 1535, "type": "PRES_VIS", "trial_index": 35}, "uniqueid": "MTK1989:3FIJLY1B6VBY1P4MT1XFE38HK97PFQ", "dateTime": 1516643415192}, {"current_trial": 36, "trialdata": {"rt": -1, "trial_type": "single-stim", "word": "brick", "stimulus": "<p id=\"stim\">BRICK</p>", "conditions": [18, 1200, "v", 18000], "internal_node_id": "0.0-27.0", "trial": 0, "time_elapsed": 203928, "serialpos": 15, "key_press": -1, "wordID": 171, "type": "PRES_VIS", "trial_index": 36}, "uniqueid": "MTK1989:3FIJLY1B6VBY1P4MT1XFE38HK97PFQ", "dateTime": 1516643417583}, {"current_trial": 37, "trialdata": {"rt": -1, "trial_type": "single-stim", "word": "tortoise", "stimulus": "<p id=\"stim\">TORTOISE</p>", "conditions": [18, 1200, "v", 18000], "internal_node_id": "0.0-28.0", "trial": 0, "time_elapsed": 206152, "serialpos": 16, "key_press": -1, "wordID": 1485, "type": "PRES_VIS", "trial_index": 37}, "uniqueid": "MTK1989:3FIJLY1B6VBY1P4MT1XFE38HK97PFQ", "dateTime": 1516643419807}, {"current_trial": 38, "trialdata": {"rt": -1, "trial_type": "single-stim", "word": "toaster", "stimulus": "<p id=\"stim\">TOASTER</p>", "conditions": [18, 1200, "v", 18000], "internal_node_id": "0.0-29.0", "trial": 0, "time_elapsed": 208487, "serialpos": 17, "key_press": -1, "wordID": 1471, "type": "PRES_VIS", "trial_index": 38}, "uniqueid": "MTK1989:3FIJLY1B6VBY1P4MT1XFE38HK97PFQ", "dateTime": 1516643422142}, {"current_trial": 39, "trialdata": {"rt": -1, "trial_type": "single-stim", "stimulus": "", "internal_node_id": "0.0-30.0-0.0", "time_elapsed": 210855, "key_press": -1, "type": "PRE_RECALL_DELAY", "trial_index": 39}, "uniqueid": "MTK1989:3FIJLY1B6VBY1P4MT1XFE38HK97PFQ", "dateTime": 1516643424510}, {"current_trial": 40, "trialdata": {"rt": -1000, "trial_type": "single-audio", "stimulus": "/static/audio/400Hz.wav", "internal_node_id": "0.0-31.0", "time_elapsed": 211356, "key_press": -1, "type": "PRE_RECALL_ALERT", "trial_index": 40}, "uniqueid": "MTK1989:3FIJLY1B6VBY1P4MT1XFE38HK97PFQ", "dateTime": 1516643425011}, {"current_trial": 41, "trialdata": {"rt": [3604, 7721, 10554, 37600, 38439, 38618, 38758, 39264, 39448, 39620, 39773], "recwords": ["toaster", "tweezers", "skillet", "", "", "", "", "", "", "", ""], "key_times": [2143, 2370, 2440, 2704, 2902, 3131, 3249, 3604, 4257, 4598, 5030, 5926, 6521, 6860, 6925, 7170, 7721, 8894, 9177, 9376, 9667, 9840, 9977, 10128, 10554, 37600, 38091, 38439, 38618, 38758, 39264, 39448, 39620, 39773], "trial_type": "free-recall", "conditions": [18, 1200, "v", 18000], "internal_node_id": "0.0-32.0-0.0", "key_presses": [84, 79, 65, 83, 84, 69, 82, 13, 84, 87, 69, 69, 90, 69, 82, 83, 13, 83, 75, 73, 76, 76, 69, 84, 13, 13, 16, 13, 13, 13, 32, 32, 32, 32], "trial": 0, "time_elapsed": 271359, "type": "FREE_RECALL", "trial_index": 41}, "uniqueid": "MTK1989:3FIJLY1B6VBY1P4MT1XFE38HK97PFQ", "dateTime": 1516643485018}, {"current_trial": 42, "trialdata": {"rt": 3155, "trial_type": "text", "internal_node_id": "0.0-33.0", "time_elapsed": 276520, "key_press": 32, "type": "INSTRUCTIONS", "trial_index": 42}, "uniqueid": "MTK1989:3FIJLY1B6VBY1P4MT1XFE38HK97PFQ", "dateTime": 1516643490175}, {"current_trial": 43, "trialdata": {"rt": [4693, 6968, 9711, 11825, 16380], "trial_type": "math-distractor", "key_times": [4391, 4446, 4693, 6635, 6762, 6968, 9372, 9452, 9711, 11174, 11825, 15981, 16085, 16380], "responses": ["12", "11", "12", "4", "13"], "num2": [4, 2, 3, 1, 6, 9], "num3": [6, 8, 4, 1, 2, 4], "conditions": [18, 1200, "v", 18000], "internal_node_id": "0.0-34.0", "key_presses": [97, 98, 13, 97, 97, 13, 97, 98, 13, 100, 13, 97, 99, 13], "trial": 1, "time_elapsed": 296555, "type": "DISTRACTOR", "trial_index": 43, "num1": [2, 1, 5, 2, 5, 7]}, "uniqueid": "MTK1989:3FIJLY1B6VBY1P4MT1XFE38HK97PFQ", "dateTime": 1516643510210}, {"current_trial": 44, "trialdata": {"rt": -1, "trial_type": "single-stim", "stimulus": "<p id=\"stim\">10</p>", "internal_node_id": "0.0-35.0-0.0", "time_elapsed": 299557, "key_press": -1, "trial_index": 44}, "uniqueid": "MTK1989:3FIJLY1B6VBY1P4MT1XFE38HK97PFQ", "dateTime": 1516643513212}, {"current_trial": 45, "trialdata": {"rt": -1, "trial_type": "single-stim", "stimulus": "<p id=\"stim\">9</p>", "internal_node_id": "0.0-35.0-1.0", "time_elapsed": 300561, "key_press": -1, "trial_index": 45}, "uniqueid": "MTK1989:3FIJLY1B6VBY1P4MT1XFE38HK97PFQ", "dateTime": 1516643514216}, {"current_trial": 46, "trialdata": {"rt": -1, "trial_type": "single-stim", "stimulus": "<p id=\"stim\">8</p>", "internal_node_id": "0.0-35.0-2.0", "time_elapsed": 301573, "key_press": -1, "trial_index": 46}, "uniqueid": "MTK1989:3FIJLY1B6VBY1P4MT1XFE38HK97PFQ", "dateTime": 1516643515228}, {"current_trial": 47, "trialdata": {"rt": -1, "trial_type": "single-stim", "stimulus": "<p id=\"stim\">7</p>", "internal_node_id": "0.0-35.0-3.0", "time_elapsed": 302575, "key_press": -1, "trial_index": 47}, "uniqueid": "MTK1989:3FIJLY1B6VBY1P4MT1XFE38HK97PFQ", "dateTime": 1516643516230}, {"current_trial": 48, "trialdata": {"rt": -1, "trial_type": "single-stim", "stimulus": "<p id=\"stim\">6</p>", "internal_node_id": "0.0-35.0-4.0", "time_elapsed": 303576, "key_press": -1, "trial_index": 48}, "uniqueid": "MTK1989:3FIJLY1B6VBY1P4MT1XFE38HK97PFQ", "dateTime": 1516643517231}, {"current_trial": 49, "trialdata": {"rt": -1, "trial_type": "single-stim", "stimulus": "<p id=\"stim\">5</p>", "internal_node_id": "0.0-35.0-5.0", "time_elapsed": 304579, "key_press": -1, "trial_index": 49}, "uniqueid": "MTK1989:3FIJLY1B6VBY1P4MT1XFE38HK97PFQ", "dateTime": 1516643518234}, {"current_trial": 50, "trialdata": {"rt": -1, "trial_type": "single-stim", "stimulus": "<p id=\"stim\">4</p>", "internal_node_id": "0.0-35.0-6.0", "time_elapsed": 305582, "key_press": -1, "trial_index": 50}, "uniqueid": "MTK1989:3FIJLY1B6VBY1P4MT1XFE38HK97PFQ", "dateTime": 1516643519237}, {"current_trial": 51, "trialdata": {"rt": -1, "trial_type": "single-stim", "stimulus": "<p id=\"stim\">3</p>", "internal_node_id": "0.0-35.0-7.0", "time_elapsed": 306583, "key_press": -1, "trial_index": 51}, "uniqueid": "MTK1989:3FIJLY1B6VBY1P4MT1XFE38HK97PFQ", "dateTime": 1516643520238}, {"current_trial": 52, "trialdata": {"rt": -1, "trial_type": "single-stim", "stimulus": "<p id=\"stim\">2</p>", "internal_node_id": "0.0-35.0-8.0", "time_elapsed": 307584, "key_press": -1, "trial_index": 52}, "uniqueid": "MTK1989:3FIJLY1B6VBY1P4MT1XFE38HK97PFQ", "dateTime": 1516643521240}, {"current_trial": 53, "trialdata": {"rt": -1, "trial_type": "single-stim", "stimulus": "<p id=\"stim\">1</p>", "internal_node_id": "0.0-35.0-9.0", "time_elapsed": 308586, "key_press": -1, "trial_index": 53}, "uniqueid": "MTK1989:3FIJLY1B6VBY1P4MT1XFE38HK97PFQ", "dateTime": 1516643522242}, {"current_trial": 54, "trialdata": {"rt": -1, "trial_type": "single-stim", "stimulus": "<p id=\"stim\">+</p>", "internal_node_id": "0.0-36.0-0.0", "time_elapsed": 310088, "key_press": -1, "type": "FIXATION", "trial_index": 54}, "uniqueid": "MTK1989:3FIJLY1B6VBY1P4MT1XFE38HK97PFQ", "dateTime": 1516643523743}, {"current_trial": 55, "trialdata": {"rt": -1, "trial_type": "single-stim", "word": "scribble", "stimulus": "<p id=\"stim\">SCRIBBLE</p>", "conditions": [18, 1200, "v", 18000], "internal_node_id": "0.0-37.0", "trial": 1, "time_elapsed": 311290, "serialpos": 0, "key_press": -1, "wordID": 1255, "type": "PRES_VIS", "trial_index": 55}, "uniqueid": "MTK1989:3FIJLY1B6VBY1P4MT1XFE38HK97PFQ", "dateTime": 1516643524945}, {"current_trial": 56, "trialdata": {"rt": -1, "trial_type": "single-stim", "word": "marine", "stimulus": "<p id=\"stim\">MARINE</p>", "conditions": [18, 1200, "v", 18000], "internal_node_id": "0.0-38.0", "trial": 1, "time_elapsed": 313589, "serialpos": 1, "key_press": -1, "wordID": 868, "type": "PRES_VIS", "trial_index": 56}, "uniqueid": "MTK1989:3FIJLY1B6VBY1P4MT1XFE38HK97PFQ", "dateTime": 1516643527245}, {"current_trial": 57, "trialdata": {"rt": -1, "trial_type": "single-stim", "word": "teacher", "stimulus": "<p id=\"stim\">TEACHER</p>", "conditions": [18, 1200, "v", 18000], "internal_node_id": "0.0-39.0", "trial": 1, "time_elapsed": 315782, "serialpos": 2, "key_press": -1, "wordID": 1439, "type": "PRES_VIS", "trial_index": 57}, "uniqueid": "MTK1989:3FIJLY1B6VBY1P4MT1XFE38HK97PFQ", "dateTime": 1516643529437}, {"current_trial": 58, "trialdata": {"rt": -1, "trial_type": "single-stim", "word": "champagne", "stimulus": "<p id=\"stim\">CHAMPAGNE</p>", "conditions": [18, 1200, "v", 18000], "internal_node_id": "0.0-40.0", "trial": 1, "time_elapsed": 318044, "serialpos": 3, "key_press": -1, "wordID": 277, "type": "PRES_VIS", "trial_index": 58}, "uniqueid": "MTK1989:3FIJLY1B6VBY1P4MT1XFE38HK97PFQ", "dateTime": 1516643531699}, {"current_trial": 59, "trialdata": {"rt": -1, "trial_type": "single-stim", "word": "picnic", "stimulus": "<p id=\"stim\">PICNIC</p>", "conditions": [18, 1200, "v", 18000], "internal_node_id": "0.0-41.0", "trial": 1, "time_elapsed": 320272, "serialpos": 4, "key_press": -1, "wordID": 1059, "type": "PRES_VIS", "trial_index": 59}, "uniqueid": "MTK1989:3FIJLY1B6VBY1P4MT1XFE38HK97PFQ", "dateTime": 1516643533928}, {"current_trial": 60, "trialdata": {"rt": -1, "trial_type": "single-stim", "word": "shortcake", "stimulus": "<p id=\"stim\">SHORTCAKE</p>", "conditions": [18, 1200, "v", 18000], "internal_node_id": "0.0-42.0", "trial": 1, "time_elapsed": 322400, "serialpos": 5, "key_press": -1, "wordID": 1291, "type": "PRES_VIS", "trial_index": 60}, "uniqueid": "MTK1989:3FIJLY1B6VBY1P4MT1XFE38HK97PFQ", "dateTime": 1516643536056}, {"current_trial": 61, "trialdata": {"rt": -1, "trial_type": "single-stim", "word": "agent", "stimulus": "<p id=\"stim\">AGENT</p>", "conditions": [18, 1200, "v", 18000], "internal_node_id": "0.0-43.0", "trial": 1, "time_elapsed": 324747, "serialpos": 6, "key_press": -1, "wordID": 9, "type": "PRES_VIS", "trial_index": 61}, "uniqueid": "MTK1989:3FIJLY1B6VBY1P4MT1XFE38HK97PFQ", "dateTime": 1516643538402}, {"current_trial": 62, "trialdata": {"rt": -1, "trial_type": "single-stim", "word": "denim", "stimulus": "<p id=\"stim\">DENIM</p>", "conditions": [18, 1200, "v", 18000], "internal_node_id": "0.0-44.0", "trial": 1, "time_elapsed": 326940, "serialpos": 7, "key_press": -1, "wordID": 445, "type": "PRES_VIS", "trial_index": 62}, "uniqueid": "MTK1989:3FIJLY1B6VBY1P4MT1XFE38HK97PFQ", "dateTime": 1516643540595}, {"current_trial": 63, "trialdata": {"rt": -1, "trial_type": "single-stim", "word": "muffin", "stimulus": "<p id=\"stim\">MUFFIN</p>", "conditions": [18, 1200, "v", 18000], "internal_node_id": "0.0-45.0", "trial": 1, "time_elapsed": 329253, "serialpos": 8, "key_press": -1, "wordID": 928, "type": "PRES_VIS", "trial_index": 63}, "uniqueid": "MTK1989:3FIJLY1B6VBY1P4MT1XFE38HK97PFQ", "dateTime": 1516643542908}, {"current_trial": 64, "trialdata": {"rt": -1, "trial_type": "single-stim", "word": "temple", "stimulus": "<p id=\"stim\">TEMPLE</p>", "conditions": [18, 1200, "v", 18000], "internal_node_id": "0.0-46.0", "trial": 1, "time_elapsed": 331274, "serialpos": 9, "key_press": -1, "wordID": 1447, "type": "PRES_VIS", "trial_index": 64}, "uniqueid": "MTK1989:3FIJLY1B6VBY1P4MT1XFE38HK97PFQ", "dateTime": 1516643544929}, {"current_trial": 65, "trialdata": {"rt": -1, "trial_type": "single-stim", "word": "mailman", "stimulus": "<p id=\"stim\">MAILMAN</p>", "conditions": [18, 1200, "v", 18000], "internal_node_id": "0.0-47.0", "trial": 1, "time_elapsed": 333360, "serialpos": 10, "key_press": -1, "wordID": 857, "type": "PRES_VIS", "trial_index": 65}, "uniqueid": "MTK1989:3FIJLY1B6VBY1P4MT1XFE38HK97PFQ", "dateTime": 1516643547015}, {"current_trial": 66, "trialdata": {"rt": -1, "trial_type": "single-stim", "word": "passage", "stimulus": "<p id=\"stim\">PASSAGE</p>", "conditions": [18, 1200, "v", 18000], "internal_node_id": "0.0-48.0", "trial": 1, "time_elapsed": 335496, "serialpos": 11, "key_press": -1, "wordID": 1018, "type": "PRES_VIS", "trial_index": 66}, "uniqueid": "MTK1989:3FIJLY1B6VBY1P4MT1XFE38HK97PFQ", "dateTime": 1516643549151}, {"current_trial": 67, "trialdata": {"rt": -1, "trial_type": "single-stim", "word": "powder", "stimulus": "<p id=\"stim\">POWDER</p>", "conditions": [18, 1200, "v", 18000], "internal_node_id": "0.0-49.0", "trial": 1, "time_elapsed": 337809, "serialpos": 12, "key_press": -1, "wordID": 1116, "type": "PRES_VIS", "trial_index": 67}, "uniqueid": "MTK1989:3FIJLY1B6VBY1P4MT1XFE38HK97PFQ", "dateTime": 1516643551464}, {"current_trial": 68, "trialdata": {"rt": -1, "trial_type": "single-stim", "word": "snack", "stimulus": "<p id=\"stim\">SNACK</p>", "conditions": [18, 1200, "v", 18000], "internal_node_id": "0.0-50.0", "trial": 1, "time_elapsed": 339945, "serialpos": 13, "key_press": -1, "wordID": 1330, "type": "PRES_VIS", "trial_index": 68}, "uniqueid": "MTK1989:3FIJLY1B6VBY1P4MT1XFE38HK97PFQ", "dateTime": 1516643553626}, {"current_trial": 69, "trialdata": {"rt": -1, "trial_type": "single-stim", "word": "airport", "stimulus": "<p id=\"stim\">AIRPORT</p>", "conditions": [18, 1200, "v", 18000], "internal_node_id": "0.0-51.0", "trial": 1, "time_elapsed": 342110, "serialpos": 14, "key_press": -1, "wordID": 12, "type": "PRES_VIS", "trial_index": 69}, "uniqueid": "MTK1989:3FIJLY1B6VBY1P4MT1XFE38HK97PFQ", "dateTime": 1516643555765}, {"current_trial": 70, "trialdata": {"rt": -1, "trial_type": "single-stim", "word": "tart", "stimulus": "<p id=\"stim\">TART</p>", "conditions": [18, 1200, "v", 18000], "internal_node_id": "0.0-52.0", "trial": 1, "time_elapsed": 344250, "serialpos": 15, "key_press": -1, "wordID": 1435, "type": "PRES_VIS", "trial_index": 70}, "uniqueid": "MTK1989:3FIJLY1B6VBY1P4MT1XFE38HK97PFQ", "dateTime": 1516643557905}, {"current_trial": 71, "trialdata": {"rt": -1, "trial_type": "single-stim", "word": "pigeon", "stimulus": "<p id=\"stim\">PIGEON</p>", "conditions": [18, 1200, "v", 18000], "internal_node_id": "0.0-53.0", "trial": 1, "time_elapsed": 346635, "serialpos": 16, "key_press": -1, "wordID": 1064, "type": "PRES_VIS", "trial_index": 71}, "uniqueid": "MTK1989:3FIJLY1B6VBY1P4MT1XFE38HK97PFQ", "dateTime": 1516643560290}, {"current_trial": 72, "trialdata": {"rt": -1, "trial_type": "single-stim", "word": "umpire", "stimulus": "<p id=\"stim\">UMPIRE</p>", "conditions": [18, 1200, "v", 18000], "internal_node_id": "0.0-54.0", "trial": 1, "time_elapsed": 348708, "serialpos": 17, "key_press": -1, "wordID": 1534, "type": "PRES_VIS", "trial_index": 72}, "uniqueid": "MTK1989:3FIJLY1B6VBY1P4MT1XFE38HK97PFQ", "dateTime": 1516643562364}, {"current_trial": 73, "trialdata": {"rt": -1, "trial_type": "single-stim", "stimulus": "", "internal_node_id": "0.0-55.0-0.0", "time_elapsed": 350979, "key_press": -1, "type": "PRE_RECALL_DELAY", "trial_index": 73}, "uniqueid": "MTK1989:3FIJLY1B6VBY1P4MT1XFE38HK97PFQ", "dateTime": 1516643564634}, {"current_trial": 74, "trialdata": {"rt": -1000, "trial_type": "single-audio", "stimulus": "/static/audio/400Hz.wav", "internal_node_id": "0.0-56.0", "time_elapsed": 351494, "key_press": -1, "type": "PRE_RECALL_ALERT", "trial_index": 74}, "uniqueid": "MTK1989:3FIJLY1B6VBY1P4MT1XFE38HK97PFQ", "dateTime": 1516643565149}, {"current_trial": 75, "trialdata": {"rt": [3846, 5568, 11688, 16257], "recwords": ["umpire", "muffin", "skillet", "marine"], "key_times": [1372, 1599, 2367, 2585, 2731, 2878, 3846, 4366, 4587, 4909, 5053, 5158, 5282, 5568, 10667, 10732, 10961, 11179, 11291, 11402, 11500, 11688, 15115, 15208, 15492, 15543, 15675, 15839, 16257], "trial_type": "free-recall", "conditions": [18, 1200, "v", 18000], "internal_node_id": "0.0-57.0-0.0", "key_presses": [85, 77, 80, 73, 82, 69, 13, 77, 85, 70, 70, 73, 78, 13, 83, 75, 73, 76, 76, 69, 84, 13, 77, 65, 82, 73, 78, 69, 13], "trial": 1, "time_elapsed": 411513, "type": "FREE_RECALL", "trial_index": 75}, "uniqueid": "MTK1989:3FIJLY1B6VBY1P4MT1XFE38HK97PFQ", "dateTime": 1516643625186}, {"current_trial": 76, "trialdata": {"rt": 8327, "trial_type": "text", "internal_node_id": "0.0-58.0", "time_elapsed": 421860, "key_press": 32, "type": "INSTRUCTIONS", "trial_index": 76}, "uniqueid": "MTK1989:3FIJLY1B6VBY1P4MT1XFE38HK97PFQ", "dateTime": 1516643635515}, {"current_trial": 77, "trialdata": {"rt": [3693, 6901, 10444], "trial_type": "math-distractor", "key_times": [2514, 2704, 3276, 3693, 6355, 6674, 6901, 9855, 10444], "responses": ["17 ", "16", "9"], "num2": [7, 6, 2, 9], "num3": [5, 7, 3, 9], "conditions": [24, 800, "v", 12000], "internal_node_id": "0.0-59.0", "key_presses": [97, 103, 32, 13, 97, 102, 13, 105, 13], "trial": 2, "time_elapsed": 434895, "type": "DISTRACTOR", "trial_index": 77, "num1": [5, 5, 4, 8]}, "uniqueid": "MTK1989:3FIJLY1B6VBY1P4MT1XFE38HK97PFQ", "dateTime": 1516643648550}, {"current_trial": 78, "trialdata": {"rt": -1, "trial_type": "single-stim", "stimulus": "<p id=\"stim\">10</p>", "internal_node_id": "0.0-60.0-0.0", "time_elapsed": 437896, "key_press": -1, "trial_index": 78}, "uniqueid": "MTK1989:3FIJLY1B6VBY1P4MT1XFE38HK97PFQ", "dateTime": 1516643651551}, {"current_trial": 79, "trialdata": {"rt": -1, "trial_type": "single-stim", "stimulus": "<p id=\"stim\">9</p>", "internal_node_id": "0.0-60.0-1.0", "time_elapsed": 438897, "key_press": -1, "trial_index": 79}, "uniqueid": "MTK1989:3FIJLY1B6VBY1P4MT1XFE38HK97PFQ", "dateTime": 1516643652552}, {"current_trial": 80, "trialdata": {"rt": -1, "trial_type": "single-stim", "stimulus": "<p id=\"stim\">8</p>", "internal_node_id": "0.0-60.0-2.0", "time_elapsed": 439898, "key_press": -1, "trial_index": 80}, "uniqueid": "MTK1989:3FIJLY1B6VBY1P4MT1XFE38HK97PFQ", "dateTime": 1516643653553}, {"current_trial": 81, "trialdata": {"rt": -1, "trial_type": "single-stim", "stimulus": "<p id=\"stim\">7</p>", "internal_node_id": "0.0-60.0-3.0", "time_elapsed": 440900, "key_press": -1, "trial_index": 81}, "uniqueid": "MTK1989:3FIJLY1B6VBY1P4MT1XFE38HK97PFQ", "dateTime": 1516643654555}, {"current_trial": 82, "trialdata": {"rt": -1, "trial_type": "single-stim", "stimulus": "<p id=\"stim\">6</p>", "internal_node_id": "0.0-60.0-4.0", "time_elapsed": 441902, "key_press": -1, "trial_index": 82}, "uniqueid": "MTK1989:3FIJLY1B6VBY1P4MT1XFE38HK97PFQ", "dateTime": 1516643655557}, {"current_trial": 83, "trialdata": {"rt": -1, "trial_type": "single-stim", "stimulus": "<p id=\"stim\">5</p>", "internal_node_id": "0.0-60.0-5.0", "time_elapsed": 442903, "key_press": -1, "trial_index": 83}, "uniqueid": "MTK1989:3FIJLY1B6VBY1P4MT1XFE38HK97PFQ", "dateTime": 1516643656558}, {"current_trial": 84, "trialdata": {"rt": -1, "trial_type": "single-stim", "stimulus": "<p id=\"stim\">4</p>", "internal_node_id": "0.0-60.0-6.0", "time_elapsed": 443904, "key_press": -1, "trial_index": 84}, "uniqueid": "MTK1989:3FIJLY1B6VBY1P4MT1XFE38HK97PFQ", "dateTime": 1516643657559}, {"current_trial": 85, "trialdata": {"rt": -1, "trial_type": "single-stim", "stimulus": "<p id=\"stim\">3</p>", "internal_node_id": "0.0-60.0-7.0", "time_elapsed": 444906, "key_press": -1, "trial_index": 85}, "uniqueid": "MTK1989:3FIJLY1B6VBY1P4MT1XFE38HK97PFQ", "dateTime": 1516643658563}, {"current_trial": 86, "trialdata": {"rt": -1, "trial_type": "single-stim", "stimulus": "<p id=\"stim\">2</p>", "internal_node_id": "0.0-60.0-8.0", "time_elapsed": 445909, "key_press": -1, "trial_index": 86}, "uniqueid": "MTK1989:3FIJLY1B6VBY1P4MT1XFE38HK97PFQ", "dateTime": 1516643659564}, {"current_trial": 87, "trialdata": {"rt": -1, "trial_type": "single-stim", "stimulus": "<p id=\"stim\">1</p>", "internal_node_id": "0.0-60.0-9.0", "time_elapsed": 446910, "key_press": -1, "trial_index": 87}, "uniqueid": "MTK1989:3FIJLY1B6VBY1P4MT1XFE38HK97PFQ", "dateTime": 1516643660565}, {"current_trial": 88, "trialdata": {"rt": -1, "trial_type": "single-stim", "stimulus": "<p id=\"stim\">+</p>", "internal_node_id": "0.0-61.0-0.0", "time_elapsed": 448411, "key_press": -1, "type": "FIXATION", "trial_index": 88}, "uniqueid": "MTK1989:3FIJLY1B6VBY1P4MT1XFE38HK97PFQ", "dateTime": 1516643662066}, {"current_trial": 89, "trialdata": {"rt": -1, "trial_type": "single-stim", "word": "piston", "stimulus": "<p id=\"stim\">PISTON</p>", "conditions": [24, 800, "v", 12000], "internal_node_id": "0.0-62.0", "trial": 2, "time_elapsed": 449212, "serialpos": 0, "key_press": -1, "wordID": 1075, "type": "PRES_VIS", "trial_index": 89}, "uniqueid": "MTK1989:3FIJLY1B6VBY1P4MT1XFE38HK97PFQ", "dateTime": 1516643662867}, {"current_trial": 90, "trialdata": {"rt": -1, "trial_type": "single-stim", "word": "missile", "stimulus": "<p id=\"stim\">MISSILE</p>", "conditions": [24, 800, "v", 12000], "internal_node_id": "0.0-63.0", "trial": 2, "time_elapsed": 450999, "serialpos": 1, "key_press": -1, "wordID": 899, "type": "PRES_VIS", "trial_index": 90}, "uniqueid": "MTK1989:3FIJLY1B6VBY1P4MT1XFE38HK97PFQ", "dateTime": 1516643664654}, {"current_trial": 91, "trialdata": {"rt": -1, "trial_type": "single-stim", "word": "drink", "stimulus": "<p id=\"stim\">DRINK</p>", "conditions": [24, 800, "v", 12000], "internal_node_id": "0.0-64.0", "trial": 2, "time_elapsed": 452624, "serialpos": 2, "key_press": -1, "wordID": 497, "type": "PRES_VIS", "trial_index": 91}, "uniqueid": "MTK1989:3FIJLY1B6VBY1P4MT1XFE38HK97PFQ", "dateTime": 1516643666279}, {"current_trial": 92, "trialdata": {"rt": -1, "trial_type": "single-stim", "word": "compass", "stimulus": "<p id=\"stim\">COMPASS</p>", "conditions": [24, 800, "v", 12000], "internal_node_id": "0.0-65.0", "trial": 2, "time_elapsed": 454243, "serialpos": 3, "key_press": -1, "wordID": 357, "type": "PRES_VIS", "trial_index": 92}, "uniqueid": "MTK1989:3FIJLY1B6VBY1P4MT1XFE38HK97PFQ", "dateTime": 1516643667898}, {"current_trial": 93, "trialdata": {"rt": -1, "trial_type": "single-stim", "word": "razor", "stimulus": "<p id=\"stim\">RAZOR</p>", "conditions": [24, 800, "v", 12000], "internal_node_id": "0.0-66.0", "trial": 2, "time_elapsed": 456028, "serialpos": 4, "key_press": -1, "wordID": 1170, "type": "PRES_VIS", "trial_index": 93}, "uniqueid": "MTK1989:3FIJLY1B6VBY1P4MT1XFE38HK97PFQ", "dateTime": 1516643669683}, {"current_trial": 94, "trialdata": {"rt": -1, "trial_type": "single-stim", "word": "blade", "stimulus": "<p id=\"stim\">BLADE</p>", "conditions": [24, 800, "v", 12000], "internal_node_id": "0.0-67.0", "trial": 2, "time_elapsed": 457839, "serialpos": 5, "key_press": -1, "wordID": 133, "type": "PRES_VIS", "trial_index": 94}, "uniqueid": "MTK1989:3FIJLY1B6VBY1P4MT1XFE38HK97PFQ", "dateTime": 1516643671494}, {"current_trial": 95, "trialdata": {"rt": -1, "trial_type": "single-stim", "word": "staple", "stimulus": "<p id=\"stim\">STAPLE</p>", "conditions": [24, 800, "v", 12000], "internal_node_id": "0.0-68.0", "trial": 2, "time_elapsed": 459610, "serialpos": 6, "key_press": -1, "wordID": 1370, "type": "PRES_VIS", "trial_index": 95}, "uniqueid": "MTK1989:3FIJLY1B6VBY1P4MT1XFE38HK97PFQ", "dateTime": 1516643673265}, {"current_trial": 96, "trialdata": {"rt": -1, "trial_type": "single-stim", "word": "salmon", "stimulus": "<p id=\"stim\">SALMON</p>", "conditions": [24, 800, "v", 12000], "internal_node_id": "0.0-69.0", "trial": 2, "time_elapsed": 461358, "serialpos": 7, "key_press": -1, "wordID": 1226, "type": "PRES_VIS", "trial_index": 96}, "uniqueid": "MTK1989:3FIJLY1B6VBY1P4MT1XFE38HK97PFQ", "dateTime": 1516643675016}, {"current_trial": 97, "trialdata": {"rt": -1, "trial_type": "single-stim", "word": "permit", "stimulus": "<p id=\"stim\">PERMIT</p>", "conditions": [24, 800, "v", 12000], "internal_node_id": "0.0-70.0", "trial": 2, "time_elapsed": 463259, "serialpos": 8, "key_press": -1, "wordID": 1050, "type": "PRES_VIS", "trial_index": 97}, "uniqueid": "MTK1989:3FIJLY1B6VBY1P4MT1XFE38HK97PFQ", "dateTime": 1516643676914}, {"current_trial": 98, "trialdata": {"rt": -1, "trial_type": "single-stim", "word": "gravel", "stimulus": "<p id=\"stim\">GRAVEL</p>", "conditions": [24, 800, "v", 12000], "internal_node_id": "0.0-71.0", "trial": 2, "time_elapsed": 465108, "serialpos": 9, "key_press": -1, "wordID": 658, "type": "PRES_VIS", "trial_index": 98}, "uniqueid": "MTK1989:3FIJLY1B6VBY1P4MT1XFE38HK97PFQ", "dateTime": 1516643678763}, {"current_trial": 99, "trialdata": {"rt": -1, "trial_type": "single-stim", "word": "trout", "stimulus": "<p id=\"stim\">TROUT</p>", "conditions": [24, 800, "v", 12000], "internal_node_id": "0.0-72.0", "trial": 2, "time_elapsed": 466813, "serialpos": 10, "key_press": -1, "wordID": 1510, "type": "PRES_VIS", "trial_index": 99}, "uniqueid": "MTK1989:3FIJLY1B6VBY1P4MT1XFE38HK97PFQ", "dateTime": 1516643680468}, {"current_trial": 100, "trialdata": {"rt": -1, "trial_type": "single-stim", "word": "knife", "stimulus": "<p id=\"stim\">KNIFE</p>", "conditions": [24, 800, "v", 12000], "internal_node_id": "0.0-73.0", "trial": 2, "time_elapsed": 468727, "serialpos": 11, "key_press": -1, "wordID": 784, "type": "PRES_VIS", "trial_index": 100}, "uniqueid": "MTK1989:3FIJLY1B6VBY1P4MT1XFE38HK97PFQ", "dateTime": 1516643682382}, {"current_trial": 101, "trialdata": {"rt": -1, "trial_type": "single-stim", "word": "sister", "stimulus": "<p id=\"stim\">SISTER</p>", "conditions": [24, 800, "v", 12000], "internal_node_id": "0.0-74.0", "trial": 2, "time_elapsed": 470531, "serialpos": 12, "key_press": -1, "wordID": 1311, "type": "PRES_VIS", "trial_index": 101}, "uniqueid": "MTK1989:3FIJLY1B6VBY1P4MT1XFE38HK97PFQ", "dateTime": 1516643684186}, {"current_trial": 102, "trialdata": {"rt": -1, "trial_type": "single-stim", "word": "husband", "stimulus": "<p id=\"stim\">HUSBAND</p>", "conditions": [24, 800, "v", 12000], "internal_node_id": "0.0-75.0", "trial": 2, "time_elapsed": 472312, "serialpos": 13, "key_press": -1, "wordID": 727, "type": "PRES_VIS", "trial_index": 102}, "uniqueid": "MTK1989:3FIJLY1B6VBY1P4MT1XFE38HK97PFQ", "dateTime": 1516643685967}, {"current_trial": 103, "trialdata": {"rt": -1, "trial_type": "single-stim", "word": "custard", "stimulus": "<p id=\"stim\">CUSTARD</p>", "conditions": [24, 800, "v", 12000], "internal_node_id": "0.0-76.0", "trial": 2, "time_elapsed": 473932, "serialpos": 14, "key_press": -1, "wordID": 428, "type": "PRES_VIS", "trial_index": 103}, "uniqueid": "MTK1989:3FIJLY1B6VBY1P4MT1XFE38HK97PFQ", "dateTime": 1516643687587}, {"current_trial": 104, "trialdata": {"rt": -1, "trial_type": "single-stim", "word": "termite", "stimulus": "<p id=\"stim\">TERMITE</p>", "conditions": [24, 800, "v", 12000], "internal_node_id": "0.0-77.0", "trial": 2, "time_elapsed": 475544, "serialpos": 15, "key_press": -1, "wordID": 1450, "type": "PRES_VIS", "trial_index": 104}, "uniqueid": "MTK1989:3FIJLY1B6VBY1P4MT1XFE38HK97PFQ", "dateTime": 1516643689199}, {"current_trial": 105, "trialdata": {"rt": -1, "trial_type": "single-stim", "word": "freckle", "stimulus": "<p id=\"stim\">FRECKLE</p>", "conditions": [24, 800, "v", 12000], "internal_node_id": "0.0-78.0", "trial": 2, "time_elapsed": 477252, "serialpos": 16, "key_press": -1, "wordID": 601, "type": "PRES_VIS", "trial_index": 105}, "uniqueid": "MTK1989:3FIJLY1B6VBY1P4MT1XFE38HK97PFQ", "dateTime": 1516643690907}, {"current_trial": 106, "trialdata": {"rt": -1, "trial_type": "single-stim", "word": "quarter", "stimulus": "<p id=\"stim\">QUARTER</p>", "conditions": [24, 800, "v", 12000], "internal_node_id": "0.0-79.0", "trial": 2, "time_elapsed": 478905, "serialpos": 17, "key_press": -1, "wordID": 1147, "type": "PRES_VIS", "trial_index": 106}, "uniqueid": "MTK1989:3FIJLY1B6VBY1P4MT1XFE38HK97PFQ", "dateTime": 1516643692560}, {"current_trial": 107, "trialdata": {"rt": -1, "trial_type": "single-stim", "word": "beaver", "stimulus": "<p id=\"stim\">BEAVER</p>", "conditions": [24, 800, "v", 12000], "internal_node_id": "0.0-80.0", "trial": 2, "time_elapsed": 480757, "serialpos": 18, "key_press": -1, "wordID": 108, "type": "PRES_VIS", "trial_index": 107}, "uniqueid": "MTK1989:3FIJLY1B6VBY1P4MT1XFE38HK97PFQ", "dateTime": 1516643694412}, {"current_trial": 108, "trialdata": {"rt": -1, "trial_type": "single-stim", "word": "relish", "stimulus": "<p id=\"stim\">RELISH</p>", "conditions": [24, 800, "v", 12000], "internal_node_id": "0.0-81.0", "trial": 2, "time_elapsed": 482527, "serialpos": 19, "key_press": -1, "wordID": 1182, "type": "PRES_VIS", "trial_index": 108}, "uniqueid": "MTK1989:3FIJLY1B6VBY1P4MT1XFE38HK97PFQ", "dateTime": 1516643696182}, {"current_trial": 109, "trialdata": {"rt": -1, "trial_type": "single-stim", "word": "bunny", "stimulus": "<p id=\"stim\">BUNNY</p>", "conditions": [24, 800, "v", 12000], "internal_node_id": "0.0-82.0", "trial": 2, "time_elapsed": 484283, "serialpos": 20, "key_press": -1, "wordID": 197, "type": "PRES_VIS", "trial_index": 109}, "uniqueid": "MTK1989:3FIJLY1B6VBY1P4MT1XFE38HK97PFQ", "dateTime": 1516643697938}, {"current_trial": 110, "trialdata": {"rt": -1, "trial_type": "single-stim", "word": "record", "stimulus": "<p id=\"stim\">RECORD</p>", "conditions": [24, 800, "v", 12000], "internal_node_id": "0.0-83.0", "trial": 2, "time_elapsed": 486019, "serialpos": 21, "key_press": -1, "wordID": 1175, "type": "PRES_VIS", "trial_index": 110}, "uniqueid": "MTK1989:3FIJLY1B6VBY1P4MT1XFE38HK97PFQ", "dateTime": 1516643699674}, {"current_trial": 111, "trialdata": {"rt": -1, "trial_type": "single-stim", "word": "pudding", "stimulus": "<p id=\"stim\">PUDDING</p>", "conditions": [24, 800, "v", 12000], "internal_node_id": "0.0-84.0", "trial": 2, "time_elapsed": 487672, "serialpos": 22, "key_press": -1, "wordID": 1138, "type": "PRES_VIS", "trial_index": 111}, "uniqueid": "MTK1989:3FIJLY1B6VBY1P4MT1XFE38HK97PFQ", "dateTime": 1516643701327}, {"current_trial": 112, "trialdata": {"rt": -1, "trial_type": "single-stim", "word": "slug", "stimulus": "<p id=\"stim\">SLUG</p>", "conditions": [24, 800, "v", 12000], "internal_node_id": "0.0-85.0", "trial": 2, "time_elapsed": 489528, "serialpos": 23, "key_press": -1, "wordID": 1328, "type": "PRES_VIS", "trial_index": 112}, "uniqueid": "MTK1989:3FIJLY1B6VBY1P4MT1XFE38HK97PFQ", "dateTime": 1516643703183}, {"current_trial": 113, "trialdata": {"rt": -1, "trial_type": "single-stim", "stimulus": "", "internal_node_id": "0.0-86.0-0.0", "time_elapsed": 491866, "key_press": -1, "type": "PRE_RECALL_DELAY", "trial_index": 113}, "uniqueid": "MTK1989:3FIJLY1B6VBY1P4MT1XFE38HK97PFQ", "dateTime": 1516643705521}, {"current_trial": 114, "trialdata": {"rt": -1000, "trial_type": "single-audio", "stimulus": "/static/audio/400Hz.wav", "internal_node_id": "0.0-87.0", "time_elapsed": 492378, "key_press": -1, "type": "PRE_RECALL_ALERT", "trial_index": 114}, "uniqueid": "MTK1989:3FIJLY1B6VBY1P4MT1XFE38HK97PFQ", "dateTime": 1516643706033}, {"current_trial": 115, "trialdata": {"rt": [4000, 5477, 7126, 8581, 8779, 15026, 18043, 19500, 24516], "recwords": ["slug", "termite", "piston", "missle", "", "salmon", "gravel", "trout", "mission"], "key_times": [3071, 3185, 3465, 3742, 4000, 4450, 4601, 4733, 4874, 5049, 5168, 5314, 5477, 5957, 6158, 6299, 6488, 6726, 6950, 7126, 7677, 7842, 8029, 8198, 8325, 8504, 8581, 8779, 12859, 13059, 13809, 13992, 14368, 14678, 15026, 16677, 16856, 17077, 17375, 17529, 17717, 18043, 18686, 18837, 18984, 19092, 19288, 19500, 22693, 22881, 23013, 23205, 23931, 24118, 24299, 24516], "trial_type": "free-recall", "conditions": [24, 800, "v", 12000], "internal_node_id": "0.0-88.0-0.0", "key_presses": [83, 76, 85, 71, 13, 84, 69, 82, 77, 73, 84, 69, 13, 80, 73, 83, 84, 79, 78, 13, 77, 73, 83, 83, 76, 69, 32, 13, 83, 65, 76, 77, 79, 78, 13, 71, 82, 65, 86, 69, 76, 13, 84, 82, 79, 85, 84, 13, 77, 73, 83, 83, 73, 79, 78, 13], "trial": 2, "time_elapsed": 552395, "type": "FREE_RECALL", "trial_index": 115}, "uniqueid": "MTK1989:3FIJLY1B6VBY1P4MT1XFE38HK97PFQ", "dateTime": 1516643766055}, {"current_trial": 116, "trialdata": {"rt": 4994, "trial_type": "text", "internal_node_id": "0.0-89.0", "time_elapsed": 559395, "key_press": 32, "type": "INSTRUCTIONS", "trial_index": 116}, "uniqueid": "MTK1989:3FIJLY1B6VBY1P4MT1XFE38HK97PFQ", "dateTime": 1516643773050}, {"current_trial": 117, "trialdata": {"rt": [4951, 9321, 16959, 19813], "trial_type": "math-distractor", "key_times": [4439, 4647, 4951, 8896, 9321, 15970, 16128, 16959, 19277, 19465, 19813], "responses": ["18", "1", "22", "12"], "num2": [6, 4, 9, 6, 3], "num3": [9, 6, 8, 3, 3], "conditions": [12, 800, "v", 24000], "internal_node_id": "0.0-90.0", "key_presses": [97, 104, 13, 97, 13, 98, 98, 13, 97, 98, 13], "trial": 3, "time_elapsed": 585401, "type": "DISTRACTOR", "trial_index": 117, "num1": [3, 5, 6, 4, 8]}, "uniqueid": "MTK1989:3FIJLY1B6VBY1P4MT1XFE38HK97PFQ", "dateTime": 1516643799056}, {"current_trial": 118, "trialdata": {"rt": -1, "trial_type": "single-stim", "stimulus": "<p id=\"stim\">10</p>", "internal_node_id": "0.0-91.0-0.0", "time_elapsed": 588403, "key_press": -1, "trial_index": 118}, "uniqueid": "MTK1989:3FIJLY1B6VBY1P4MT1XFE38HK97PFQ", "dateTime": 1516643802058}, {"current_trial": 119, "trialdata": {"rt": -1, "trial_type": "single-stim", "stimulus": "<p id=\"stim\">9</p>", "internal_node_id": "0.0-91.0-1.0", "time_elapsed": 589404, "key_press": -1, "trial_index": 119}, "uniqueid": "MTK1989:3FIJLY1B6VBY1P4MT1XFE38HK97PFQ", "dateTime": 1516643803059}, {"current_trial": 120, "trialdata": {"rt": -1, "trial_type": "single-stim", "stimulus": "<p id=\"stim\">8</p>", "internal_node_id": "0.0-91.0-2.0", "time_elapsed": 590404, "key_press": -1, "trial_index": 120}, "uniqueid": "MTK1989:3FIJLY1B6VBY1P4MT1XFE38HK97PFQ", "dateTime": 1516643804059}, {"current_trial": 121, "trialdata": {"rt": -1, "trial_type": "single-stim", "stimulus": "<p id=\"stim\">7</p>", "internal_node_id": "0.0-91.0-3.0", "time_elapsed": 591405, "key_press": -1, "trial_index": 121}, "uniqueid": "MTK1989:3FIJLY1B6VBY1P4MT1XFE38HK97PFQ", "dateTime": 1516643805060}, {"current_trial": 122, "trialdata": {"rt": -1, "trial_type": "single-stim", "stimulus": "<p id=\"stim\">6</p>", "internal_node_id": "0.0-91.0-4.0", "time_elapsed": 592407, "key_press": -1, "trial_index": 122}, "uniqueid": "MTK1989:3FIJLY1B6VBY1P4MT1XFE38HK97PFQ", "dateTime": 1516643806062}, {"current_trial": 123, "trialdata": {"rt": -1, "trial_type": "single-stim", "stimulus": "<p id=\"stim\">5</p>", "internal_node_id": "0.0-91.0-5.0", "time_elapsed": 593408, "key_press": -1, "trial_index": 123}, "uniqueid": "MTK1989:3FIJLY1B6VBY1P4MT1XFE38HK97PFQ", "dateTime": 1516643807063}, {"current_trial": 124, "trialdata": {"rt": -1, "trial_type": "single-stim", "stimulus": "<p id=\"stim\">4</p>", "internal_node_id": "0.0-91.0-6.0", "time_elapsed": 594408, "key_press": -1, "trial_index": 124}, "uniqueid": "MTK1989:3FIJLY1B6VBY1P4MT1XFE38HK97PFQ", "dateTime": 1516643808064}, {"current_trial": 125, "trialdata": {"rt": -1, "trial_type": "single-stim", "stimulus": "<p id=\"stim\">3</p>", "internal_node_id": "0.0-91.0-7.0", "time_elapsed": 595410, "key_press": -1, "trial_index": 125}, "uniqueid": "MTK1989:3FIJLY1B6VBY1P4MT1XFE38HK97PFQ", "dateTime": 1516643809065}, {"current_trial": 126, "trialdata": {"rt": -1, "trial_type": "single-stim", "stimulus": "<p id=\"stim\">2</p>", "internal_node_id": "0.0-91.0-8.0", "time_elapsed": 596411, "key_press": -1, "trial_index": 126}, "uniqueid": "MTK1989:3FIJLY1B6VBY1P4MT1XFE38HK97PFQ", "dateTime": 1516643810066}, {"current_trial": 127, "trialdata": {"rt": -1, "trial_type": "single-stim", "stimulus": "<p id=\"stim\">1</p>", "internal_node_id": "0.0-91.0-9.0", "time_elapsed": 597412, "key_press": -1, "trial_index": 127}, "uniqueid": "MTK1989:3FIJLY1B6VBY1P4MT1XFE38HK97PFQ", "dateTime": 1516643811068}, {"current_trial": 128, "trialdata": {"rt": -1, "trial_type": "single-stim", "stimulus": "<p id=\"stim\">+</p>", "internal_node_id": "0.0-92.0-0.0", "time_elapsed": 598913, "key_press": -1, "type": "FIXATION", "trial_index": 128}, "uniqueid": "MTK1989:3FIJLY1B6VBY1P4MT1XFE38HK97PFQ", "dateTime": 1516643812568}, {"current_trial": 129, "trialdata": {"rt": -1, "trial_type": "single-stim", "word": "zebra", "stimulus": "<p id=\"stim\">ZEBRA</p>", "conditions": [12, 800, "v", 24000], "internal_node_id": "0.0-93.0", "trial": 3, "time_elapsed": 599715, "serialpos": 0, "key_press": -1, "wordID": 1634, "type": "PRES_VIS", "trial_index": 129}, "uniqueid": "MTK1989:3FIJLY1B6VBY1P4MT1XFE38HK97PFQ", "dateTime": 1516643813370}, {"current_trial": 130, "trialdata": {"rt": -1, "trial_type": "single-stim", "word": "hornet", "stimulus": "<p id=\"stim\">HORNET</p>", "conditions": [12, 800, "v", 24000], "internal_node_id": "0.0-94.0", "trial": 3, "time_elapsed": 601686, "serialpos": 1, "key_press": -1, "wordID": 717, "type": "PRES_VIS", "trial_index": 130}, "uniqueid": "MTK1989:3FIJLY1B6VBY1P4MT1XFE38HK97PFQ", "dateTime": 1516643815341}, {"current_trial": 131, "trialdata": {"rt": -1, "trial_type": "single-stim", "word": "marker", "stimulus": "<p id=\"stim\">MARKER</p>", "conditions": [12, 800, "v", 24000], "internal_node_id": "0.0-95.0", "trial": 3, "time_elapsed": 603588, "serialpos": 2, "key_press": -1, "wordID": 869, "type": "PRES_VIS", "trial_index": 131}, "uniqueid": "MTK1989:3FIJLY1B6VBY1P4MT1XFE38HK97PFQ", "dateTime": 1516643817243}, {"current_trial": 132, "trialdata": {"rt": -1, "trial_type": "single-stim", "word": "shelter", "stimulus": "<p id=\"stim\">SHELTER</p>", "conditions": [12, 800, "v", 24000], "internal_node_id": "0.0-96.0", "trial": 3, "time_elapsed": 605326, "serialpos": 3, "key_press": -1, "wordID": 1281, "type": "PRES_VIS", "trial_index": 132}, "uniqueid": "MTK1989:3FIJLY1B6VBY1P4MT1XFE38HK97PFQ", "dateTime": 1516643818981}, {"current_trial": 133, "trialdata": {"rt": -1, "trial_type": "single-stim", "word": "leopard", "stimulus": "<p id=\"stim\">LEOPARD</p>", "conditions": [12, 800, "v", 24000], "internal_node_id": "0.0-97.0", "trial": 3, "time_elapsed": 607135, "serialpos": 4, "key_press": -1, "wordID": 811, "type": "PRES_VIS", "trial_index": 133}, "uniqueid": "MTK1989:3FIJLY1B6VBY1P4MT1XFE38HK97PFQ", "dateTime": 1516643820790}, {"current_trial": 134, "trialdata": {"rt": -1, "trial_type": "single-stim", "word": "dresser", "stimulus": "<p id=\"stim\">DRESSER</p>", "conditions": [12, 800, "v", 24000], "internal_node_id": "0.0-98.0", "trial": 3, "time_elapsed": 609039, "serialpos": 5, "key_press": -1, "wordID": 495, "type": "PRES_VIS", "trial_index": 134}, "uniqueid": "MTK1989:3FIJLY1B6VBY1P4MT1XFE38HK97PFQ", "dateTime": 1516643822694}, {"current_trial": 135, "trialdata": {"rt": -1, "trial_type": "single-stim", "word": "cupboard", "stimulus": "<p id=\"stim\">CUPBOARD</p>", "conditions": [12, 800, "v", 24000], "internal_node_id": "0.0-99.0", "trial": 3, "time_elapsed": 610717, "serialpos": 6, "key_press": -1, "wordID": 424, "type": "PRES_VIS", "trial_index": 135}, "uniqueid": "MTK1989:3FIJLY1B6VBY1P4MT1XFE38HK97PFQ", "dateTime": 1516643824372}, {"current_trial": 136, "trialdata": {"rt": -1, "trial_type": "single-stim", "word": "leader", "stimulus": "<p id=\"stim\">LEADER</p>", "conditions": [12, 800, "v", 24000], "internal_node_id": "0.0-100.0", "trial": 3, "time_elapsed": 612372, "serialpos": 7, "key_press": -1, "wordID": 806, "type": "PRES_VIS", "trial_index": 136}, "uniqueid": "MTK1989:3FIJLY1B6VBY1P4MT1XFE38HK97PFQ", "dateTime": 1516643826027}, {"current_trial": 137, "trialdata": {"rt": -1, "trial_type": "single-stim", "word": "clam", "stimulus": "<p id=\"stim\">CLAM</p>", "conditions": [12, 800, "v", 24000], "internal_node_id": "0.0-101.0", "trial": 3, "time_elapsed": 614301, "serialpos": 8, "key_press": -1, "wordID": 314, "type": "PRES_VIS", "trial_index": 137}, "uniqueid": "MTK1989:3FIJLY1B6VBY1P4MT1XFE38HK97PFQ", "dateTime": 1516643827956}, {"current_trial": 138, "trialdata": {"rt": -1, "trial_type": "single-stim", "word": "river", "stimulus": "<p id=\"stim\">RIVER</p>", "conditions": [12, 800, "v", 24000], "internal_node_id": "0.0-102.0", "trial": 3, "time_elapsed": 616128, "serialpos": 9, "key_press": -1, "wordID": 1193, "type": "PRES_VIS", "trial_index": 138}, "uniqueid": "MTK1989:3FIJLY1B6VBY1P4MT1XFE38HK97PFQ", "dateTime": 1516643829783}, {"current_trial": 139, "trialdata": {"rt": -1, "trial_type": "single-stim", "word": "pigment", "stimulus": "<p id=\"stim\">PIGMENT</p>", "conditions": [12, 800, "v", 24000], "internal_node_id": "0.0-103.0", "trial": 3, "time_elapsed": 617856, "serialpos": 10, "key_press": -1, "wordID": 1065, "type": "PRES_VIS", "trial_index": 139}, "uniqueid": "MTK1989:3FIJLY1B6VBY1P4MT1XFE38HK97PFQ", "dateTime": 1516643831511}, {"current_trial": 140, "trialdata": {"rt": -1, "trial_type": "single-stim", "word": "girl", "stimulus": "<p id=\"stim\">GIRL</p>", "conditions": [12, 800, "v", 24000], "internal_node_id": "0.0-104.0", "trial": 3, "time_elapsed": 619466, "serialpos": 11, "key_press": -1, "wordID": 636, "type": "PRES_VIS", "trial_index": 140}, "uniqueid": "MTK1989:3FIJLY1B6VBY1P4MT1XFE38HK97PFQ", "dateTime": 1516643833121}, {"current_trial": 141, "trialdata": {"rt": -1, "trial_type": "single-stim", "stimulus": "", "internal_node_id": "0.0-105.0-0.0", "time_elapsed": 621665, "key_press": -1, "type": "PRE_RECALL_DELAY", "trial_index": 141}, "uniqueid": "MTK1989:3FIJLY1B6VBY1P4MT1XFE38HK97PFQ", "dateTime": 1516643835320}, {"current_trial": 142, "trialdata": {"rt": -1000, "trial_type": "single-audio", "stimulus": "/static/audio/400Hz.wav", "internal_node_id": "0.0-106.0", "time_elapsed": 622171, "key_press": -1, "type": "PRE_RECALL_ALERT", "trial_index": 142}, "uniqueid": "MTK1989:3FIJLY1B6VBY1P4MT1XFE38HK97PFQ", "dateTime": 1516643835826}, {"current_trial": 143, "trialdata": {"rt": [3096, 5737, 7275, 8118, 8283, 10242, 10420], "recwords": ["girl", "pigment", "river", "clam", "", "pigment", ""], "key_times": [2570, 2571, 2582, 2699, 3096, 3528, 3778, 3979, 4359, 5160, 5349, 5495, 5737, 6274, 6475, 6835, 7065, 7210, 7275, 7567, 7682, 7854, 8002, 8118, 8283, 8796, 8978, 9320, 9525, 9686, 9905, 10054, 10242, 10420], "trial_type": "free-recall", "conditions": [12, 800, "v", 24000], "internal_node_id": "0.0-107.0-0.0", "key_presses": [71, 73, 82, 76, 13, 80, 73, 71, 77, 69, 78, 84, 13, 82, 73, 86, 69, 82, 32, 67, 76, 65, 77, 32, 13, 80, 73, 71, 77, 69, 78, 84, 32, 13], "trial": 3, "time_elapsed": 682173, "type": "FREE_RECALL", "trial_index": 143}, "uniqueid": "MTK1989:3FIJLY1B6VBY1P4MT1XFE38HK97PFQ", "dateTime": 1516643895836}, {"current_trial": 144, "trialdata": {"rt": 11228, "trial_type": "text", "internal_node_id": "0.0-108.0", "time_elapsed": 695410, "key_press": 32, "type": "INSTRUCTIONS", "trial_index": 144}, "uniqueid": "MTK1989:3FIJLY1B6VBY1P4MT1XFE38HK97PFQ", "dateTime": 1516643909065}, {"current_trial": 145, "trialdata": {"rt": [2680, 4595, 6857, 10091, 12032, 15700, 18208, 21584], "trial_type": "math-distractor", "key_times": [2293, 2387, 2680, 4271, 4376, 4595, 6527, 6654, 6857, 9716, 9887, 10091, 11727, 11864, 12032, 15379, 15507, 15700, 17871, 17968, 18208, 21203, 21328, 21584], "responses": ["18", "15", "12", "17", "11", "18", "13", "13"], "num2": [3, 4, 5, 9, 4, 3, 7, 1, 5], "num3": [9, 1, 1, 3, 1, 8, 3, 7, 2], "conditions": [12, 1600, "v", 24000], "internal_node_id": "0.0-109.0", "key_presses": [97, 104, 13, 97, 101, 13, 97, 98, 13, 97, 103, 13, 97, 97, 13, 97, 104, 13, 97, 99, 13, 97, 99, 13], "trial": 4, "time_elapsed": 721414, "type": "DISTRACTOR", "trial_index": 145, "num1": [6, 9, 6, 5, 6, 7, 3, 5, 1]}, "uniqueid": "MTK1989:3FIJLY1B6VBY1P4MT1XFE38HK97PFQ", "dateTime": 1516643935069}, {"current_trial": 146, "trialdata": {"rt": -1, "trial_type": "single-stim", "stimulus": "<p id=\"stim\">10</p>", "internal_node_id": "0.0-110.0-0.0", "time_elapsed": 724417, "key_press": -1, "trial_index": 146}, "uniqueid": "MTK1989:3FIJLY1B6VBY1P4MT1XFE38HK97PFQ", "dateTime": 1516643938072}, {"current_trial": 147, "trialdata": {"rt": -1, "trial_type": "single-stim", "stimulus": "<p id=\"stim\">9</p>", "internal_node_id": "0.0-110.0-1.0", "time_elapsed": 725418, "key_press": -1, "trial_index": 147}, "uniqueid": "MTK1989:3FIJLY1B6VBY1P4MT1XFE38HK97PFQ", "dateTime": 1516643939073}, {"current_trial": 148, "trialdata": {"rt": -1, "trial_type": "single-stim", "stimulus": "<p id=\"stim\">8</p>", "internal_node_id": "0.0-110.0-2.0", "time_elapsed": 726419, "key_press": -1, "trial_index": 148}, "uniqueid": "MTK1989:3FIJLY1B6VBY1P4MT1XFE38HK97PFQ", "dateTime": 1516643940075}, {"current_trial": 149, "trialdata": {"rt": -1, "trial_type": "single-stim", "stimulus": "<p id=\"stim\">7</p>", "internal_node_id": "0.0-110.0-3.0", "time_elapsed": 727422, "key_press": -1, "trial_index": 149}, "uniqueid": "MTK1989:3FIJLY1B6VBY1P4MT1XFE38HK97PFQ", "dateTime": 1516643941077}, {"current_trial": 150, "trialdata": {"rt": -1, "trial_type": "single-stim", "stimulus": "<p id=\"stim\">6</p>", "internal_node_id": "0.0-110.0-4.0", "time_elapsed": 728423, "key_press": -1, "trial_index": 150}, "uniqueid": "MTK1989:3FIJLY1B6VBY1P4MT1XFE38HK97PFQ", "dateTime": 1516643942078}, {"current_trial": 151, "trialdata": {"rt": -1, "trial_type": "single-stim", "stimulus": "<p id=\"stim\">5</p>", "internal_node_id": "0.0-110.0-5.0", "time_elapsed": 729424, "key_press": -1, "trial_index": 151}, "uniqueid": "MTK1989:3FIJLY1B6VBY1P4MT1XFE38HK97PFQ", "dateTime": 1516643943079}, {"current_trial": 152, "trialdata": {"rt": -1, "trial_type": "single-stim", "stimulus": "<p id=\"stim\">4</p>", "internal_node_id": "0.0-110.0-6.0", "time_elapsed": 730425, "key_press": -1, "trial_index": 152}, "uniqueid": "MTK1989:3FIJLY1B6VBY1P4MT1XFE38HK97PFQ", "dateTime": 1516643944080}, {"current_trial": 153, "trialdata": {"rt": -1, "trial_type": "single-stim", "stimulus": "<p id=\"stim\">3</p>", "internal_node_id": "0.0-110.0-7.0", "time_elapsed": 731426, "key_press": -1, "trial_index": 153}, "uniqueid": "MTK1989:3FIJLY1B6VBY1P4MT1XFE38HK97PFQ", "dateTime": 1516643945081}, {"current_trial": 154, "trialdata": {"rt": -1, "trial_type": "single-stim", "stimulus": "<p id=\"stim\">2</p>", "internal_node_id": "0.0-110.0-8.0", "time_elapsed": 732427, "key_press": -1, "trial_index": 154}, "uniqueid": "MTK1989:3FIJLY1B6VBY1P4MT1XFE38HK97PFQ", "dateTime": 1516643946082}, {"current_trial": 155, "trialdata": {"rt": -1, "trial_type": "single-stim", "stimulus": "<p id=\"stim\">1</p>", "internal_node_id": "0.0-110.0-9.0", "time_elapsed": 733429, "key_press": -1, "trial_index": 155}, "uniqueid": "MTK1989:3FIJLY1B6VBY1P4MT1XFE38HK97PFQ", "dateTime": 1516643947084}, {"current_trial": 156, "trialdata": {"rt": -1, "trial_type": "single-stim", "stimulus": "<p id=\"stim\">+</p>", "internal_node_id": "0.0-111.0-0.0", "time_elapsed": 734930, "key_press": -1, "type": "FIXATION", "trial_index": 156}, "uniqueid": "MTK1989:3FIJLY1B6VBY1P4MT1XFE38HK97PFQ", "dateTime": 1516643948585}, {"current_trial": 157, "trialdata": {"rt": -1, "trial_type": "single-stim", "word": "worker", "stimulus": "<p id=\"stim\">WORKER</p>", "conditions": [12, 1600, "v", 24000], "internal_node_id": "0.0-112.0", "trial": 4, "time_elapsed": 736531, "serialpos": 0, "key_press": -1, "wordID": 1620, "type": "PRES_VIS", "trial_index": 157}, "uniqueid": "MTK1989:3FIJLY1B6VBY1P4MT1XFE38HK97PFQ", "dateTime": 1516643950186}, {"current_trial": 158, "trialdata": {"rt": -1, "trial_type": "single-stim", "word": "chemist", "stimulus": "<p id=\"stim\">CHEMIST</p>", "conditions": [12, 1600, "v", 24000], "internal_node_id": "0.0-113.0", "trial": 4, "time_elapsed": 739125, "serialpos": 1, "key_press": -1, "wordID": 291, "type": "PRES_VIS", "trial_index": 158}, "uniqueid": "MTK1989:3FIJLY1B6VBY1P4MT1XFE38HK97PFQ", "dateTime": 1516643952781}, {"current_trial": 159, "trialdata": {"rt": -1, "trial_type": "single-stim", "word": "cashier", "stimulus": "<p id=\"stim\">CASHIER</p>", "conditions": [12, 1600, "v", 24000], "internal_node_id": "0.0-114.0", "trial": 4, "time_elapsed": 741752, "serialpos": 2, "key_press": -1, "wordID": 253, "type": "PRES_VIS", "trial_index": 159}, "uniqueid": "MTK1989:3FIJLY1B6VBY1P4MT1XFE38HK97PFQ", "dateTime": 1516643955407}, {"current_trial": 160, "trialdata": {"rt": -1, "trial_type": "single-stim", "word": "citrus", "stimulus": "<p id=\"stim\">CITRUS</p>", "conditions": [12, 1600, "v", 24000], "internal_node_id": "0.0-115.0", "trial": 4, "time_elapsed": 744273, "serialpos": 3, "key_press": -1, "wordID": 312, "type": "PRES_VIS", "trial_index": 160}, "uniqueid": "MTK1989:3FIJLY1B6VBY1P4MT1XFE38HK97PFQ", "dateTime": 1516643957928}, {"current_trial": 161, "trialdata": {"rt": -1, "trial_type": "single-stim", "word": "tourist", "stimulus": "<p id=\"stim\">TOURIST</p>", "conditions": [12, 1600, "v", 24000], "internal_node_id": "0.0-116.0", "trial": 4, "time_elapsed": 747047, "serialpos": 4, "key_press": -1, "wordID": 1487, "type": "PRES_VIS", "trial_index": 161}, "uniqueid": "MTK1989:3FIJLY1B6VBY1P4MT1XFE38HK97PFQ", "dateTime": 1516643960702}, {"current_trial": 162, "trialdata": {"rt": -1, "trial_type": "single-stim", "word": "actor", "stimulus": "<p id=\"stim\">ACTOR</p>", "conditions": [12, 1600, "v", 24000], "internal_node_id": "0.0-117.0", "trial": 4, "time_elapsed": 749459, "serialpos": 5, "key_press": -1, "wordID": 4, "type": "PRES_VIS", "trial_index": 162}, "uniqueid": "MTK1989:3FIJLY1B6VBY1P4MT1XFE38HK97PFQ", "dateTime": 1516643963114}, {"current_trial": 163, "trialdata": {"rt": -1, "trial_type": "single-stim", "word": "actress", "stimulus": "<p id=\"stim\">ACTRESS</p>", "conditions": [12, 1600, "v", 24000], "internal_node_id": "0.0-118.0", "trial": 4, "time_elapsed": 751885, "serialpos": 6, "key_press": -1, "wordID": 5, "type": "PRES_VIS", "trial_index": 163}, "uniqueid": "MTK1989:3FIJLY1B6VBY1P4MT1XFE38HK97PFQ", "dateTime": 1516643965540}, {"current_trial": 164, "trialdata": {"rt": -1, "trial_type": "single-stim", "word": "eyelash", "stimulus": "<p id=\"stim\">EYELASH</p>", "conditions": [12, 1600, "v", 24000], "internal_node_id": "0.0-119.0", "trial": 4, "time_elapsed": 754664, "serialpos": 7, "key_press": -1, "wordID": 545, "type": "PRES_VIS", "trial_index": 164}, "uniqueid": "MTK1989:3FIJLY1B6VBY1P4MT1XFE38HK97PFQ", "dateTime": 1516643968319}, {"current_trial": 165, "trialdata": {"rt": -1, "trial_type": "single-stim", "word": "airplane", "stimulus": "<p id=\"stim\">AIRPLANE</p>", "conditions": [12, 1600, "v", 24000], "internal_node_id": "0.0-120.0", "trial": 4, "time_elapsed": 757241, "serialpos": 8, "key_press": -1, "wordID": 11, "type": "PRES_VIS", "trial_index": 165}, "uniqueid": "MTK1989:3FIJLY1B6VBY1P4MT1XFE38HK97PFQ", "dateTime": 1516643970896}, {"current_trial": 166, "trialdata": {"rt": -1, "trial_type": "single-stim", "word": "virus", "stimulus": "<p id=\"stim\">VIRUS</p>", "conditions": [12, 1600, "v", 24000], "internal_node_id": "0.0-121.0", "trial": 4, "time_elapsed": 759788, "serialpos": 9, "key_press": -1, "wordID": 1571, "type": "PRES_VIS", "trial_index": 166}, "uniqueid": "MTK1989:3FIJLY1B6VBY1P4MT1XFE38HK97PFQ", "dateTime": 1516643973443}, {"current_trial": 167, "trialdata": {"rt": -1, "trial_type": "single-stim", "word": "blouse", "stimulus": "<p id=\"stim\">BLOUSE</p>", "conditions": [12, 1600, "v", 24000], "internal_node_id": "0.0-122.0", "trial": 4, "time_elapsed": 762266, "serialpos": 10, "key_press": -1, "wordID": 138, "type": "PRES_VIS", "trial_index": 167}, "uniqueid": "MTK1989:3FIJLY1B6VBY1P4MT1XFE38HK97PFQ", "dateTime": 1516643975922}, {"current_trial": 168, "trialdata": {"rt": -1, "trial_type": "single-stim", "word": "peach", "stimulus": "<p id=\"stim\">PEACH</p>", "conditions": [12, 1600, "v", 24000], "internal_node_id": "0.0-123.0", "trial": 4, "time_elapsed": 765031, "serialpos": 11, "key_press": -1, "wordID": 1030, "type": "PRES_VIS", "trial_index": 168}, "uniqueid": "MTK1989:3FIJLY1B6VBY1P4MT1XFE38HK97PFQ", "dateTime": 1516643978686}, {"current_trial": 169, "trialdata": {"rt": -1, "trial_type": "single-stim", "stimulus": "", "internal_node_id": "0.0-124.0-0.0", "time_elapsed": 767334, "key_press": -1, "type": "PRE_RECALL_DELAY", "trial_index": 169}, "uniqueid": "MTK1989:3FIJLY1B6VBY1P4MT1XFE38HK97PFQ", "dateTime": 1516643980990}, {"current_trial": 170, "trialdata": {"rt": -1000, "trial_type": "single-audio", "stimulus": "/static/audio/400Hz.wav", "internal_node_id": "0.0-125.0", "time_elapsed": 767845, "key_press": -1, "type": "PRE_RECALL_ALERT", "trial_index": 170}, "uniqueid": "MTK1989:3FIJLY1B6VBY1P4MT1XFE38HK97PFQ", "dateTime": 1516643981500}, {"current_trial": 171, "trialdata": {"rt": [2982, 4695, 7979, 9969, 11409], "recwords": ["worker", "cashier", "chemist", "citrus", "peach"], "key_times": [1963, 2114, 2267, 2512, 2652, 2749, 2982, 3567, 3672, 3933, 4117, 4308, 4427, 4527, 4695, 5139, 5299, 5391, 5509, 5711, 5891, 7157, 7465, 7742, 7979, 8942, 9145, 9328, 9545, 9676, 9839, 9969, 10219, 10409, 10614, 10965, 11139, 11409], "trial_type": "free-recall", "conditions": [12, 1600, "v", 24000], "internal_node_id": "0.0-126.0-0.0", "key_presses": [87, 79, 82, 75, 69, 82, 13, 67, 65, 83, 72, 73, 69, 82, 13, 67, 72, 69, 77, 73, 67, 8, 83, 84, 32, 67, 73, 84, 82, 85, 83, 32, 80, 69, 65, 67, 72, 13], "trial": 4, "time_elapsed": 827848, "type": "FREE_RECALL", "trial_index": 171}, "uniqueid": "MTK1989:3FIJLY1B6VBY1P4MT1XFE38HK97PFQ", "dateTime": 1516644041519}, {"current_trial": 172, "trialdata": {"rt": 4464, "trial_type": "text", "internal_node_id": "0.0-127.0", "time_elapsed": 834330, "key_press": 32, "type": "INSTRUCTIONS", "trial_index": 172}, "uniqueid": "MTK1989:3FIJLY1B6VBY1P4MT1XFE38HK97PFQ", "dateTime": 1516644047985}, {"current_trial": 173, "trialdata": {"rt": [3968, 6157, 11858], "trial_type": "math-distractor", "key_times": [3602, 3656, 3968, 5906, 6157, 11399, 11616, 11858], "responses": ["20", "9", "17"], "num2": [5, 1, 5, 9], "num3": [7, 7, 9, 8], "conditions": [24, 800, "v", 12000], "internal_node_id": "0.0-128.0", "key_presses": [98, 96, 13, 105, 13, 97, 103, 13], "trial": 5, "time_elapsed": 848334, "type": "DISTRACTOR", "trial_index": 173, "num1": [7, 1, 8, 1]}, "uniqueid": "MTK1989:3FIJLY1B6VBY1P4MT1XFE38HK97PFQ", "dateTime": 1516644061989}, {"current_trial": 174, "trialdata": {"rt": -1, "trial_type": "single-stim", "stimulus": "<p id=\"stim\">10</p>", "internal_node_id": "0.0-129.0-0.0", "time_elapsed": 851335, "key_press": -1, "trial_index": 174}, "uniqueid": "MTK1989:3FIJLY1B6VBY1P4MT1XFE38HK97PFQ", "dateTime": 1516644064990}, {"current_trial": 175, "trialdata": {"rt": -1, "trial_type": "single-stim", "stimulus": "<p id=\"stim\">9</p>", "internal_node_id": "0.0-129.0-1.0", "time_elapsed": 852336, "key_press": -1, "trial_index": 175}, "uniqueid": "MTK1989:3FIJLY1B6VBY1P4MT1XFE38HK97PFQ", "dateTime": 1516644065991}, {"current_trial": 176, "trialdata": {"rt": -1, "trial_type": "single-stim", "stimulus": "<p id=\"stim\">8</p>", "internal_node_id": "0.0-129.0-2.0", "time_elapsed": 853337, "key_press": -1, "trial_index": 176}, "uniqueid": "MTK1989:3FIJLY1B6VBY1P4MT1XFE38HK97PFQ", "dateTime": 1516644066992}, {"current_trial": 177, "trialdata": {"rt": -1, "trial_type": "single-stim", "stimulus": "<p id=\"stim\">7</p>", "internal_node_id": "0.0-129.0-3.0", "time_elapsed": 854338, "key_press": -1, "trial_index": 177}, "uniqueid": "MTK1989:3FIJLY1B6VBY1P4MT1XFE38HK97PFQ", "dateTime": 1516644067993}, {"current_trial": 178, "trialdata": {"rt": -1, "trial_type": "single-stim", "stimulus": "<p id=\"stim\">6</p>", "internal_node_id": "0.0-129.0-4.0", "time_elapsed": 855340, "key_press": -1, "trial_index": 178}, "uniqueid": "MTK1989:3FIJLY1B6VBY1P4MT1XFE38HK97PFQ", "dateTime": 1516644068995}, {"current_trial": 179, "trialdata": {"rt": -1, "trial_type": "single-stim", "stimulus": "<p id=\"stim\">5</p>", "internal_node_id": "0.0-129.0-5.0", "time_elapsed": 856342, "key_press": -1, "trial_index": 179}, "uniqueid": "MTK1989:3FIJLY1B6VBY1P4MT1XFE38HK97PFQ", "dateTime": 1516644069997}, {"current_trial": 180, "trialdata": {"rt": -1, "trial_type": "single-stim", "stimulus": "<p id=\"stim\">4</p>", "internal_node_id": "0.0-129.0-6.0", "time_elapsed": 857343, "key_press": -1, "trial_index": 180}, "uniqueid": "MTK1989:3FIJLY1B6VBY1P4MT1XFE38HK97PFQ", "dateTime": 1516644070998}, {"current_trial": 181, "trialdata": {"rt": -1, "trial_type": "single-stim", "stimulus": "<p id=\"stim\">3</p>", "internal_node_id": "0.0-129.0-7.0", "time_elapsed": 858344, "key_press": -1, "trial_index": 181}, "uniqueid": "MTK1989:3FIJLY1B6VBY1P4MT1XFE38HK97PFQ", "dateTime": 1516644071999}, {"current_trial": 182, "trialdata": {"rt": -1, "trial_type": "single-stim", "stimulus": "<p id=\"stim\">2</p>", "internal_node_id": "0.0-129.0-8.0", "time_elapsed": 859345, "key_press": -1, "trial_index": 182}, "uniqueid": "MTK1989:3FIJLY1B6VBY1P4MT1XFE38HK97PFQ", "dateTime": 1516644073000}, {"current_trial": 183, "trialdata": {"rt": -1, "trial_type": "single-stim", "stimulus": "<p id=\"stim\">1</p>", "internal_node_id": "0.0-129.0-9.0", "time_elapsed": 860346, "key_press": -1, "trial_index": 183}, "uniqueid": "MTK1989:3FIJLY1B6VBY1P4MT1XFE38HK97PFQ", "dateTime": 1516644074001}, {"current_trial": 184, "trialdata": {"rt": -1, "trial_type": "single-stim", "stimulus": "<p id=\"stim\">+</p>", "internal_node_id": "0.0-130.0-0.0", "time_elapsed": 861847, "key_press": -1, "type": "FIXATION", "trial_index": 184}, "uniqueid": "MTK1989:3FIJLY1B6VBY1P4MT1XFE38HK97PFQ", "dateTime": 1516644075502}, {"current_trial": 185, "trialdata": {"rt": -1, "trial_type": "single-stim", "word": "glove", "stimulus": "<p id=\"stim\">GLOVE</p>", "conditions": [24, 800, "v", 12000], "internal_node_id": "0.0-131.0", "trial": 5, "time_elapsed": 862648, "serialpos": 0, "key_press": -1, "wordID": 641, "type": "PRES_VIS", "trial_index": 185}, "uniqueid": "MTK1989:3FIJLY1B6VBY1P4MT1XFE38HK97PFQ", "dateTime": 1516644076303}, {"current_trial": 186, "trialdata": {"rt": -1, "trial_type": "single-stim", "word": "patient", "stimulus": "<p id=\"stim\">PATIENT</p>", "conditions": [24, 800, "v", 12000], "internal_node_id": "0.0-132.0", "trial": 5, "time_elapsed": 864319, "serialpos": 1, "key_press": -1, "wordID": 1023, "type": "PRES_VIS", "trial_index": 186}, "uniqueid": "MTK1989:3FIJLY1B6VBY1P4MT1XFE38HK97PFQ", "dateTime": 1516644077974}, {"current_trial": 187, "trialdata": {"rt": -1, "trial_type": "single-stim", "word": "tutu", "stimulus": "<p id=\"stim\">TUTU</p>", "conditions": [24, 800, "v", 12000], "internal_node_id": "0.0-133.0", "trial": 5, "time_elapsed": 866287, "serialpos": 2, "key_press": -1, "wordID": 1523, "type": "PRES_VIS", "trial_index": 187}, "uniqueid": "MTK1989:3FIJLY1B6VBY1P4MT1XFE38HK97PFQ", "dateTime": 1516644079942}, {"current_trial": 188, "trialdata": {"rt": -1, "trial_type": "single-stim", "word": "brandy", "stimulus": "<p id=\"stim\">BRANDY</p>", "conditions": [24, 800, "v", 12000], "internal_node_id": "0.0-134.0", "trial": 5, "time_elapsed": 867890, "serialpos": 3, "key_press": -1, "wordID": 168, "type": "PRES_VIS", "trial_index": 188}, "uniqueid": "MTK1989:3FIJLY1B6VBY1P4MT1XFE38HK97PFQ", "dateTime": 1516644081545}, {"current_trial": 189, "trialdata": {"rt": -1, "trial_type": "single-stim", "word": "driver", "stimulus": "<p id=\"stim\">DRIVER</p>", "conditions": [24, 800, "v", 12000], "internal_node_id": "0.0-135.0", "trial": 5, "time_elapsed": 869512, "serialpos": 4, "key_press": -1, "wordID": 498, "type": "PRES_VIS", "trial_index": 189}, "uniqueid": "MTK1989:3FIJLY1B6VBY1P4MT1XFE38HK97PFQ", "dateTime": 1516644083167}, {"current_trial": 190, "trialdata": {"rt": -1, "trial_type": "single-stim", "word": "canal", "stimulus": "<p id=\"stim\">CANAL</p>", "conditions": [24, 800, "v", 12000], "internal_node_id": "0.0-136.0", "trial": 5, "time_elapsed": 871145, "serialpos": 5, "key_press": -1, "wordID": 225, "type": "PRES_VIS", "trial_index": 190}, "uniqueid": "MTK1989:3FIJLY1B6VBY1P4MT1XFE38HK97PFQ", "dateTime": 1516644084800}, {"current_trial": 191, "trialdata": {"rt": -1, "trial_type": "single-stim", "word": "carriage", "stimulus": "<p id=\"stim\">CARRIAGE</p>", "conditions": [24, 800, "v", 12000], "internal_node_id": "0.0-137.0", "trial": 5, "time_elapsed": 873014, "serialpos": 6, "key_press": -1, "wordID": 247, "type": "PRES_VIS", "trial_index": 191}, "uniqueid": "MTK1989:3FIJLY1B6VBY1P4MT1XFE38HK97PFQ", "dateTime": 1516644086669}, {"current_trial": 192, "trialdata": {"rt": -1, "trial_type": "single-stim", "word": "onion", "stimulus": "<p id=\"stim\">ONION</p>", "conditions": [24, 800, "v", 12000], "internal_node_id": "0.0-138.0", "trial": 5, "time_elapsed": 874629, "serialpos": 7, "key_press": -1, "wordID": 976, "type": "PRES_VIS", "trial_index": 192}, "uniqueid": "MTK1989:3FIJLY1B6VBY1P4MT1XFE38HK97PFQ", "dateTime": 1516644088284}, {"current_trial": 193, "trialdata": {"rt": -1, "trial_type": "single-stim", "word": "apple", "stimulus": "<p id=\"stim\">APPLE</p>", "conditions": [24, 800, "v", 12000], "internal_node_id": "0.0-139.0", "trial": 5, "time_elapsed": 876450, "serialpos": 8, "key_press": -1, "wordID": 32, "type": "PRES_VIS", "trial_index": 193}, "uniqueid": "MTK1989:3FIJLY1B6VBY1P4MT1XFE38HK97PFQ", "dateTime": 1516644090105}, {"current_trial": 194, "trialdata": {"rt": -1, "trial_type": "single-stim", "word": "world", "stimulus": "<p id=\"stim\">WORLD</p>", "conditions": [24, 800, "v", 12000], "internal_node_id": "0.0-140.0", "trial": 5, "time_elapsed": 878317, "serialpos": 9, "key_press": -1, "wordID": 1621, "type": "PRES_VIS", "trial_index": 194}, "uniqueid": "MTK1989:3FIJLY1B6VBY1P4MT1XFE38HK97PFQ", "dateTime": 1516644091972}, {"current_trial": 195, "trialdata": {"rt": -1, "trial_type": "single-stim", "word": "waitress", "stimulus": "<p id=\"stim\">WAITRESS</p>", "conditions": [24, 800, "v", 12000], "internal_node_id": "0.0-141.0", "trial": 5, "time_elapsed": 880110, "serialpos": 10, "key_press": -1, "wordID": 1580, "type": "PRES_VIS", "trial_index": 195}, "uniqueid": "MTK1989:3FIJLY1B6VBY1P4MT1XFE38HK97PFQ", "dateTime": 1516644093765}, {"current_trial": 196, "trialdata": {"rt": -1, "trial_type": "single-stim", "word": "nightgown", "stimulus": "<p id=\"stim\">NIGHTGOWN</p>", "conditions": [24, 800, "v", 12000], "internal_node_id": "0.0-142.0", "trial": 5, "time_elapsed": 882020, "serialpos": 11, "key_press": -1, "wordID": 952, "type": "PRES_VIS", "trial_index": 196}, "uniqueid": "MTK1989:3FIJLY1B6VBY1P4MT1XFE38HK97PFQ", "dateTime": 1516644095675}, {"current_trial": 197, "trialdata": {"rt": -1, "trial_type": "single-stim", "word": "wasp", "stimulus": "<p id=\"stim\">WASP</p>", "conditions": [24, 800, "v", 12000], "internal_node_id": "0.0-143.0", "trial": 5, "time_elapsed": 883921, "serialpos": 12, "key_press": -1, "wordID": 1592, "type": "PRES_VIS", "trial_index": 197}, "uniqueid": "MTK1989:3FIJLY1B6VBY1P4MT1XFE38HK97PFQ", "dateTime": 1516644097576}, {"current_trial": 198, "trialdata": {"rt": -1, "trial_type": "single-stim", "word": "butcher", "stimulus": "<p id=\"stim\">BUTCHER</p>", "conditions": [24, 800, "v", 12000], "internal_node_id": "0.0-144.0", "trial": 5, "time_elapsed": 885782, "serialpos": 13, "key_press": -1, "wordID": 202, "type": "PRES_VIS", "trial_index": 198}, "uniqueid": "MTK1989:3FIJLY1B6VBY1P4MT1XFE38HK97PFQ", "dateTime": 1516644099437}, {"current_trial": 199, "trialdata": {"rt": -1, "trial_type": "single-stim", "word": "bug", "stimulus": "<p id=\"stim\">BUG</p>", "conditions": [24, 800, "v", 12000], "internal_node_id": "0.0-145.0", "trial": 5, "time_elapsed": 887640, "serialpos": 14, "key_press": -1, "wordID": 186, "type": "PRES_VIS", "trial_index": 199}, "uniqueid": "MTK1989:3FIJLY1B6VBY1P4MT1XFE38HK97PFQ", "dateTime": 1516644101295}, {"current_trial": 200, "trialdata": {"rt": -1, "trial_type": "single-stim", "word": "creature", "stimulus": "<p id=\"stim\">CREATURE</p>", "conditions": [24, 800, "v", 12000], "internal_node_id": "0.0-146.0", "trial": 5, "time_elapsed": 889360, "serialpos": 15, "key_press": -1, "wordID": 402, "type": "PRES_VIS", "trial_index": 200}, "uniqueid": "MTK1989:3FIJLY1B6VBY1P4MT1XFE38HK97PFQ", "dateTime": 1516644103017}, {"current_trial": 201, "trialdata": {"rt": -1, "trial_type": "single-stim", "word": "sunrise", "stimulus": "<p id=\"stim\">SUNRISE</p>", "conditions": [24, 800, "v", 12000], "internal_node_id": "0.0-147.0", "trial": 5, "time_elapsed": 891146, "serialpos": 16, "key_press": -1, "wordID": 1406, "type": "PRES_VIS", "trial_index": 201}, "uniqueid": "MTK1989:3FIJLY1B6VBY1P4MT1XFE38HK97PFQ", "dateTime": 1516644104801}, {"current_trial": 202, "trialdata": {"rt": -1, "trial_type": "single-stim", "word": "popcorn", "stimulus": "<p id=\"stim\">POPCORN</p>", "conditions": [24, 800, "v", 12000], "internal_node_id": "0.0-148.0", "trial": 5, "time_elapsed": 893087, "serialpos": 17, "key_press": -1, "wordID": 1103, "type": "PRES_VIS", "trial_index": 202}, "uniqueid": "MTK1989:3FIJLY1B6VBY1P4MT1XFE38HK97PFQ", "dateTime": 1516644106742}, {"current_trial": 203, "trialdata": {"rt": -1, "trial_type": "single-stim", "word": "soda", "stimulus": "<p id=\"stim\">SODA</p>", "conditions": [24, 800, "v", 12000], "internal_node_id": "0.0-149.0", "trial": 5, "time_elapsed": 895003, "serialpos": 18, "key_press": -1, "wordID": 1340, "type": "PRES_VIS", "trial_index": 203}, "uniqueid": "MTK1989:3FIJLY1B6VBY1P4MT1XFE38HK97PFQ", "dateTime": 1516644108658}, {"current_trial": 204, "trialdata": {"rt": -1, "trial_type": "single-stim", "word": "valley", "stimulus": "<p id=\"stim\">VALLEY</p>", "conditions": [24, 800, "v", 12000], "internal_node_id": "0.0-150.0", "trial": 5, "time_elapsed": 897003, "serialpos": 19, "key_press": -1, "wordID": 1544, "type": "PRES_VIS", "trial_index": 204}, "uniqueid": "MTK1989:3FIJLY1B6VBY1P4MT1XFE38HK97PFQ", "dateTime": 1516644110658}, {"current_trial": 205, "trialdata": {"rt": -1, "trial_type": "single-stim", "word": "robin", "stimulus": "<p id=\"stim\">ROBIN</p>", "conditions": [24, 800, "v", 12000], "internal_node_id": "0.0-151.0", "trial": 5, "time_elapsed": 898909, "serialpos": 20, "key_press": -1, "wordID": 1198, "type": "PRES_VIS", "trial_index": 205}, "uniqueid": "MTK1989:3FIJLY1B6VBY1P4MT1XFE38HK97PFQ", "dateTime": 1516644112564}, {"current_trial": 206, "trialdata": {"rt": -1, "trial_type": "single-stim", "word": "convict", "stimulus": "<p id=\"stim\">CONVICT</p>", "conditions": [24, 800, "v", 12000], "internal_node_id": "0.0-152.0", "trial": 5, "time_elapsed": 900768, "serialpos": 21, "key_press": -1, "wordID": 370, "type": "PRES_VIS", "trial_index": 206}, "uniqueid": "MTK1989:3FIJLY1B6VBY1P4MT1XFE38HK97PFQ", "dateTime": 1516644114423}, {"current_trial": 207, "trialdata": {"rt": -1, "trial_type": "single-stim", "word": "maple", "stimulus": "<p id=\"stim\">MAPLE</p>", "conditions": [24, 800, "v", 12000], "internal_node_id": "0.0-153.0", "trial": 5, "time_elapsed": 902708, "serialpos": 22, "key_press": -1, "wordID": 865, "type": "PRES_VIS", "trial_index": 207}, "uniqueid": "MTK1989:3FIJLY1B6VBY1P4MT1XFE38HK97PFQ", "dateTime": 1516644116363}, {"current_trial": 208, "trialdata": {"rt": -1, "trial_type": "single-stim", "word": "washer", "stimulus": "<p id=\"stim\">WASHER</p>", "conditions": [24, 800, "v", 12000], "internal_node_id": "0.0-154.0", "trial": 5, "time_elapsed": 904696, "serialpos": 23, "key_press": -1, "wordID": 1591, "type": "PRES_VIS", "trial_index": 208}, "uniqueid": "MTK1989:3FIJLY1B6VBY1P4MT1XFE38HK97PFQ", "dateTime": 1516644118351}, {"current_trial": 209, "trialdata": {"rt": -1, "trial_type": "single-stim", "stimulus": "", "internal_node_id": "0.0-155.0-0.0", "time_elapsed": 906905, "key_press": -1, "type": "PRE_RECALL_DELAY", "trial_index": 209}, "uniqueid": "MTK1989:3FIJLY1B6VBY1P4MT1XFE38HK97PFQ", "dateTime": 1516644120561}, {"current_trial": 210, "trialdata": {"rt": -1000, "trial_type": "single-audio", "stimulus": "/static/audio/400Hz.wav", "internal_node_id": "0.0-156.0", "time_elapsed": 907410, "key_press": -1, "type": "PRE_RECALL_ALERT", "trial_index": 210}, "uniqueid": "MTK1989:3FIJLY1B6VBY1P4MT1XFE38HK97PFQ", "dateTime": 1516644121065}, {"current_trial": 211, "trialdata": {"rt": [2155, 2392, 5220, 7521, 8736, 12577, 20620], "recwords": ["washer", "", "waotress", "brandy", "wasp", "glove", "wash"], "key_times": [1298, 1407, 1621, 1799, 1918, 2077, 2155, 2392, 3129, 3216, 3551, 3727, 3896, 4103, 4268, 4516, 5220, 6502, 6581, 6649, 6820, 6994, 7229, 7521, 7878, 7984, 8147, 8378, 8736, 11890, 11957, 12177, 12313, 12423, 12577, 19979, 20129, 20238, 20341, 20620], "trial_type": "free-recall", "conditions": [24, 800, "v", 12000], "internal_node_id": "0.0-157.0-0.0", "key_presses": [87, 65, 83, 72, 69, 82, 32, 13, 87, 65, 79, 84, 82, 69, 83, 83, 13, 66, 82, 65, 78, 68, 89, 13, 87, 65, 83, 80, 13, 71, 76, 79, 86, 69, 13, 87, 65, 83, 72, 13], "trial": 5, "time_elapsed": 967410, "type": "FREE_RECALL", "trial_index": 211}, "uniqueid": "MTK1989:3FIJLY1B6VBY1P4MT1XFE38HK97PFQ", "dateTime": 1516644181074}, {"current_trial": 212, "trialdata": {"rt": 2423, "trial_type": "text", "internal_node_id": "0.0-158.0", "time_elapsed": 971842, "key_press": 32, "type": "INSTRUCTIONS", "trial_index": 212}, "uniqueid": "MTK1989:3FIJLY1B6VBY1P4MT1XFE38HK97PFQ", "dateTime": 1516644185497}, {"current_trial": 213, "trialdata": {"rt": [4131, 6133, 8713, 11357, 13356, 15718, 17618, 19404], "trial_type": "math-distractor", "key_times": [3387, 3411, 4131, 5856, 5915, 6133, 8367, 8465, 8713, 11027, 11150, 11357, 13089, 13156, 13356, 15350, 15427, 15718, 17364, 17618, 19212, 19404, 23709, 23957], "responses": ["13", "10", "16", "19", "10", "16", "6", "9"], "num2": [6, 4, 6, 2, 2, 5, 1, 6, 2], "num3": [5, 2, 5, 9, 5, 6, 4, 2, 5], "conditions": [24, 1600, "v", 24000], "internal_node_id": "0.0-159.0", "key_presses": [97, 99, 13, 97, 96, 13, 97, 102, 13, 97, 105, 13, 97, 96, 13, 97, 102, 13, 102, 13, 105, 13, 97, 103], "trial": 6, "time_elapsed": 997846, "type": "DISTRACTOR", "trial_index": 213, "num1": [2, 4, 5, 8, 3, 5, 1, 1, 8]}, "uniqueid": "MTK1989:3FIJLY1B6VBY1P4MT1XFE38HK97PFQ", "dateTime": 1516644211502}, {"current_trial": 214, "trialdata": {"rt": -1, "trial_type": "single-stim", "stimulus": "<p id=\"stim\">10</p>", "internal_node_id": "0.0-160.0-0.0", "time_elapsed": 1000850, "key_press": -1, "trial_index": 214}, "uniqueid": "MTK1989:3FIJLY1B6VBY1P4MT1XFE38HK97PFQ", "dateTime": 1516644214505}, {"current_trial": 215, "trialdata": {"rt": -1, "trial_type": "single-stim", "stimulus": "<p id=\"stim\">9</p>", "internal_node_id": "0.0-160.0-1.0", "time_elapsed": 1001851, "key_press": -1, "trial_index": 215}, "uniqueid": "MTK1989:3FIJLY1B6VBY1P4MT1XFE38HK97PFQ", "dateTime": 1516644215506}, {"current_trial": 216, "trialdata": {"rt": -1, "trial_type": "single-stim", "stimulus": "<p id=\"stim\">8</p>", "internal_node_id": "0.0-160.0-2.0", "time_elapsed": 1002851, "key_press": -1, "trial_index": 216}, "uniqueid": "MTK1989:3FIJLY1B6VBY1P4MT1XFE38HK97PFQ", "dateTime": 1516644216507}, {"current_trial": 217, "trialdata": {"rt": -1, "trial_type": "single-stim", "stimulus": "<p id=\"stim\">7</p>", "internal_node_id": "0.0-160.0-3.0", "time_elapsed": 1003854, "key_press": -1, "trial_index": 217}, "uniqueid": "MTK1989:3FIJLY1B6VBY1P4MT1XFE38HK97PFQ", "dateTime": 1516644217509}, {"current_trial": 218, "trialdata": {"rt": -1, "trial_type": "single-stim", "stimulus": "<p id=\"stim\">6</p>", "internal_node_id": "0.0-160.0-4.0", "time_elapsed": 1004856, "key_press": -1, "trial_index": 218}, "uniqueid": "MTK1989:3FIJLY1B6VBY1P4MT1XFE38HK97PFQ", "dateTime": 1516644218511}, {"current_trial": 219, "trialdata": {"rt": -1, "trial_type": "single-stim", "stimulus": "<p id=\"stim\">5</p>", "internal_node_id": "0.0-160.0-5.0", "time_elapsed": 1005858, "key_press": -1, "trial_index": 219}, "uniqueid": "MTK1989:3FIJLY1B6VBY1P4MT1XFE38HK97PFQ", "dateTime": 1516644219513}, {"current_trial": 220, "trialdata": {"rt": -1, "trial_type": "single-stim", "stimulus": "<p id=\"stim\">4</p>", "internal_node_id": "0.0-160.0-6.0", "time_elapsed": 1006861, "key_press": -1, "trial_index": 220}, "uniqueid": "MTK1989:3FIJLY1B6VBY1P4MT1XFE38HK97PFQ", "dateTime": 1516644220516}, {"current_trial": 221, "trialdata": {"rt": -1, "trial_type": "single-stim", "stimulus": "<p id=\"stim\">3</p>", "internal_node_id": "0.0-160.0-7.0", "time_elapsed": 1007862, "key_press": -1, "trial_index": 221}, "uniqueid": "MTK1989:3FIJLY1B6VBY1P4MT1XFE38HK97PFQ", "dateTime": 1516644221517}, {"current_trial": 222, "trialdata": {"rt": -1, "trial_type": "single-stim", "stimulus": "<p id=\"stim\">2</p>", "internal_node_id": "0.0-160.0-8.0", "time_elapsed": 1008863, "key_press": -1, "trial_index": 222}, "uniqueid": "MTK1989:3FIJLY1B6VBY1P4MT1XFE38HK97PFQ", "dateTime": 1516644222518}, {"current_trial": 223, "trialdata": {"rt": -1, "trial_type": "single-stim", "stimulus": "<p id=\"stim\">1</p>", "internal_node_id": "0.0-160.0-9.0", "time_elapsed": 1009864, "key_press": -1, "trial_index": 223}, "uniqueid": "MTK1989:3FIJLY1B6VBY1P4MT1XFE38HK97PFQ", "dateTime": 1516644223519}, {"current_trial": 224, "trialdata": {"rt": -1, "trial_type": "single-stim", "stimulus": "<p id=\"stim\">+</p>", "internal_node_id": "0.0-161.0-0.0", "time_elapsed": 1011365, "key_press": -1, "type": "FIXATION", "trial_index": 224}, "uniqueid": "MTK1989:3FIJLY1B6VBY1P4MT1XFE38HK97PFQ", "dateTime": 1516644225020}, {"current_trial": 225, "trialdata": {"rt": -1, "trial_type": "single-stim", "word": "binder", "stimulus": "<p id=\"stim\">BINDER</p>", "conditions": [24, 1600, "v", 24000], "internal_node_id": "0.0-162.0", "trial": 6, "time_elapsed": 1012966, "serialpos": 0, "key_press": -1, "wordID": 126, "type": "PRES_VIS", "trial_index": 225}, "uniqueid": "MTK1989:3FIJLY1B6VBY1P4MT1XFE38HK97PFQ", "dateTime": 1516644226621}, {"current_trial": 226, "trialdata": {"rt": -1, "trial_type": "single-stim", "word": "pocket", "stimulus": "<p id=\"stim\">POCKET</p>", "conditions": [24, 1600, "v", 24000], "internal_node_id": "0.0-163.0", "trial": 6, "time_elapsed": 1015750, "serialpos": 1, "key_press": -1, "wordID": 1092, "type": "PRES_VIS", "trial_index": 226}, "uniqueid": "MTK1989:3FIJLY1B6VBY1P4MT1XFE38HK97PFQ", "dateTime": 1516644229405}, {"current_trial": 227, "trialdata": {"rt": -1, "trial_type": "single-stim", "word": "pilot", "stimulus": "<p id=\"stim\">PILOT</p>", "conditions": [24, 1600, "v", 24000], "internal_node_id": "0.0-164.0", "trial": 6, "time_elapsed": 1018438, "serialpos": 2, "key_press": -1, "wordID": 1069, "type": "PRES_VIS", "trial_index": 227}, "uniqueid": "MTK1989:3FIJLY1B6VBY1P4MT1XFE38HK97PFQ", "dateTime": 1516644232093}, {"current_trial": 228, "trialdata": {"rt": -1, "trial_type": "single-stim", "word": "bucket", "stimulus": "<p id=\"stim\">BUCKET</p>", "conditions": [24, 1600, "v", 24000], "internal_node_id": "0.0-165.0", "trial": 6, "time_elapsed": 1020952, "serialpos": 3, "key_press": -1, "wordID": 183, "type": "PRES_VIS", "trial_index": 228}, "uniqueid": "MTK1989:3FIJLY1B6VBY1P4MT1XFE38HK97PFQ", "dateTime": 1516644234607}, {"current_trial": 229, "trialdata": {"rt": -1, "trial_type": "single-stim", "word": "briefcase", "stimulus": "<p id=\"stim\">BRIEFCASE</p>", "conditions": [24, 1600, "v", 24000], "internal_node_id": "0.0-166.0", "trial": 6, "time_elapsed": 1023680, "serialpos": 4, "key_press": -1, "wordID": 174, "type": "PRES_VIS", "trial_index": 229}, "uniqueid": "MTK1989:3FIJLY1B6VBY1P4MT1XFE38HK97PFQ", "dateTime": 1516644237335}, {"current_trial": 230, "trialdata": {"rt": -1, "trial_type": "single-stim", "word": "ankle", "stimulus": "<p id=\"stim\">ANKLE</p>", "conditions": [24, 1600, "v", 24000], "internal_node_id": "0.0-167.0", "trial": 6, "time_elapsed": 1026166, "serialpos": 5, "key_press": -1, "wordID": 23, "type": "PRES_VIS", "trial_index": 230}, "uniqueid": "MTK1989:3FIJLY1B6VBY1P4MT1XFE38HK97PFQ", "dateTime": 1516644239821}, {"current_trial": 231, "trialdata": {"rt": -1, "trial_type": "single-stim", "word": "ointment", "stimulus": "<p id=\"stim\">OINTMENT</p>", "conditions": [24, 1600, "v", 24000], "internal_node_id": "0.0-168.0", "trial": 6, "time_elapsed": 1028774, "serialpos": 6, "key_press": -1, "wordID": 973, "type": "PRES_VIS", "trial_index": 231}, "uniqueid": "MTK1989:3FIJLY1B6VBY1P4MT1XFE38HK97PFQ", "dateTime": 1516644242429}, {"current_trial": 232, "trialdata": {"rt": -1, "trial_type": "single-stim", "word": "candy", "stimulus": "<p id=\"stim\">CANDY</p>", "conditions": [24, 1600, "v", 24000], "internal_node_id": "0.0-169.0", "trial": 6, "time_elapsed": 1031305, "serialpos": 7, "key_press": -1, "wordID": 229, "type": "PRES_VIS", "trial_index": 232}, "uniqueid": "MTK1989:3FIJLY1B6VBY1P4MT1XFE38HK97PFQ", "dateTime": 1516644244960}, {"current_trial": 233, "trialdata": {"rt": -1, "trial_type": "single-stim", "word": "branch", "stimulus": "<p id=\"stim\">BRANCH</p>", "conditions": [24, 1600, "v", 24000], "internal_node_id": "0.0-170.0", "trial": 6, "time_elapsed": 1033978, "serialpos": 8, "key_press": -1, "wordID": 167, "type": "PRES_VIS", "trial_index": 233}, "uniqueid": "MTK1989:3FIJLY1B6VBY1P4MT1XFE38HK97PFQ", "dateTime": 1516644247633}, {"current_trial": 234, "trialdata": {"rt": -1, "trial_type": "single-stim", "word": "bank", "stimulus": "<p id=\"stim\">BANK</p>", "conditions": [24, 1600, "v", 24000], "internal_node_id": "0.0-171.0", "trial": 6, "time_elapsed": 1036542, "serialpos": 9, "key_press": -1, "wordID": 82, "type": "PRES_VIS", "trial_index": 234}, "uniqueid": "MTK1989:3FIJLY1B6VBY1P4MT1XFE38HK97PFQ", "dateTime": 1516644250197}, {"current_trial": 235, "trialdata": {"rt": -1, "trial_type": "single-stim", "word": "preacher", "stimulus": "<p id=\"stim\">PREACHER</p>", "conditions": [24, 1600, "v", 24000], "internal_node_id": "0.0-172.0", "trial": 6, "time_elapsed": 1039288, "serialpos": 10, "key_press": -1, "wordID": 1118, "type": "PRES_VIS", "trial_index": 235}, "uniqueid": "MTK1989:3FIJLY1B6VBY1P4MT1XFE38HK97PFQ", "dateTime": 1516644252943}, {"current_trial": 236, "trialdata": {"rt": -1, "trial_type": "single-stim", "word": "suspect", "stimulus": "<p id=\"stim\">SUSPECT</p>", "conditions": [24, 1600, "v", 24000], "internal_node_id": "0.0-173.0", "trial": 6, "time_elapsed": 1042010, "serialpos": 11, "key_press": -1, "wordID": 1414, "type": "PRES_VIS", "trial_index": 236}, "uniqueid": "MTK1989:3FIJLY1B6VBY1P4MT1XFE38HK97PFQ", "dateTime": 1516644255665}, {"current_trial": 237, "trialdata": {"rt": -1, "trial_type": "single-stim", "word": "climber", "stimulus": "<p id=\"stim\">CLIMBER</p>", "conditions": [24, 1600, "v", 24000], "internal_node_id": "0.0-174.0", "trial": 6, "time_elapsed": 1044706, "serialpos": 12, "key_press": -1, "wordID": 322, "type": "PRES_VIS", "trial_index": 237}, "uniqueid": "MTK1989:3FIJLY1B6VBY1P4MT1XFE38HK97PFQ", "dateTime": 1516644258361}, {"current_trial": 238, "trialdata": {"rt": -1, "trial_type": "single-stim", "word": "princess", "stimulus": "<p id=\"stim\">PRINCESS</p>", "conditions": [24, 1600, "v", 24000], "internal_node_id": "0.0-175.0", "trial": 6, "time_elapsed": 1047245, "serialpos": 13, "key_press": -1, "wordID": 1124, "type": "PRES_VIS", "trial_index": 238}, "uniqueid": "MTK1989:3FIJLY1B6VBY1P4MT1XFE38HK97PFQ", "dateTime": 1516644260900}, {"current_trial": 239, "trialdata": {"rt": -1, "trial_type": "single-stim", "word": "queen", "stimulus": "<p id=\"stim\">QUEEN</p>", "conditions": [24, 1600, "v", 24000], "internal_node_id": "0.0-176.0", "trial": 6, "time_elapsed": 1049692, "serialpos": 14, "key_press": -1, "wordID": 1148, "type": "PRES_VIS", "trial_index": 239}, "uniqueid": "MTK1989:3FIJLY1B6VBY1P4MT1XFE38HK97PFQ", "dateTime": 1516644263347}, {"current_trial": 240, "trialdata": {"rt": -1, "trial_type": "single-stim", "word": "whiskers", "stimulus": "<p id=\"stim\">WHISKERS</p>", "conditions": [24, 1600, "v", 24000], "internal_node_id": "0.0-177.0", "trial": 6, "time_elapsed": 1052324, "serialpos": 15, "key_press": -1, "wordID": 1604, "type": "PRES_VIS", "trial_index": 240}, "uniqueid": "MTK1989:3FIJLY1B6VBY1P4MT1XFE38HK97PFQ", "dateTime": 1516644265979}, {"current_trial": 241, "trialdata": {"rt": -1, "trial_type": "single-stim", "word": "flesh", "stimulus": "<p id=\"stim\">FLESH</p>", "conditions": [24, 1600, "v", 24000], "internal_node_id": "0.0-178.0", "trial": 6, "time_elapsed": 1055111, "serialpos": 16, "key_press": -1, "wordID": 578, "type": "PRES_VIS", "trial_index": 241}, "uniqueid": "MTK1989:3FIJLY1B6VBY1P4MT1XFE38HK97PFQ", "dateTime": 1516644268766}, {"current_trial": 242, "trialdata": {"rt": -1, "trial_type": "single-stim", "word": "piano", "stimulus": "<p id=\"stim\">PIANO</p>", "conditions": [24, 1600, "v", 24000], "internal_node_id": "0.0-179.0", "trial": 6, "time_elapsed": 1057889, "serialpos": 17, "key_press": -1, "wordID": 1056, "type": "PRES_VIS", "trial_index": 242}, "uniqueid": "MTK1989:3FIJLY1B6VBY1P4MT1XFE38HK97PFQ", "dateTime": 1516644271544}, {"current_trial": 243, "trialdata": {"rt": -1, "trial_type": "single-stim", "word": "barley", "stimulus": "<p id=\"stim\">BARLEY</p>", "conditions": [24, 1600, "v", 24000], "internal_node_id": "0.0-180.0", "trial": 6, "time_elapsed": 1060610, "serialpos": 18, "key_press": -1, "wordID": 87, "type": "PRES_VIS", "trial_index": 243}, "uniqueid": "MTK1989:3FIJLY1B6VBY1P4MT1XFE38HK97PFQ", "dateTime": 1516644274265}, {"current_trial": 244, "trialdata": {"rt": -1, "trial_type": "single-stim", "word": "freezer", "stimulus": "<p id=\"stim\">FREEZER</p>", "conditions": [24, 1600, "v", 24000], "internal_node_id": "0.0-181.0", "trial": 6, "time_elapsed": 1063126, "serialpos": 19, "key_press": -1, "wordID": 603, "type": "PRES_VIS", "trial_index": 244}, "uniqueid": "MTK1989:3FIJLY1B6VBY1P4MT1XFE38HK97PFQ", "dateTime": 1516644276781}, {"current_trial": 245, "trialdata": {"rt": -1, "trial_type": "single-stim", "word": "forehead", "stimulus": "<p id=\"stim\">FOREHEAD</p>", "conditions": [24, 1600, "v", 24000], "internal_node_id": "0.0-182.0", "trial": 6, "time_elapsed": 1065554, "serialpos": 20, "key_press": -1, "wordID": 591, "type": "PRES_VIS", "trial_index": 245}, "uniqueid": "MTK1989:3FIJLY1B6VBY1P4MT1XFE38HK97PFQ", "dateTime": 1516644279209}, {"current_trial": 246, "trialdata": {"rt": -1, "trial_type": "single-stim", "word": "guitar", "stimulus": "<p id=\"stim\">GUITAR</p>", "conditions": [24, 1600, "v", 24000], "internal_node_id": "0.0-183.0", "trial": 6, "time_elapsed": 1068145, "serialpos": 21, "key_press": -1, "wordID": 669, "type": "PRES_VIS", "trial_index": 246}, "uniqueid": "MTK1989:3FIJLY1B6VBY1P4MT1XFE38HK97PFQ", "dateTime": 1516644281800}, {"current_trial": 247, "trialdata": {"rt": -1, "trial_type": "single-stim", "word": "bison", "stimulus": "<p id=\"stim\">BISON</p>", "conditions": [24, 1600, "v", 24000], "internal_node_id": "0.0-184.0", "trial": 6, "time_elapsed": 1070556, "serialpos": 22, "key_press": -1, "wordID": 130, "type": "PRES_VIS", "trial_index": 247}, "uniqueid": "MTK1989:3FIJLY1B6VBY1P4MT1XFE38HK97PFQ", "dateTime": 1516644284211}, {"current_trial": 248, "trialdata": {"rt": -1, "trial_type": "single-stim", "word": "pork", "stimulus": "<p id=\"stim\">PORK</p>", "conditions": [24, 1600, "v", 24000], "internal_node_id": "0.0-185.0", "trial": 6, "time_elapsed": 1073313, "serialpos": 23, "key_press": -1, "wordID": 1107, "type": "PRES_VIS", "trial_index": 248}, "uniqueid": "MTK1989:3FIJLY1B6VBY1P4MT1XFE38HK97PFQ", "dateTime": 1516644286968}, {"current_trial": 249, "trialdata": {"rt": -1, "trial_type": "single-stim", "stimulus": "", "internal_node_id": "0.0-186.0-0.0", "time_elapsed": 1075577, "key_press": -1, "type": "PRE_RECALL_DELAY", "trial_index": 249}, "uniqueid": "MTK1989:3FIJLY1B6VBY1P4MT1XFE38HK97PFQ", "dateTime": 1516644289232}, {"current_trial": 250, "trialdata": {"rt": -1000, "trial_type": "single-audio", "stimulus": "/static/audio/400Hz.wav", "internal_node_id": "0.0-187.0", "time_elapsed": 1076093, "key_press": -1, "type": "PRE_RECALL_ALERT", "trial_index": 250}, "uniqueid": "MTK1989:3FIJLY1B6VBY1P4MT1XFE38HK97PFQ", "dateTime": 1516644289748}, {"current_trial": 251, "trialdata": {"rt": [2361, 2673, 4024, 5563, 6867, 10315, 14353, 17977], "recwords": ["bison", "", "pork", "banker", "branch", "blanket", "olive", "preacher"], "key_times": [1502, 1676, 1870, 2002, 2247, 2361, 2673, 3230, 3439, 3619, 3769, 4024, 4571, 4695, 4827, 5167, 5323, 5431, 5563, 5960, 6091, 6178, 6292, 6459, 6577, 6867, 9354, 9421, 9617, 9684, 9812, 9991, 10160, 10315, 12729, 12917, 13125, 13571, 13684, 14353, 16279, 16333, 16480, 16566, 16753, 17147, 17211, 17439, 17685, 17977], "trial_type": "free-recall", "conditions": [24, 1600, "v", 24000], "internal_node_id": "0.0-188.0-0.0", "key_presses": [66, 73, 83, 79, 78, 32, 13, 80, 79, 82, 75, 13, 66, 65, 78, 75, 69, 82, 13, 66, 82, 65, 78, 67, 72, 13, 66, 76, 65, 78, 75, 69, 84, 13, 79, 76, 73, 86, 69, 13, 17, 80, 82, 69, 65, 67, 72, 69, 82, 13], "trial": 6, "time_elapsed": 1136094, "type": "FREE_RECALL", "trial_index": 251}, "uniqueid": "MTK1989:3FIJLY1B6VBY1P4MT1XFE38HK97PFQ", "dateTime": 1516644349756}, {"current_trial": 252, "trialdata": {"rt": 6529, "trial_type": "text", "internal_node_id": "0.0-189.0", "time_elapsed": 1144633, "key_press": 32, "type": "INSTRUCTIONS", "trial_index": 252}, "uniqueid": "MTK1989:3FIJLY1B6VBY1P4MT1XFE38HK97PFQ", "dateTime": 1516644358288}, {"current_trial": 253, "trialdata": {"rt": [3987, 6572, 10308], "trial_type": "math-distractor", "key_times": [3301, 3447, 3987, 5982, 6572, 9381, 9910, 10308], "responses": ["21", "9", "17"], "num2": [9, 5, 4, 3], "num3": [8, 2, 7, 6], "conditions": [12, 800, "v", 12000], "internal_node_id": "0.0-190.0", "key_presses": [98, 97, 13, 105, 13, 97, 103, 13], "trial": 7, "time_elapsed": 1158637, "type": "DISTRACTOR", "trial_index": 253, "num1": [6, 2, 6, 2]}, "uniqueid": "MTK1989:3FIJLY1B6VBY1P4MT1XFE38HK97PFQ", "dateTime": 1516644372292}, {"current_trial": 254, "trialdata": {"rt": -1, "trial_type": "single-stim", "stimulus": "<p id=\"stim\">10</p>", "internal_node_id": "0.0-191.0-0.0", "time_elapsed": 1161640, "key_press": -1, "trial_index": 254}, "uniqueid": "MTK1989:3FIJLY1B6VBY1P4MT1XFE38HK97PFQ", "dateTime": 1516644375298}, {"current_trial": 255, "trialdata": {"rt": -1, "trial_type": "single-stim", "stimulus": "<p id=\"stim\">9</p>", "internal_node_id": "0.0-191.0-1.0", "time_elapsed": 1162644, "key_press": -1, "trial_index": 255}, "uniqueid": "MTK1989:3FIJLY1B6VBY1P4MT1XFE38HK97PFQ", "dateTime": 1516644376299}, {"current_trial": 256, "trialdata": {"rt": -1, "trial_type": "single-stim", "stimulus": "<p id=\"stim\">8</p>", "internal_node_id": "0.0-191.0-2.0", "time_elapsed": 1163646, "key_press": -1, "trial_index": 256}, "uniqueid": "MTK1989:3FIJLY1B6VBY1P4MT1XFE38HK97PFQ", "dateTime": 1516644377301}, {"current_trial": 257, "trialdata": {"rt": -1, "trial_type": "single-stim", "stimulus": "<p id=\"stim\">7</p>", "internal_node_id": "0.0-191.0-3.0", "time_elapsed": 1164647, "key_press": -1, "trial_index": 257}, "uniqueid": "MTK1989:3FIJLY1B6VBY1P4MT1XFE38HK97PFQ", "dateTime": 1516644378302}, {"current_trial": 258, "trialdata": {"rt": -1, "trial_type": "single-stim", "stimulus": "<p id=\"stim\">6</p>", "internal_node_id": "0.0-191.0-4.0", "time_elapsed": 1165648, "key_press": -1, "trial_index": 258}, "uniquei