{"assignmentId": "3XLBSAQ9Z5JF00RMYRX5H9XEVJS7ZJ", "workerId": "MTK1698", "questiondata": {"origin": "United States", "strat-rehearsal": "77", "marital": "Single", "education": "High school diploma", "ethnicity": "Not Hispanic", "color_depth": 24, "distracted": "No", "wrote-notes": "No", "strat-other": "Nothing else that I can think of. ", "screen_width": 1280, "avail_screen_width": 1280, "avail_screen_height": 773, "strat-image": "70", "language": "English", "gender": "Male", "age": "33", "gender_other": "", "race": ["White"], "strat-categorize": "76", "pixel_depth": 24, "strat-spatial": "57", "strat-story": "66", "race_other": "", "screen_height": 800}, "bonus": 0, "hitId": "37OPIVELUUA95XRW96YG29ZFIKSAH7", "counterbalance": 1757, "useragent": "Mozilla/5.0 (Macintosh; Intel Mac OS X 10_12_6) AppleWebKit/537.36 (KHTML, like Gecko) Chrome/63.0.3239.132 Safari/537.36", "eventdata": [{"eventtype": "initialized", "interval": 0, "value": null, "timestamp": 1516128370631}, {"eventtype": "window_resize", "interval": 0, "value": [1280, 722], "timestamp": 1516128370631}, {"eventtype": "focus", "interval": 71309, "value": "off", "timestamp": 1516128441940}, {"eventtype": "focus", "interval": 70740, "value": "on", "timestamp": 1516128512680}, {"eventtype": "focus", "interval": 244112, "value": "off", "timestamp": 1516128756792}, {"eventtype": "focus", "interval": 1, "value": "on", "timestamp": 1516128756793}, {"eventtype": "focus", "interval": 441564, "value": "off", "timestamp": 1516129198357}, {"eventtype": "focus", "interval": 11610, "value": "on", "timestamp": 1516129209967}, {"eventtype": "focus", "interval": 517772, "value": "off", "timestamp": 1516129727739}, {"eventtype": "focus", "interval": 13102, "value": "on", "timestamp": 1516129740841}, {"eventtype": "focus", "interval": 382095, "value": "off", "timestamp": 1516130122936}, {"eventtype": "focus", "interval": 18576, "value": "on", "timestamp": 1516130141512}, {"eventtype": "focus", "interval": 607359, "value": "off", "timestamp": 1516130748871}, {"eventtype": "focus", "interval": 5918, "value": "on", "timestamp": 1516130754789}, {"eventtype": "focus", "interval": 78508, "value": "off", "timestamp": 1516130833297}, {"eventtype": "focus", "interval": 7618, "value": "on", "timestamp": 1516130840915}, {"eventtype": "focus", "interval": 8720, "value": "off", "timestamp": 1516130849635}, {"eventtype": "focus", "interval": 20306, "value": "on", "timestamp": 1516130869941}, {"eventtype": "focus", "interval": 12536, "value": "off", "timestamp": 1516130882477}, {"eventtype": "focus", "interval": 3707, "value": "on", "timestamp": 1516130886184}, {"eventtype": "focus", "interval": 126485, "value": "off", "timestamp": 1516131012669}, {"eventtype": "focus", "interval": 25493, "value": "on", "timestamp": 1516131038162}], "data": [{"current_trial": 0, "trialdata": {"rt": 1518, "trial_type": "text", "internal_node_id": "0.0-0.0", "time_elapsed": 1520, "key_press": 32, "type": "INSTRUCTIONS", "trial_index": 0}, "uniqueid": "MTK1698:3XLBSAQ9Z5JF00RMYRX5H9XEVJS7ZJ", "dateTime": 1516128372724}, {"current_trial": 1, "trialdata": {"rt": 145008, "trial_type": "text", "internal_node_id": "0.0-1.0", "time_elapsed": 146531, "key_press": 32, "type": "INSTRUCTIONS", "trial_index": 1}, "uniqueid": "MTK1698:3XLBSAQ9Z5JF00RMYRX5H9XEVJS7ZJ", "dateTime": 1516128517735}, {"current_trial": 2, "trialdata": {"rt": [8553], "trial_type": "audio-test", "responses": ["ocean"], "internal_node_id": "0.0-2.0", "time_elapsed": 155100, "type": "AUDIO_TEST", "trial_index": 2}, "uniqueid": "MTK1698:3XLBSAQ9Z5JF00RMYRX5H9XEVJS7ZJ", "dateTime": 1516128526303}, {"current_trial": 3, "trialdata": {"rt": [17106], "trial_type": "audio-test", "responses": ["crystal"], "internal_node_id": "0.0-3.0", "time_elapsed": 172210, "type": "AUDIO_TEST", "trial_index": 3}, "uniqueid": "MTK1698:3XLBSAQ9Z5JF00RMYRX5H9XEVJS7ZJ", "dateTime": 1516128543414}, {"current_trial": 4, "trialdata": {"rt": [7188], "trial_type": "audio-test", "responses": ["spice"], "internal_node_id": "0.0-4.0", "time_elapsed": 179402, "type": "AUDIO_TEST", "trial_index": 4}, "uniqueid": "MTK1698:3XLBSAQ9Z5JF00RMYRX5H9XEVJS7ZJ", "dateTime": 1516128550605}, {"current_trial": 5, "trialdata": {"rt": 27286, "trial_type": "survey-text", "responses": "{\"Q0\":\"1:00AM\",\"Q1\":\"7:00am\",\"Q2\":\"3\"}", "internal_node_id": "0.0-5.0", "time_elapsed": 207444, "type": "SLEEP_SURVEY", "trial_index": 5}, "uniqueid": "MTK1698:3XLBSAQ9Z5JF00RMYRX5H9XEVJS7ZJ", "dateTime": 1516128578647}, {"current_trial": 6, "trialdata": {"rt": 24265, "trial_type": "text", "internal_node_id": "0.0-6.0", "time_elapsed": 232714, "key_press": 91, "type": "INSTRUCTIONS", "trial_index": 6}, "uniqueid": "MTK1698:3XLBSAQ9Z5JF00RMYRX5H9XEVJS7ZJ", "dateTime": 1516128603918}, {"current_trial": 7, "trialdata": {"rt": 16087, "trial_type": "text", "internal_node_id": "0.0-7.0", "time_elapsed": 249308, "key_press": 32, "type": "INSTRUCTIONS", "trial_index": 7}, "uniqueid": "MTK1698:3XLBSAQ9Z5JF00RMYRX5H9XEVJS7ZJ", "dateTime": 1516128620511}, {"current_trial": 8, "trialdata": {"rt": 10236, "trial_type": "text", "internal_node_id": "0.0-8.0", "time_elapsed": 260048, "key_press": 32, "type": "INSTRUCTIONS", "trial_index": 8}, "uniqueid": "MTK1698:3XLBSAQ9Z5JF00RMYRX5H9XEVJS7ZJ", "dateTime": 1516128631251}, {"current_trial": 9, "trialdata": {"rt": [8570, 11970], "trial_type": "math-distractor", "key_times": [7670, 7786, 8570, 11594, 11970], "responses": ["14", "5"], "num2": [2, 2, 6], "num3": [6, 1, 7], "conditions": [18, 1200, "v", 18000], "internal_node_id": "0.0-9.0", "key_presses": [49, 52, 13, 53, 13], "trial": 0, "time_elapsed": 279060, "type": "DISTRACTOR", "trial_index": 9, "num1": [6, 2, 9]}, "uniqueid": "MTK1698:3XLBSAQ9Z5JF00RMYRX5H9XEVJS7ZJ", "dateTime": 1516128650263}, {"current_trial": 10, "trialdata": {"rt": -1, "trial_type": "single-stim", "stimulus": "<p id=\"stim\">10</p>", "internal_node_id": "0.0-10.0-0.0", "time_elapsed": 282070, "key_press": -1, "trial_index": 10}, "uniqueid": "MTK1698:3XLBSAQ9Z5JF00RMYRX5H9XEVJS7ZJ", "dateTime": 1516128653273}, {"current_trial": 11, "trialdata": {"rt": -1, "trial_type": "single-stim", "stimulus": "<p id=\"stim\">9</p>", "internal_node_id": "0.0-10.0-1.0", "time_elapsed": 283076, "key_press": -1, "trial_index": 11}, "uniqueid": "MTK1698:3XLBSAQ9Z5JF00RMYRX5H9XEVJS7ZJ", "dateTime": 1516128654279}, {"current_trial": 12, "trialdata": {"rt": -1, "trial_type": "single-stim", "stimulus": "<p id=\"stim\">8</p>", "internal_node_id": "0.0-10.0-2.0", "time_elapsed": 284082, "key_press": -1, "trial_index": 12}, "uniqueid": "MTK1698:3XLBSAQ9Z5JF00RMYRX5H9XEVJS7ZJ", "dateTime": 1516128655285}, {"current_trial": 13, "trialdata": {"rt": -1, "trial_type": "single-stim", "stimulus": "<p id=\"stim\">7</p>", "internal_node_id": "0.0-10.0-3.0", "time_elapsed": 285087, "key_press": -1, "trial_index": 13}, "uniqueid": "MTK1698:3XLBSAQ9Z5JF00RMYRX5H9XEVJS7ZJ", "dateTime": 1516128656290}, {"current_trial": 14, "trialdata": {"rt": -1, "trial_type": "single-stim", "stimulus": "<p id=\"stim\">6</p>", "internal_node_id": "0.0-10.0-4.0", "time_elapsed": 286091, "key_press": -1, "trial_index": 14}, "uniqueid": "MTK1698:3XLBSAQ9Z5JF00RMYRX5H9XEVJS7ZJ", "dateTime": 1516128657294}, {"current_trial": 15, "trialdata": {"rt": -1, "trial_type": "single-stim", "stimulus": "<p id=\"stim\">5</p>", "internal_node_id": "0.0-10.0-5.0", "time_elapsed": 287096, "key_press": -1, "trial_index": 15}, "uniqueid": "MTK1698:3XLBSAQ9Z5JF00RMYRX5H9XEVJS7ZJ", "dateTime": 1516128658299}, {"current_trial": 16, "trialdata": {"rt": -1, "trial_type": "single-stim", "stimulus": "<p id=\"stim\">4</p>", "internal_node_id": "0.0-10.0-6.0", "time_elapsed": 288101, "key_press": -1, "trial_index": 16}, "uniqueid": "MTK1698:3XLBSAQ9Z5JF00RMYRX5H9XEVJS7ZJ", "dateTime": 1516128659304}, {"current_trial": 17, "trialdata": {"rt": -1, "trial_type": "single-stim", "stimulus": "<p id=\"stim\">3</p>", "internal_node_id": "0.0-10.0-7.0", "time_elapsed": 289107, "key_press": -1, "trial_index": 17}, "uniqueid": "MTK1698:3XLBSAQ9Z5JF00RMYRX5H9XEVJS7ZJ", "dateTime": 1516128660310}, {"current_trial": 18, "trialdata": {"rt": -1, "trial_type": "single-stim", "stimulus": "<p id=\"stim\">2</p>", "internal_node_id": "0.0-10.0-8.0", "time_elapsed": 290112, "key_press": -1, "trial_index": 18}, "uniqueid": "MTK1698:3XLBSAQ9Z5JF00RMYRX5H9XEVJS7ZJ", "dateTime": 1516128661315}, {"current_trial": 19, "trialdata": {"rt": -1, "trial_type": "single-stim", "stimulus": "<p id=\"stim\">1</p>", "internal_node_id": "0.0-10.0-9.0", "time_elapsed": 291118, "key_press": -1, "trial_index": 19}, "uniqueid": "MTK1698:3XLBSAQ9Z5JF00RMYRX5H9XEVJS7ZJ", "dateTime": 1516128662321}, {"current_trial": 20, "trialdata": {"rt": -1, "trial_type": "single-stim", "stimulus": "<p id=\"stim\">+</p>", "internal_node_id": "0.0-11.0-0.0", "time_elapsed": 292623, "key_press": -1, "type": "FIXATION", "trial_index": 20}, "uniqueid": "MTK1698:3XLBSAQ9Z5JF00RMYRX5H9XEVJS7ZJ", "dateTime": 1516128663826}, {"current_trial": 21, "trialdata": {"rt": -1, "trial_type": "single-stim", "word": "novel", "stimulus": "<p id=\"stim\">NOVEL</p>", "conditions": [18, 1200, "v", 18000], "internal_node_id": "0.0-12.0", "trial": 0, "time_elapsed": 293828, "serialpos": 0, "key_press": -1, "wordID": 959, "type": "PRES_VIS", "trial_index": 21}, "uniqueid": "MTK1698:3XLBSAQ9Z5JF00RMYRX5H9XEVJS7ZJ", "dateTime": 1516128665031}, {"current_trial": 22, "trialdata": {"rt": -1, "trial_type": "single-stim", "word": "mask", "stimulus": "<p id=\"stim\">MASK</p>", "conditions": [18, 1200, "v", 18000], "internal_node_id": "0.0-13.0", "trial": 0, "time_elapsed": 295881, "serialpos": 1, "key_press": -1, "wordID": 875, "type": "PRES_VIS", "trial_index": 22}, "uniqueid": "MTK1698:3XLBSAQ9Z5JF00RMYRX5H9XEVJS7ZJ", "dateTime": 1516128667084}, {"current_trial": 23, "trialdata": {"rt": -1, "trial_type": "single-stim", "word": "blueprint", "stimulus": "<p id=\"stim\">BLUEPRINT</p>", "conditions": [18, 1200, "v", 18000], "internal_node_id": "0.0-14.0", "trial": 0, "time_elapsed": 298082, "serialpos": 2, "key_press": -1, "wordID": 141, "type": "PRES_VIS", "trial_index": 23}, "uniqueid": "MTK1698:3XLBSAQ9Z5JF00RMYRX5H9XEVJS7ZJ", "dateTime": 1516128669285}, {"current_trial": 24, "trialdata": {"rt": -1, "trial_type": "single-stim", "word": "beef", "stimulus": "<p id=\"stim\">BEEF</p>", "conditions": [18, 1200, "v", 18000], "internal_node_id": "0.0-15.0", "trial": 0, "time_elapsed": 300216, "serialpos": 3, "key_press": -1, "wordID": 112, "type": "PRES_VIS", "trial_index": 24}, "uniqueid": "MTK1698:3XLBSAQ9Z5JF00RMYRX5H9XEVJS7ZJ", "dateTime": 1516128671419}, {"current_trial": 25, "trialdata": {"rt": -1, "trial_type": "single-stim", "word": "hawk", "stimulus": "<p id=\"stim\">HAWK</p>", "conditions": [18, 1200, "v", 18000], "internal_node_id": "0.0-16.0", "trial": 0, "time_elapsed": 302275, "serialpos": 4, "key_press": -1, "wordID": 691, "type": "PRES_VIS", "trial_index": 25}, "uniqueid": "MTK1698:3XLBSAQ9Z5JF00RMYRX5H9XEVJS7ZJ", "dateTime": 1516128673478}, {"current_trial": 26, "trialdata": {"rt": -1, "trial_type": "single-stim", "word": "sparrow", "stimulus": "<p id=\"stim\">SPARROW</p>", "conditions": [18, 1200, "v", 18000], "internal_node_id": "0.0-17.0", "trial": 0, "time_elapsed": 304530, "serialpos": 5, "key_press": -1, "wordID": 1346, "type": "PRES_VIS", "trial_index": 26}, "uniqueid": "MTK1698:3XLBSAQ9Z5JF00RMYRX5H9XEVJS7ZJ", "dateTime": 1516128675733}, {"current_trial": 27, "trialdata": {"rt": -1, "trial_type": "single-stim", "word": "japan", "stimulus": "<p id=\"stim\">JAPAN</p>", "conditions": [18, 1200, "v", 18000], "internal_node_id": "0.0-18.0", "trial": 0, "time_elapsed": 306889, "serialpos": 6, "key_press": -1, "wordID": 748, "type": "PRES_VIS", "trial_index": 27}, "uniqueid": "MTK1698:3XLBSAQ9Z5JF00RMYRX5H9XEVJS7ZJ", "dateTime": 1516128678092}, {"current_trial": 28, "trialdata": {"rt": -1, "trial_type": "single-stim", "word": "lipstick", "stimulus": "<p id=\"stim\">LIPSTICK</p>", "conditions": [18, 1200, "v", 18000], "internal_node_id": "0.0-19.0", "trial": 0, "time_elapsed": 309061, "serialpos": 7, "key_press": -1, "wordID": 828, "type": "PRES_VIS", "trial_index": 28}, "uniqueid": "MTK1698:3XLBSAQ9Z5JF00RMYRX5H9XEVJS7ZJ", "dateTime": 1516128680264}, {"current_trial": 29, "trialdata": {"rt": -1, "trial_type": "single-stim", "word": "temple", "stimulus": "<p id=\"stim\">TEMPLE</p>", "conditions": [18, 1200, "v", 18000], "internal_node_id": "0.0-20.0", "trial": 0, "time_elapsed": 311457, "serialpos": 8, "key_press": -1, "wordID": 1447, "type": "PRES_VIS", "trial_index": 29}, "uniqueid": "MTK1698:3XLBSAQ9Z5JF00RMYRX5H9XEVJS7ZJ", "dateTime": 1516128682660}, {"current_trial": 30, "trialdata": {"rt": -1, "trial_type": "single-stim", "word": "breast", "stimulus": "<p id=\"stim\">BREAST</p>", "conditions": [18, 1200, "v", 18000], "internal_node_id": "0.0-21.0", "trial": 0, "time_elapsed": 313770, "serialpos": 9, "key_press": -1, "wordID": 170, "type": "PRES_VIS", "trial_index": 30}, "uniqueid": "MTK1698:3XLBSAQ9Z5JF00RMYRX5H9XEVJS7ZJ", "dateTime": 1516128684973}, {"current_trial": 31, "trialdata": {"rt": -1, "trial_type": "single-stim", "word": "basement", "stimulus": "<p id=\"stim\">BASEMENT</p>", "conditions": [18, 1200, "v", 18000], "internal_node_id": "0.0-22.0", "trial": 0, "time_elapsed": 316109, "serialpos": 10, "key_press": -1, "wordID": 93, "type": "PRES_VIS", "trial_index": 31}, "uniqueid": "MTK1698:3XLBSAQ9Z5JF00RMYRX5H9XEVJS7ZJ", "dateTime": 1516128687312}, {"current_trial": 32, "trialdata": {"rt": -1, "trial_type": "single-stim", "word": "luggage", "stimulus": "<p id=\"stim\">LUGGAGE</p>", "conditions": [18, 1200, "v", 18000], "internal_node_id": "0.0-23.0", "trial": 0, "time_elapsed": 318253, "serialpos": 11, "key_press": -1, "wordID": 846, "type": "PRES_VIS", "trial_index": 32}, "uniqueid": "MTK1698:3XLBSAQ9Z5JF00RMYRX5H9XEVJS7ZJ", "dateTime": 1516128689456}, {"current_trial": 33, "trialdata": {"rt": -1, "trial_type": "single-stim", "word": "tablet", "stimulus": "<p id=\"stim\">TABLET</p>", "conditions": [18, 1200, "v", 18000], "internal_node_id": "0.0-24.0", "trial": 0, "time_elapsed": 320646, "serialpos": 12, "key_press": -1, "wordID": 1426, "type": "PRES_VIS", "trial_index": 33}, "uniqueid": "MTK1698:3XLBSAQ9Z5JF00RMYRX5H9XEVJS7ZJ", "dateTime": 1516128691849}, {"current_trial": 34, "trialdata": {"rt": -1, "trial_type": "single-stim", "word": "cellar", "stimulus": "<p id=\"stim\">CELLAR</p>", "conditions": [18, 1200, "v", 18000], "internal_node_id": "0.0-25.0", "trial": 0, "time_elapsed": 322704, "serialpos": 13, "key_press": -1, "wordID": 266, "type": "PRES_VIS", "trial_index": 34}, "uniqueid": "MTK1698:3XLBSAQ9Z5JF00RMYRX5H9XEVJS7ZJ", "dateTime": 1516128693907}, {"current_trial": 35, "trialdata": {"rt": -1, "trial_type": "single-stim", "word": "guitar", "stimulus": "<p id=\"stim\">GUITAR</p>", "conditions": [18, 1200, "v", 18000], "internal_node_id": "0.0-26.0", "trial": 0, "time_elapsed": 324848, "serialpos": 14, "key_press": -1, "wordID": 669, "type": "PRES_VIS", "trial_index": 35}, "uniqueid": "MTK1698:3XLBSAQ9Z5JF00RMYRX5H9XEVJS7ZJ", "dateTime": 1516128696051}, {"current_trial": 36, "trialdata": {"rt": -1, "trial_type": "single-stim", "word": "sister", "stimulus": "<p id=\"stim\">SISTER</p>", "conditions": [18, 1200, "v", 18000], "internal_node_id": "0.0-27.0", "trial": 0, "time_elapsed": 327166, "serialpos": 15, "key_press": -1, "wordID": 1311, "type": "PRES_VIS", "trial_index": 36}, "uniqueid": "MTK1698:3XLBSAQ9Z5JF00RMYRX5H9XEVJS7ZJ", "dateTime": 1516128698369}, {"current_trial": 37, "trialdata": {"rt": -1, "trial_type": "single-stim", "word": "island", "stimulus": "<p id=\"stim\">ISLAND</p>", "conditions": [18, 1200, "v", 18000], "internal_node_id": "0.0-28.0", "trial": 0, "time_elapsed": 329265, "serialpos": 16, "key_press": -1, "wordID": 744, "type": "PRES_VIS", "trial_index": 37}, "uniqueid": "MTK1698:3XLBSAQ9Z5JF00RMYRX5H9XEVJS7ZJ", "dateTime": 1516128700468}, {"current_trial": 38, "trialdata": {"rt": -1, "trial_type": "single-stim", "word": "fireplace", "stimulus": "<p id=\"stim\">FIREPLACE</p>", "conditions": [18, 1200, "v", 18000], "internal_node_id": "0.0-29.0", "trial": 0, "time_elapsed": 331333, "serialpos": 17, "key_press": -1, "wordID": 569, "type": "PRES_VIS", "trial_index": 38}, "uniqueid": "MTK1698:3XLBSAQ9Z5JF00RMYRX5H9XEVJS7ZJ", "dateTime": 1516128702536}, {"current_trial": 39, "trialdata": {"rt": -1, "trial_type": "single-stim", "stimulus": "", "internal_node_id": "0.0-30.0-0.0", "time_elapsed": 333670, "key_press": -1, "type": "PRE_RECALL_DELAY", "trial_index": 39}, "uniqueid": "MTK1698:3XLBSAQ9Z5JF00RMYRX5H9XEVJS7ZJ", "dateTime": 1516128704873}, {"current_trial": 40, "trialdata": {"rt": -1000, "trial_type": "single-audio", "stimulus": "/static/audio/400Hz.wav", "internal_node_id": "0.0-31.0", "time_elapsed": 334172, "key_press": -1, "type": "PRE_RECALL_ALERT", "trial_index": 40}, "uniqueid": "MTK1698:3XLBSAQ9Z5JF00RMYRX5H9XEVJS7ZJ", "dateTime": 1516128705376}, {"current_trial": 41, "trialdata": {"rt": [5785, 9120, 12241, 28032], "recwords": ["luggage", "temple", "breast", ""], "key_times": [2305, 2649, 2969, 3144, 3465, 3929, 4081, 5785, 6697, 7009, 7321, 8201, 8489, 8697, 9120, 10273, 10529, 10841, 11049, 11280, 11664, 12241, 28032], "trial_type": "free-recall", "conditions": [18, 1200, "v", 18000], "internal_node_id": "0.0-32.0-0.0", "key_presses": [76, 85, 71, 71, 65, 71, 69, 13, 84, 69, 77, 80, 76, 69, 13, 66, 82, 69, 65, 83, 84, 13, 13], "trial": 0, "time_elapsed": 399152, "type": "FREE_RECALL", "trial_index": 41}, "uniqueid": "MTK1698:3XLBSAQ9Z5JF00RMYRX5H9XEVJS7ZJ", "dateTime": 1516128770357}, {"current_trial": 42, "trialdata": {"rt": 1957, "trial_type": "text", "internal_node_id": "0.0-33.0", "time_elapsed": 403116, "key_press": 32, "type": "INSTRUCTIONS", "trial_index": 42}, "uniqueid": "MTK1698:3XLBSAQ9Z5JF00RMYRX5H9XEVJS7ZJ", "dateTime": 1516128774319}, {"current_trial": 43, "trialdata": {"rt": [9742, 16631], "trial_type": "math-distractor", "key_times": [8239, 8294, 9742, 15791, 15895, 16631], "responses": ["12", "11"], "num2": [2, 1, 7], "num3": [2, 2, 8], "conditions": [18, 1200, "v", 18000], "internal_node_id": "0.0-34.0", "key_presses": [49, 50, 13, 49, 49, 13], "trial": 1, "time_elapsed": 423126, "type": "DISTRACTOR", "trial_index": 43, "num1": [8, 8, 4]}, "uniqueid": "MTK1698:3XLBSAQ9Z5JF00RMYRX5H9XEVJS7ZJ", "dateTime": 1516128794329}, {"current_trial": 44, "trialdata": {"rt": -1, "trial_type": "single-stim", "stimulus": "<p id=\"stim\">10</p>", "internal_node_id": "0.0-35.0-0.0", "time_elapsed": 426135, "key_press": -1, "trial_index": 44}, "uniqueid": "MTK1698:3XLBSAQ9Z5JF00RMYRX5H9XEVJS7ZJ", "dateTime": 1516128797338}, {"current_trial": 45, "trialdata": {"rt": -1, "trial_type": "single-stim", "stimulus": "<p id=\"stim\">9</p>", "internal_node_id": "0.0-35.0-1.0", "time_elapsed": 427139, "key_press": -1, "trial_index": 45}, "uniqueid": "MTK1698:3XLBSAQ9Z5JF00RMYRX5H9XEVJS7ZJ", "dateTime": 1516128798342}, {"current_trial": 46, "trialdata": {"rt": -1, "trial_type": "single-stim", "stimulus": "<p id=\"stim\">8</p>", "internal_node_id": "0.0-35.0-2.0", "time_elapsed": 428143, "key_press": -1, "trial_index": 46}, "uniqueid": "MTK1698:3XLBSAQ9Z5JF00RMYRX5H9XEVJS7ZJ", "dateTime": 1516128799347}, {"current_trial": 47, "trialdata": {"rt": -1, "trial_type": "single-stim", "stimulus": "<p id=\"stim\">7</p>", "internal_node_id": "0.0-35.0-3.0", "time_elapsed": 429148, "key_press": -1, "trial_index": 47}, "uniqueid": "MTK1698:3XLBSAQ9Z5JF00RMYRX5H9XEVJS7ZJ", "dateTime": 1516128800351}, {"current_trial": 48, "trialdata": {"rt": -1, "trial_type": "single-stim", "stimulus": "<p id=\"stim\">6</p>", "internal_node_id": "0.0-35.0-4.0", "time_elapsed": 430151, "key_press": -1, "trial_index": 48}, "uniqueid": "MTK1698:3XLBSAQ9Z5JF00RMYRX5H9XEVJS7ZJ", "dateTime": 1516128801355}, {"current_trial": 49, "trialdata": {"rt": -1, "trial_type": "single-stim", "stimulus": "<p id=\"stim\">5</p>", "internal_node_id": "0.0-35.0-5.0", "time_elapsed": 431155, "key_press": -1, "trial_index": 49}, "uniqueid": "MTK1698:3XLBSAQ9Z5JF00RMYRX5H9XEVJS7ZJ", "dateTime": 1516128802359}, {"current_trial": 50, "trialdata": {"rt": -1, "trial_type": "single-stim", "stimulus": "<p id=\"stim\">4</p>", "internal_node_id": "0.0-35.0-6.0", "time_elapsed": 432160, "key_press": -1, "trial_index": 50}, "uniqueid": "MTK1698:3XLBSAQ9Z5JF00RMYRX5H9XEVJS7ZJ", "dateTime": 1516128803363}, {"current_trial": 51, "trialdata": {"rt": -1, "trial_type": "single-stim", "stimulus": "<p id=\"stim\">3</p>", "internal_node_id": "0.0-35.0-7.0", "time_elapsed": 433164, "key_press": -1, "trial_index": 51}, "uniqueid": "MTK1698:3XLBSAQ9Z5JF00RMYRX5H9XEVJS7ZJ", "dateTime": 1516128804367}, {"current_trial": 52, "trialdata": {"rt": -1, "trial_type": "single-stim", "stimulus": "<p id=\"stim\">2</p>", "internal_node_id": "0.0-35.0-8.0", "time_elapsed": 434168, "key_press": -1, "trial_index": 52}, "uniqueid": "MTK1698:3XLBSAQ9Z5JF00RMYRX5H9XEVJS7ZJ", "dateTime": 1516128805371}, {"current_trial": 53, "trialdata": {"rt": -1, "trial_type": "single-stim", "stimulus": "<p id=\"stim\">1</p>", "internal_node_id": "0.0-35.0-9.0", "time_elapsed": 435171, "key_press": -1, "trial_index": 53}, "uniqueid": "MTK1698:3XLBSAQ9Z5JF00RMYRX5H9XEVJS7ZJ", "dateTime": 1516128806374}, {"current_trial": 54, "trialdata": {"rt": -1, "trial_type": "single-stim", "stimulus": "<p id=\"stim\">+</p>", "internal_node_id": "0.0-36.0-0.0", "time_elapsed": 436675, "key_press": -1, "type": "FIXATION", "trial_index": 54}, "uniqueid": "MTK1698:3XLBSAQ9Z5JF00RMYRX5H9XEVJS7ZJ", "dateTime": 1516128807878}, {"current_trial": 55, "trialdata": {"rt": -1, "trial_type": "single-stim", "word": "marrow", "stimulus": "<p id=\"stim\">MARROW</p>", "conditions": [18, 1200, "v", 18000], "internal_node_id": "0.0-37.0", "trial": 1, "time_elapsed": 437879, "serialpos": 0, "key_press": -1, "wordID": 871, "type": "PRES_VIS", "trial_index": 55}, "uniqueid": "MTK1698:3XLBSAQ9Z5JF00RMYRX5H9XEVJS7ZJ", "dateTime": 1516128809082}, {"current_trial": 56, "trialdata": {"rt": -1, "trial_type": "single-stim", "word": "kleenex", "stimulus": "<p id=\"stim\">KLEENEX</p>", "conditions": [18, 1200, "v", 18000], "internal_node_id": "0.0-38.0", "trial": 1, "time_elapsed": 440128, "serialpos": 1, "key_press": -1, "wordID": 781, "type": "PRES_VIS", "trial_index": 56}, "uniqueid": "MTK1698:3XLBSAQ9Z5JF00RMYRX5H9XEVJS7ZJ", "dateTime": 1516128811332}, {"current_trial": 57, "trialdata": {"rt": -1, "trial_type": "single-stim", "word": "church", "stimulus": "<p id=\"stim\">CHURCH</p>", "conditions": [18, 1200, "v", 18000], "internal_node_id": "0.0-39.0", "trial": 1, "time_elapsed": 442351, "serialpos": 2, "key_press": -1, "wordID": 306, "type": "PRES_VIS", "trial_index": 57}, "uniqueid": "MTK1698:3XLBSAQ9Z5JF00RMYRX5H9XEVJS7ZJ", "dateTime": 1516128813554}, {"current_trial": 58, "trialdata": {"rt": -1, "trial_type": "single-stim", "word": "harp", "stimulus": "<p id=\"stim\">HARP</p>", "conditions": [18, 1200, "v", 18000], "internal_node_id": "0.0-40.0", "trial": 1, "time_elapsed": 444699, "serialpos": 3, "key_press": -1, "wordID": 688, "type": "PRES_VIS", "trial_index": 58}, "uniqueid": "MTK1698:3XLBSAQ9Z5JF00RMYRX5H9XEVJS7ZJ", "dateTime": 1516128815902}, {"current_trial": 59, "trialdata": {"rt": -1, "trial_type": "single-stim", "word": "piston", "stimulus": "<p id=\"stim\">PISTON</p>", "conditions": [18, 1200, "v", 18000], "internal_node_id": "0.0-41.0", "trial": 1, "time_elapsed": 446739, "serialpos": 4, "key_press": -1, "wordID": 1075, "type": "PRES_VIS", "trial_index": 59}, "uniqueid": "MTK1698:3XLBSAQ9Z5JF00RMYRX5H9XEVJS7ZJ", "dateTime": 1516128817942}, {"current_trial": 60, "trialdata": {"rt": -1, "trial_type": "single-stim", "word": "report", "stimulus": "<p id=\"stim\">REPORT</p>", "conditions": [18, 1200, "v", 18000], "internal_node_id": "0.0-42.0", "trial": 1, "time_elapsed": 449080, "serialpos": 5, "key_press": -1, "wordID": 1183, "type": "PRES_VIS", "trial_index": 60}, "uniqueid": "MTK1698:3XLBSAQ9Z5JF00RMYRX5H9XEVJS7ZJ", "dateTime": 1516128820283}, {"current_trial": 61, "trialdata": {"rt": -1, "trial_type": "single-stim", "word": "bug", "stimulus": "<p id=\"stim\">BUG</p>", "conditions": [18, 1200, "v", 18000], "internal_node_id": "0.0-43.0", "trial": 1, "time_elapsed": 451449, "serialpos": 6, "key_press": -1, "wordID": 186, "type": "PRES_VIS", "trial_index": 61}, "uniqueid": "MTK1698:3XLBSAQ9Z5JF00RMYRX5H9XEVJS7ZJ", "dateTime": 1516128822652}, {"current_trial": 62, "trialdata": {"rt": -1, "trial_type": "single-stim", "word": "skirt", "stimulus": "<p id=\"stim\">SKIRT</p>", "conditions": [18, 1200, "v", 18000], "internal_node_id": "0.0-44.0", "trial": 1, "time_elapsed": 453735, "serialpos": 7, "key_press": -1, "wordID": 1318, "type": "PRES_VIS", "trial_index": 62}, "uniqueid": "MTK1698:3XLBSAQ9Z5JF00RMYRX5H9XEVJS7ZJ", "dateTime": 1516128824938}, {"current_trial": 63, "trialdata": {"rt": -1, "trial_type": "single-stim", "word": "waiter", "stimulus": "<p id=\"stim\">WAITER</p>", "conditions": [18, 1200, "v", 18000], "internal_node_id": "0.0-45.0", "trial": 1, "time_elapsed": 455872, "serialpos": 8, "key_press": -1, "wordID": 1579, "type": "PRES_VIS", "trial_index": 63}, "uniqueid": "MTK1698:3XLBSAQ9Z5JF00RMYRX5H9XEVJS7ZJ", "dateTime": 1516128827075}, {"current_trial": 64, "trialdata": {"rt": -1, "trial_type": "single-stim", "word": "river", "stimulus": "<p id=\"stim\">RIVER</p>", "conditions": [18, 1200, "v", 18000], "internal_node_id": "0.0-46.0", "trial": 1, "time_elapsed": 458126, "serialpos": 9, "key_press": -1, "wordID": 1193, "type": "PRES_VIS", "trial_index": 64}, "uniqueid": "MTK1698:3XLBSAQ9Z5JF00RMYRX5H9XEVJS7ZJ", "dateTime": 1516128829329}, {"current_trial": 65, "trialdata": {"rt": -1, "trial_type": "single-stim", "word": "coffee", "stimulus": "<p id=\"stim\">COFFEE</p>", "conditions": [18, 1200, "v", 18000], "internal_node_id": "0.0-47.0", "trial": 1, "time_elapsed": 460331, "serialpos": 10, "key_press": -1, "wordID": 340, "type": "PRES_VIS", "trial_index": 65}, "uniqueid": "MTK1698:3XLBSAQ9Z5JF00RMYRX5H9XEVJS7ZJ", "dateTime": 1516128831534}, {"current_trial": 66, "trialdata": {"rt": -1, "trial_type": "single-stim", "word": "salad", "stimulus": "<p id=\"stim\">SALAD</p>", "conditions": [18, 1200, "v", 18000], "internal_node_id": "0.0-48.0", "trial": 1, "time_elapsed": 462492, "serialpos": 11, "key_press": -1, "wordID": 1223, "type": "PRES_VIS", "trial_index": 66}, "uniqueid": "MTK1698:3XLBSAQ9Z5JF00RMYRX5H9XEVJS7ZJ", "dateTime": 1516128833695}, {"current_trial": 67, "trialdata": {"rt": -1, "trial_type": "single-stim", "word": "space", "stimulus": "<p id=\"stim\">SPACE</p>", "conditions": [18, 1200, "v", 18000], "internal_node_id": "0.0-49.0", "trial": 1, "time_elapsed": 464589, "serialpos": 12, "key_press": -1, "wordID": 1344, "type": "PRES_VIS", "trial_index": 67}, "uniqueid": "MTK1698:3XLBSAQ9Z5JF00RMYRX5H9XEVJS7ZJ", "dateTime": 1516128835792}, {"current_trial": 68, "trialdata": {"rt": -1, "trial_type": "single-stim", "word": "jello", "stimulus": "<p id=\"stim\">JELLO</p>", "conditions": [18, 1200, "v", 18000], "internal_node_id": "0.0-50.0", "trial": 1, "time_elapsed": 466670, "serialpos": 13, "key_press": -1, "wordID": 753, "type": "PRES_VIS", "trial_index": 68}, "uniqueid": "MTK1698:3XLBSAQ9Z5JF00RMYRX5H9XEVJS7ZJ", "dateTime": 1516128837874}, {"current_trial": 69, "trialdata": {"rt": -1, "trial_type": "single-stim", "word": "pimple", "stimulus": "<p id=\"stim\">PIMPLE</p>", "conditions": [18, 1200, "v", 18000], "internal_node_id": "0.0-51.0", "trial": 1, "time_elapsed": 469046, "serialpos": 14, "key_press": -1, "wordID": 1070, "type": "PRES_VIS", "trial_index": 69}, "uniqueid": "MTK1698:3XLBSAQ9Z5JF00RMYRX5H9XEVJS7ZJ", "dateTime": 1516128840249}, {"current_trial": 70, "trialdata": {"rt": -1, "trial_type": "single-stim", "word": "package", "stimulus": "<p id=\"stim\">PACKAGE</p>", "conditions": [18, 1200, "v", 18000], "internal_node_id": "0.0-52.0", "trial": 1, "time_elapsed": 471302, "serialpos": 15, "key_press": -1, "wordID": 996, "type": "PRES_VIS", "trial_index": 70}, "uniqueid": "MTK1698:3XLBSAQ9Z5JF00RMYRX5H9XEVJS7ZJ", "dateTime": 1516128842505}, {"current_trial": 71, "trialdata": {"rt": -1, "trial_type": "single-stim", "word": "couch", "stimulus": "<p id=\"stim\">COUCH</p>", "conditions": [18, 1200, "v", 18000], "internal_node_id": "0.0-53.0", "trial": 1, "time_elapsed": 473387, "serialpos": 16, "key_press": -1, "wordID": 385, "type": "PRES_VIS", "trial_index": 71}, "uniqueid": "MTK1698:3XLBSAQ9Z5JF00RMYRX5H9XEVJS7ZJ", "dateTime": 1516128844591}, {"current_trial": 72, "trialdata": {"rt": -1, "trial_type": "single-stim", "word": "chipmunk", "stimulus": "<p id=\"stim\">CHIPMUNK</p>", "conditions": [18, 1200, "v", 18000], "internal_node_id": "0.0-54.0", "trial": 1, "time_elapsed": 475706, "serialpos": 17, "key_press": -1, "wordID": 303, "type": "PRES_VIS", "trial_index": 72}, "uniqueid": "MTK1698:3XLBSAQ9Z5JF00RMYRX5H9XEVJS7ZJ", "dateTime": 1516128846909}, {"current_trial": 73, "trialdata": {"rt": -1, "trial_type": "single-stim", "stimulus": "", "internal_node_id": "0.0-55.0-0.0", "time_elapsed": 477807, "key_press": -1, "type": "PRE_RECALL_DELAY", "trial_index": 73}, "uniqueid": "MTK1698:3XLBSAQ9Z5JF00RMYRX5H9XEVJS7ZJ", "dateTime": 1516128849010}, {"current_trial": 74, "trialdata": {"rt": -1000, "trial_type": "single-audio", "stimulus": "/static/audio/400Hz.wav", "internal_node_id": "0.0-56.0", "time_elapsed": 478309, "key_press": -1, "type": "PRE_RECALL_ALERT", "trial_index": 74}, "uniqueid": "MTK1698:3XLBSAQ9Z5JF00RMYRX5H9XEVJS7ZJ", "dateTime": 1516128849512}, {"current_trial": 75, "trialdata": {"rt": [5610, 7433, 10265, 14393], "recwords": ["bug", "marrow", "coffee", "river"], "key_times": [1578, 2897, 4458, 4459, 4465, 5610, 6145, 6289, 6633, 6793, 6945, 7073, 7433, 7865, 8137, 8545, 8705, 9273, 9769, 10265, 10769, 10977, 11914, 12265, 12441, 14393, 17935, 18247, 18544, 18695, 18976, 19088, 21167, 21671, 21757, 21845, 21932, 22018, 22117, 22191, 22278, 22365, 22452, 22539], "trial_type": "free-recall", "conditions": [18, 1200, "v", 18000], "internal_node_id": "0.0-57.0-0.0", "key_presses": [82, 8, 66, 85, 71, 13, 77, 65, 82, 82, 79, 87, 13, 67, 79, 70, 70, 69, 69, 13, 82, 73, 86, 69, 82, 13, 77, 69, 76, 76, 79, 87, 8, 8, 8, 8, 8, 8, 8, 8, 8, 8, 8, 8], "trial": 1, "time_elapsed": 538316, "type": "FREE_RECALL", "trial_index": 75}, "uniqueid": "MTK1698:3XLBSAQ9Z5JF00RMYRX5H9XEVJS7ZJ", "dateTime": 1516128909521}, {"current_trial": 76, "trialdata": {"rt": 2059, "trial_type": "text", "internal_node_id": "0.0-58.0", "time_elapsed": 542384, "key_press": 32, "type": "INSTRUCTIONS", "trial_index": 76}, "uniqueid": "MTK1698:3XLBSAQ9Z5JF00RMYRX5H9XEVJS7ZJ", "dateTime": 1516128913588}, {"current_trial": 77, "trialdata": {"rt": [9820, 18025, 23210], "trial_type": "math-distractor", "key_times": [7987, 8339, 9820, 15761, 16977, 18025, 22074, 22585, 23210], "responses": ["24", "20", "16"], "num2": [8, 6, 1, 9], "num3": [9, 7, 8, 1], "conditions": [12, 800, "v", 24000], "internal_node_id": "0.0-59.0", "key_presses": [50, 52, 13, 50, 48, 13, 49, 54, 13], "trial": 2, "time_elapsed": 567394, "type": "DISTRACTOR", "trial_index": 77, "num1": [7, 7, 7, 9]}, "uniqueid": "MTK1698:3XLBSAQ9Z5JF00RMYRX5H9XEVJS7ZJ", "dateTime": 1516128938598}, {"current_trial": 78, "trialdata": {"rt": -1, "trial_type": "single-stim", "stimulus": "<p id=\"stim\">10</p>", "internal_node_id": "0.0-60.0-0.0", "time_elapsed": 570403, "key_press": -1, "trial_index": 78}, "uniqueid": "MTK1698:3XLBSAQ9Z5JF00RMYRX5H9XEVJS7ZJ", "dateTime": 1516128941606}, {"current_trial": 79, "trialdata": {"rt": -1, "trial_type": "single-stim", "stimulus": "<p id=\"stim\">9</p>", "internal_node_id": "0.0-60.0-1.0", "time_elapsed": 571405, "key_press": -1, "trial_index": 79}, "uniqueid": "MTK1698:3XLBSAQ9Z5JF00RMYRX5H9XEVJS7ZJ", "dateTime": 1516128942608}, {"current_trial": 80, "trialdata": {"rt": -1, "trial_type": "single-stim", "stimulus": "<p id=\"stim\">8</p>", "internal_node_id": "0.0-60.0-2.0", "time_elapsed": 572409, "key_press": -1, "trial_index": 80}, "uniqueid": "MTK1698:3XLBSAQ9Z5JF00RMYRX5H9XEVJS7ZJ", "dateTime": 1516128943612}, {"current_trial": 81, "trialdata": {"rt": -1, "trial_type": "single-stim", "stimulus": "<p id=\"stim\">7</p>", "internal_node_id": "0.0-60.0-3.0", "time_elapsed": 573413, "key_press": -1, "trial_index": 81}, "uniqueid": "MTK1698:3XLBSAQ9Z5JF00RMYRX5H9XEVJS7ZJ", "dateTime": 1516128944616}, {"current_trial": 82, "trialdata": {"rt": -1, "trial_type": "single-stim", "stimulus": "<p id=\"stim\">6</p>", "internal_node_id": "0.0-60.0-4.0", "time_elapsed": 574419, "key_press": -1, "trial_index": 82}, "uniqueid": "MTK1698:3XLBSAQ9Z5JF00RMYRX5H9XEVJS7ZJ", "dateTime": 1516128945622}, {"current_trial": 83, "trialdata": {"rt": -1, "trial_type": "single-stim", "stimulus": "<p id=\"stim\">5</p>", "internal_node_id": "0.0-60.0-5.0", "time_elapsed": 575425, "key_press": -1, "trial_index": 83}, "uniqueid": "MTK1698:3XLBSAQ9Z5JF00RMYRX5H9XEVJS7ZJ", "dateTime": 1516128946628}, {"current_trial": 84, "trialdata": {"rt": -1, "trial_type": "single-stim", "stimulus": "<p id=\"stim\">4</p>", "internal_node_id": "0.0-60.0-6.0", "time_elapsed": 576430, "key_press": -1, "trial_index": 84}, "uniqueid": "MTK1698:3XLBSAQ9Z5JF00RMYRX5H9XEVJS7ZJ", "dateTime": 1516128947633}, {"current_trial": 85, "trialdata": {"rt": -1, "trial_type": "single-stim", "stimulus": "<p id=\"stim\">3</p>", "internal_node_id": "0.0-60.0-7.0", "time_elapsed": 577435, "key_press": -1, "trial_index": 85}, "uniqueid": "MTK1698:3XLBSAQ9Z5JF00RMYRX5H9XEVJS7ZJ", "dateTime": 1516128948638}, {"current_trial": 86, "trialdata": {"rt": -1, "trial_type": "single-stim", "stimulus": "<p id=\"stim\">2</p>", "internal_node_id": "0.0-60.0-8.0", "time_elapsed": 578439, "key_press": -1, "trial_index": 86}, "uniqueid": "MTK1698:3XLBSAQ9Z5JF00RMYRX5H9XEVJS7ZJ", "dateTime": 1516128949642}, {"current_trial": 87, "trialdata": {"rt": -1, "trial_type": "single-stim", "stimulus": "<p id=\"stim\">1</p>", "internal_node_id": "0.0-60.0-9.0", "time_elapsed": 579443, "key_press": -1, "trial_index": 87}, "uniqueid": "MTK1698:3XLBSAQ9Z5JF00RMYRX5H9XEVJS7ZJ", "dateTime": 1516128950646}, {"current_trial": 88, "trialdata": {"rt": -1, "trial_type": "single-stim", "stimulus": "<p id=\"stim\">+</p>", "internal_node_id": "0.0-61.0-0.0", "time_elapsed": 580947, "key_press": -1, "type": "FIXATION", "trial_index": 88}, "uniqueid": "MTK1698:3XLBSAQ9Z5JF00RMYRX5H9XEVJS7ZJ", "dateTime": 1516128952150}, {"current_trial": 89, "trialdata": {"rt": -1, "trial_type": "single-stim", "word": "glass", "stimulus": "<p id=\"stim\">GLASS</p>", "conditions": [12, 800, "v", 24000], "internal_node_id": "0.0-62.0", "trial": 2, "time_elapsed": 581752, "serialpos": 0, "key_press": -1, "wordID": 638, "type": "PRES_VIS", "trial_index": 89}, "uniqueid": "MTK1698:3XLBSAQ9Z5JF00RMYRX5H9XEVJS7ZJ", "dateTime": 1516128952955}, {"current_trial": 90, "trialdata": {"rt": -1, "trial_type": "single-stim", "word": "knife", "stimulus": "<p id=\"stim\">KNIFE</p>", "conditions": [12, 800, "v", 24000], "internal_node_id": "0.0-63.0", "trial": 2, "time_elapsed": 583754, "serialpos": 1, "key_press": -1, "wordID": 784, "type": "PRES_VIS", "trial_index": 90}, "uniqueid": "MTK1698:3XLBSAQ9Z5JF00RMYRX5H9XEVJS7ZJ", "dateTime": 1516128954957}, {"current_trial": 91, "trialdata": {"rt": -1, "trial_type": "single-stim", "word": "seagull", "stimulus": "<p id=\"stim\">SEAGULL</p>", "conditions": [12, 800, "v", 24000], "internal_node_id": "0.0-64.0", "trial": 2, "time_elapsed": 585478, "serialpos": 2, "key_press": -1, "wordID": 1260, "type": "PRES_VIS", "trial_index": 91}, "uniqueid": "MTK1698:3XLBSAQ9Z5JF00RMYRX5H9XEVJS7ZJ", "dateTime": 1516128956681}, {"current_trial": 92, "trialdata": {"rt": -1, "trial_type": "single-stim", "word": "tourist", "stimulus": "<p id=\"stim\">TOURIST</p>", "conditions": [12, 800, "v", 24000], "internal_node_id": "0.0-65.0", "trial": 2, "time_elapsed": 587148, "serialpos": 3, "key_press": -1, "wordID": 1487, "type": "PRES_VIS", "trial_index": 92}, "uniqueid": "MTK1698:3XLBSAQ9Z5JF00RMYRX5H9XEVJS7ZJ", "dateTime": 1516128958351}, {"current_trial": 93, "trialdata": {"rt": -1, "trial_type": "single-stim", "word": "ointment", "stimulus": "<p id=\"stim\">OINTMENT</p>", "conditions": [12, 800, "v", 24000], "internal_node_id": "0.0-66.0", "trial": 2, "time_elapsed": 589124, "serialpos": 4, "key_press": -1, "wordID": 973, "type": "PRES_VIS", "trial_index": 93}, "uniqueid": "MTK1698:3XLBSAQ9Z5JF00RMYRX5H9XEVJS7ZJ", "dateTime": 1516128960327}, {"current_trial": 94, "trialdata": {"rt": -1, "trial_type": "single-stim", "word": "tombstone", "stimulus": "<p id=\"stim\">TOMBSTONE</p>", "conditions": [12, 800, "v", 24000], "internal_node_id": "0.0-67.0", "trial": 2, "time_elapsed": 590777, "serialpos": 5, "key_press": -1, "wordID": 1477, "type": "PRES_VIS", "trial_index": 94}, "uniqueid": "MTK1698:3XLBSAQ9Z5JF00RMYRX5H9XEVJS7ZJ", "dateTime": 1516128961980}, {"current_trial": 95, "trialdata": {"rt": -1, "trial_type": "single-stim", "word": "casket", "stimulus": "<p id=\"stim\">CASKET</p>", "conditions": [12, 800, "v", 24000], "internal_node_id": "0.0-68.0", "trial": 2, "time_elapsed": 592502, "serialpos": 6, "key_press": -1, "wordID": 254, "type": "PRES_VIS", "trial_index": 95}, "uniqueid": "MTK1698:3XLBSAQ9Z5JF00RMYRX5H9XEVJS7ZJ", "dateTime": 1516128963705}, {"current_trial": 96, "trialdata": {"rt": -1, "trial_type": "single-stim", "word": "scissors", "stimulus": "<p id=\"stim\">SCISSORS</p>", "conditions": [12, 800, "v", 24000], "internal_node_id": "0.0-69.0", "trial": 2, "time_elapsed": 594302, "serialpos": 7, "key_press": -1, "wordID": 1249, "type": "PRES_VIS", "trial_index": 96}, "uniqueid": "MTK1698:3XLBSAQ9Z5JF00RMYRX5H9XEVJS7ZJ", "dateTime": 1516128965505}, {"current_trial": 97, "trialdata": {"rt": -1, "trial_type": "single-stim", "word": "atom", "stimulus": "<p id=\"stim\">ATOM</p>", "conditions": [12, 800, "v", 24000], "internal_node_id": "0.0-70.0", "trial": 2, "time_elapsed": 595996, "serialpos": 8, "key_press": -1, "wordID": 54, "type": "PRES_VIS", "trial_index": 97}, "uniqueid": "MTK1698:3XLBSAQ9Z5JF00RMYRX5H9XEVJS7ZJ", "dateTime": 1516128967199}, {"current_trial": 98, "trialdata": {"rt": -1, "trial_type": "single-stim", "word": "cowboy", "stimulus": "<p id=\"stim\">COWBOY</p>", "conditions": [12, 800, "v", 24000], "internal_node_id": "0.0-71.0", "trial": 2, "time_elapsed": 597836, "serialpos": 9, "key_press": -1, "wordID": 394, "type": "PRES_VIS", "trial_index": 98}, "uniqueid": "MTK1698:3XLBSAQ9Z5JF00RMYRX5H9XEVJS7ZJ", "dateTime": 1516128969039}, {"current_trial": 99, "trialdata": {"rt": -1, "trial_type": "single-stim", "word": "fragrance", "stimulus": "<p id=\"stim\">FRAGRANCE</p>", "conditions": [12, 800, "v", 24000], "internal_node_id": "0.0-72.0", "trial": 2, "time_elapsed": 599668, "serialpos": 10, "key_press": -1, "wordID": 598, "type": "PRES_VIS", "trial_index": 99}, "uniqueid": "MTK1698:3XLBSAQ9Z5JF00RMYRX5H9XEVJS7ZJ", "dateTime": 1516128970872}, {"current_trial": 100, "trialdata": {"rt": -1, "trial_type": "single-stim", "word": "convict", "stimulus": "<p id=\"stim\">CONVICT</p>", "conditions": [12, 800, "v", 24000], "internal_node_id": "0.0-73.0", "trial": 2, "time_elapsed": 601620, "serialpos": 11, "key_press": -1, "wordID": 370, "type": "PRES_VIS", "trial_index": 100}, "uniqueid": "MTK1698:3XLBSAQ9Z5JF00RMYRX5H9XEVJS7ZJ", "dateTime": 1516128972823}, {"current_trial": 101, "trialdata": {"rt": -1, "trial_type": "single-stim", "stimulus": "", "internal_node_id": "0.0-74.0-0.0", "time_elapsed": 604018, "key_press": -1, "type": "PRE_RECALL_DELAY", "trial_index": 101}, "uniqueid": "MTK1698:3XLBSAQ9Z5JF00RMYRX5H9XEVJS7ZJ", "dateTime": 1516128975221}, {"current_trial": 102, "trialdata": {"rt": -1000, "trial_type": "single-audio", "stimulus": "/static/audio/400Hz.wav", "internal_node_id": "0.0-75.0", "time_elapsed": 604520, "key_press": -1, "type": "PRE_RECALL_ALERT", "trial_index": 102}, "uniqueid": "MTK1698:3XLBSAQ9Z5JF00RMYRX5H9XEVJS7ZJ", "dateTime": 1516128975723}, {"current_trial": 103, "trialdata": {"rt": [2652, 7308, 13085, 17059, 24163], "recwords": ["glass", "knife", "tombstone", "coffin", "sissor"], "key_times": [1316, 1484, 1740, 2036, 2220, 2652, 3620, 4172, 4548, 4748, 4972, 6132, 6733, 7308, 7796, 8036, 8372, 8876, 9252, 9592, 9732, 9876, 10084, 13085, 15668, 15851, 16108, 16292, 16476, 16636, 17059, 19807, 20049, 20667, 20843, 21075, 21227, 22019, 22204, 22843, 23132, 24163], "trial_type": "free-recall", "conditions": [12, 800, "v", 24000], "internal_node_id": "0.0-76.0-0.0", "key_presses": [71, 76, 65, 83, 83, 13, 84, 8, 75, 78, 73, 70, 69, 13, 84, 79, 77, 66, 83, 84, 79, 78, 69, 13, 67, 79, 70, 70, 73, 78, 13, 83, 73, 83, 83, 80, 82, 8, 8, 79, 82, 13], "trial": 2, "time_elapsed": 664524, "type": "FREE_RECALL", "trial_index": 103}, "uniqueid": "MTK1698:3XLBSAQ9Z5JF00RMYRX5H9XEVJS7ZJ", "dateTime": 1516129035728}, {"current_trial": 104, "trialdata": {"rt": 2764, "trial_type": "text", "internal_node_id": "0.0-77.0", "time_elapsed": 669294, "key_press": 32, "type": "INSTRUCTIONS", "trial_index": 104}, "uniqueid": "MTK1698:3XLBSAQ9Z5JF00RMYRX5H9XEVJS7ZJ", "dateTime": 1516129040497}, {"current_trial": 105, "trialdata": {"rt": [], "trial_type": "math-distractor", "key_times": [6083], "responses": [], "num2": [3], "num3": [4], "conditions": [24, 1600, "v", 24000], "internal_node_id": "0.0-78.0", "key_presses": [57], "trial": 3, "time_elapsed": 695303, "type": "DISTRACTOR", "trial_index": 105, "num1": [2]}, "uniqueid": "MTK1698:3XLBSAQ9Z5JF00RMYRX5H9XEVJS7ZJ", "dateTime": 1516129066506}, {"current_trial": 106, "trialdata": {"rt": -1, "trial_type": "single-stim", "stimulus": "<p id=\"stim\">10</p>", "internal_node_id": "0.0-79.0-0.0", "time_elapsed": 698312, "key_press": -1, "trial_index": 106}, "uniqueid": "MTK1698:3XLBSAQ9Z5JF00RMYRX5H9XEVJS7ZJ", "dateTime": 1516129069516}, {"current_trial": 107, "trialdata": {"rt": -1, "trial_type": "single-stim", "stimulus": "<p id=\"stim\">9</p>", "internal_node_id": "0.0-79.0-1.0", "time_elapsed": 699318, "key_press": -1, "trial_index": 107}, "uniqueid": "MTK1698:3XLBSAQ9Z5JF00RMYRX5H9XEVJS7ZJ", "dateTime": 1516129070521}, {"current_trial": 108, "trialdata": {"rt": -1, "trial_type": "single-stim", "stimulus": "<p id=\"stim\">8</p>", "internal_node_id": "0.0-79.0-2.0", "time_elapsed": 700322, "key_press": -1, "trial_index": 108}, "uniqueid": "MTK1698:3XLBSAQ9Z5JF00RMYRX5H9XEVJS7ZJ", "dateTime": 1516129071525}, {"current_trial": 109, "trialdata": {"rt": -1, "trial_type": "single-stim", "stimulus": "<p id=\"stim\">7</p>", "internal_node_id": "0.0-79.0-3.0", "time_elapsed": 701326, "key_press": -1, "trial_index": 109}, "uniqueid": "MTK1698:3XLBSAQ9Z5JF00RMYRX5H9XEVJS7ZJ", "dateTime": 1516129072529}, {"current_trial": 110, "trialdata": {"rt": -1, "trial_type": "single-stim", "stimulus": "<p id=\"stim\">6</p>", "internal_node_id": "0.0-79.0-4.0", "time_elapsed": 702330, "key_press": -1, "trial_index": 110}, "uniqueid": "MTK1698:3XLBSAQ9Z5JF00RMYRX5H9XEVJS7ZJ", "dateTime": 1516129073533}, {"current_trial": 111, "trialdata": {"rt": -1, "trial_type": "single-stim", "stimulus": "<p id=\"stim\">5</p>", "internal_node_id": "0.0-79.0-5.0", "time_elapsed": 703333, "key_press": -1, "trial_index": 111}, "uniqueid": "MTK1698:3XLBSAQ9Z5JF00RMYRX5H9XEVJS7ZJ", "dateTime": 1516129074536}, {"current_trial": 112, "trialdata": {"rt": -1, "trial_type": "single-stim", "stimulus": "<p id=\"stim\">4</p>", "internal_node_id": "0.0-79.0-6.0", "time_elapsed": 704339, "key_press": -1, "trial_index": 112}, "uniqueid": "MTK1698:3XLBSAQ9Z5JF00RMYRX5H9XEVJS7ZJ", "dateTime": 1516129075542}, {"current_trial": 113, "trialdata": {"rt": -1, "trial_type": "single-stim", "stimulus": "<p id=\"stim\">3</p>", "internal_node_id": "0.0-79.0-7.0", "time_elapsed": 705342, "key_press": -1, "trial_index": 113}, "uniqueid": "MTK1698:3XLBSAQ9Z5JF00RMYRX5H9XEVJS7ZJ", "dateTime": 1516129076545}, {"current_trial": 114, "trialdata": {"rt": -1, "trial_type": "single-stim", "stimulus": "<p id=\"stim\">2</p>", "internal_node_id": "0.0-79.0-8.0", "time_elapsed": 706347, "key_press": -1, "trial_index": 114}, "uniqueid": "MTK1698:3XLBSAQ9Z5JF00RMYRX5H9XEVJS7ZJ", "dateTime": 1516129077550}, {"current_trial": 115, "trialdata": {"rt": -1, "trial_type": "single-stim", "stimulus": "<p id=\"stim\">1</p>", "internal_node_id": "0.0-79.0-9.0", "time_elapsed": 707352, "key_press": -1, "trial_index": 115}, "uniqueid": "MTK1698:3XLBSAQ9Z5JF00RMYRX5H9XEVJS7ZJ", "dateTime": 1516129078555}, {"current_trial": 116, "trialdata": {"rt": -1, "trial_type": "single-stim", "stimulus": "<p id=\"stim\">+</p>", "internal_node_id": "0.0-80.0-0.0", "time_elapsed": 708857, "key_press": -1, "type": "FIXATION", "trial_index": 116}, "uniqueid": "MTK1698:3XLBSAQ9Z5JF00RMYRX5H9XEVJS7ZJ", "dateTime": 1516129080060}, {"current_trial": 117, "trialdata": {"rt": -1, "trial_type": "single-stim", "word": "asia", "stimulus": "<p id=\"stim\">ASIA</p>", "conditions": [24, 1600, "v", 24000], "internal_node_id": "0.0-81.0", "trial": 3, "time_elapsed": 710463, "serialpos": 0, "key_press": -1, "wordID": 45, "type": "PRES_VIS", "trial_index": 117}, "uniqueid": "MTK1698:3XLBSAQ9Z5JF00RMYRX5H9XEVJS7ZJ", "dateTime": 1516129081666}, {"current_trial": 118, "trialdata": {"rt": -1, "trial_type": "single-stim", "word": "slime", "stimulus": "<p id=\"stim\">SLIME</p>", "conditions": [24, 1600, "v", 24000], "internal_node_id": "0.0-82.0", "trial": 3, "time_elapsed": 713132, "serialpos": 1, "key_press": -1, "wordID": 1326, "type": "PRES_VIS", "trial_index": 118}, "uniqueid": "MTK1698:3XLBSAQ9Z5JF00RMYRX5H9XEVJS7ZJ", "dateTime": 1516129084335}, {"current_trial": 119, "trialdata": {"rt": -1, "trial_type": "single-stim", "word": "chest", "stimulus": "<p id=\"stim\">CHEST</p>", "conditions": [24, 1600, "v", 24000], "internal_node_id": "0.0-83.0", "trial": 3, "time_elapsed": 715673, "serialpos": 2, "key_press": -1, "wordID": 294, "type": "PRES_VIS", "trial_index": 119}, "uniqueid": "MTK1698:3XLBSAQ9Z5JF00RMYRX5H9XEVJS7ZJ", "dateTime": 1516129086877}, {"current_trial": 120, "trialdata": {"rt": -1, "trial_type": "single-stim", "word": "parsley", "stimulus": "<p id=\"stim\">PARSLEY</p>", "conditions": [24, 1600, "v", 24000], "internal_node_id": "0.0-84.0", "trial": 3, "time_elapsed": 718287, "serialpos": 3, "key_press": -1, "wordID": 1015, "type": "PRES_VIS", "trial_index": 120}, "uniqueid": "MTK1698:3XLBSAQ9Z5JF00RMYRX5H9XEVJS7ZJ", "dateTime": 1516129089490}, {"current_trial": 121, "trialdata": {"rt": -1, "trial_type": "single-stim", "word": "onion", "stimulus": "<p id=\"stim\">ONION</p>", "conditions": [24, 1600, "v", 24000], "internal_node_id": "0.0-85.0", "trial": 3, "time_elapsed": 720902, "serialpos": 4, "key_press": -1, "wordID": 976, "type": "PRES_VIS", "trial_index": 121}, "uniqueid": "MTK1698:3XLBSAQ9Z5JF00RMYRX5H9XEVJS7ZJ", "dateTime": 1516129092105}, {"current_trial": 122, "trialdata": {"rt": -1, "trial_type": "single-stim", "word": "hero", "stimulus": "<p id=\"stim\">HERO</p>", "conditions": [24, 1600, "v", 24000], "internal_node_id": "0.0-86.0", "trial": 3, "time_elapsed": 723663, "serialpos": 5, "key_press": -1, "wordID": 705, "type": "PRES_VIS", "trial_index": 122}, "uniqueid": "MTK1698:3XLBSAQ9Z5JF00RMYRX5H9XEVJS7ZJ", "dateTime": 1516129094866}, {"current_trial": 123, "trialdata": {"rt": -1, "trial_type": "single-stim", "word": "salmon", "stimulus": "<p id=\"stim\">SALMON</p>", "conditions": [24, 1600, "v", 24000], "internal_node_id": "0.0-87.0", "trial": 3, "time_elapsed": 726377, "serialpos": 6, "key_press": -1, "wordID": 1226, "type": "PRES_VIS", "trial_index": 123}, "uniqueid": "MTK1698:3XLBSAQ9Z5JF00RMYRX5H9XEVJS7ZJ", "dateTime": 1516129097580}, {"current_trial": 124, "trialdata": {"rt": -1, "trial_type": "single-stim", "word": "canal", "stimulus": "<p id=\"stim\">CANAL</p>", "conditions": [24, 1600, "v", 24000], "internal_node_id": "0.0-88.0", "trial": 3, "time_elapsed": 729145, "serialpos": 7, "key_press": -1, "wordID": 225, "type": "PRES_VIS", "trial_index": 124}, "uniqueid": "MTK1698:3XLBSAQ9Z5JF00RMYRX5H9XEVJS7ZJ", "dateTime": 1516129100348}, {"current_trial": 125, "trialdata": {"rt": -1, "trial_type": "single-stim", "word": "bank", "stimulus": "<p id=\"stim\">BANK</p>", "conditions": [24, 1600, "v", 24000], "internal_node_id": "0.0-89.0", "trial": 3, "time_elapsed": 731912, "serialpos": 8, "key_press": -1, "wordID": 82, "type": "PRES_VIS", "trial_index": 125}, "uniqueid": "MTK1698:3XLBSAQ9Z5JF00RMYRX5H9XEVJS7ZJ", "dateTime": 1516129103116}, {"current_trial": 126, "trialdata": {"rt": -1, "trial_type": "single-stim", "word": "climber", "stimulus": "<p id=\"stim\">CLIMBER</p>", "conditions": [24, 1600, "v", 24000], "internal_node_id": "0.0-90.0", "trial": 3, "time_elapsed": 734674, "serialpos": 9, "key_press": -1, "wordID": 322, "type": "PRES_VIS", "trial_index": 126}, "uniqueid": "MTK1698:3XLBSAQ9Z5JF00RMYRX5H9XEVJS7ZJ", "dateTime": 1516129105877}, {"current_trial": 127, "trialdata": {"rt": -1, "trial_type": "single-stim", "word": "baby", "stimulus": "<p id=\"stim\">BABY</p>", "conditions": [24, 1600, "v", 24000], "internal_node_id": "0.0-91.0", "trial": 3, "time_elapsed": 737415, "serialpos": 10, "key_press": -1, "wordID": 63, "type": "PRES_VIS", "trial_index": 127}, "uniqueid": "MTK1698:3XLBSAQ9Z5JF00RMYRX5H9XEVJS7ZJ", "dateTime": 1516129108618}, {"current_trial": 128, "trialdata": {"rt": -1, "trial_type": "single-stim", "word": "trout", "stimulus": "<p id=\"stim\">TROUT</p>", "conditions": [24, 1600, "v", 24000], "internal_node_id": "0.0-92.0", "trial": 3, "time_elapsed": 740074, "serialpos": 11, "key_press": -1, "wordID": 1510, "type": "PRES_VIS", "trial_index": 128}, "uniqueid": "MTK1698:3XLBSAQ9Z5JF00RMYRX5H9XEVJS7ZJ", "dateTime": 1516129111277}, {"current_trial": 129, "trialdata": {"rt": -1, "trial_type": "single-stim", "word": "playground", "stimulus": "<p id=\"stim\">PLAYGROUND</p>", "conditions": [24, 1600, "v", 24000], "internal_node_id": "0.0-93.0", "trial": 3, "time_elapsed": 742705, "serialpos": 12, "key_press": -1, "wordID": 1086, "type": "PRES_VIS", "trial_index": 129}, "uniqueid": "MTK1698:3XLBSAQ9Z5JF00RMYRX5H9XEVJS7ZJ", "dateTime": 1516129113908}, {"current_trial": 130, "trialdata": {"rt": -1, "trial_type": "single-stim", "word": "child", "stimulus": "<p id=\"stim\">CHILD</p>", "conditions": [24, 1600, "v", 24000], "internal_node_id": "0.0-94.0", "trial": 3, "time_elapsed": 745128, "serialpos": 13, "key_press": -1, "wordID": 298, "type": "PRES_VIS", "trial_index": 130}, "uniqueid": "MTK1698:3XLBSAQ9Z5JF00RMYRX5H9XEVJS7ZJ", "dateTime": 1516129116331}, {"current_trial": 131, "trialdata": {"rt": -1, "trial_type": "single-stim", "word": "carrot", "stimulus": "<p id=\"stim\">CARROT</p>", "conditions": [24, 1600, "v", 24000], "internal_node_id": "0.0-95.0", "trial": 3, "time_elapsed": 747560, "serialpos": 14, "key_press": -1, "wordID": 248, "type": "PRES_VIS", "trial_index": 131}, "uniqueid": "MTK1698:3XLBSAQ9Z5JF00RMYRX5H9XEVJS7ZJ", "dateTime": 1516129118763}, {"current_trial": 132, "trialdata": {"rt": -1, "trial_type": "single-stim", "word": "picture", "stimulus": "<p id=\"stim\">PICTURE</p>", "conditions": [24, 1600, "v", 24000], "internal_node_id": "0.0-96.0", "trial": 3, "time_elapsed": 750024, "serialpos": 15, "key_press": -1, "wordID": 1060, "type": "PRES_VIS", "trial_index": 132}, "uniqueid": "MTK1698:3XLBSAQ9Z5JF00RMYRX5H9XEVJS7ZJ", "dateTime": 1516129121227}, {"current_trial": 133, "trialdata": {"rt": -1, "trial_type": "single-stim", "word": "pudding", "stimulus": "<p id=\"stim\">PUDDING</p>", "conditions": [24, 1600, "v", 24000], "internal_node_id": "0.0-97.0", "trial": 3, "time_elapsed": 752671, "serialpos": 16, "key_press": -1, "wordID": 1138, "type": "PRES_VIS", "trial_index": 133}, "uniqueid": "MTK1698:3XLBSAQ9Z5JF00RMYRX5H9XEVJS7ZJ", "dateTime": 1516129123874}, {"current_trial": 134, "trialdata": {"rt": -1, "trial_type": "single-stim", "word": "tart", "stimulus": "<p id=\"stim\">TART</p>", "conditions": [24, 1600, "v", 24000], "internal_node_id": "0.0-98.0", "trial": 3, "time_elapsed": 755157, "serialpos": 17, "key_press": -1, "wordID": 1435, "type": "PRES_VIS", "trial_index": 134}, "uniqueid": "MTK1698:3XLBSAQ9Z5JF00RMYRX5H9XEVJS7ZJ", "dateTime": 1516129126360}, {"current_trial": 135, "trialdata": {"rt": -1, "trial_type": "single-stim", "word": "portrait", "stimulus": "<p id=\"stim\">PORTRAIT</p>", "conditions": [24, 1600, "v", 24000], "internal_node_id": "0.0-99.0", "trial": 3, "time_elapsed": 757937, "serialpos": 18, "key_press": -1, "wordID": 1110, "type": "PRES_VIS", "trial_index": 135}, "uniqueid": "MTK1698:3XLBSAQ9Z5JF00RMYRX5H9XEVJS7ZJ", "dateTime": 1516129129140}, {"current_trial": 136, "trialdata": {"rt": -1, "trial_type": "single-stim", "word": "suitcase", "stimulus": "<p id=\"stim\">SUITCASE</p>", "conditions": [24, 1600, "v", 24000], "internal_node_id": "0.0-100.0", "trial": 3, "time_elapsed": 760558, "serialpos": 19, "key_press": -1, "wordID": 1402, "type": "PRES_VIS", "trial_index": 136}, "uniqueid": "MTK1698:3XLBSAQ9Z5JF00RMYRX5H9XEVJS7ZJ", "dateTime": 1516129131761}, {"current_trial": 137, "trialdata": {"rt": -1, "trial_type": "single-stim", "word": "briefcase", "stimulus": "<p id=\"stim\">BRIEFCASE</p>", "conditions": [24, 1600, "v", 24000], "internal_node_id": "0.0-101.0", "trial": 3, "time_elapsed": 763236, "serialpos": 20, "key_press": -1, "wordID": 174, "type": "PRES_VIS", "trial_index": 137}, "uniqueid": "MTK1698:3XLBSAQ9Z5JF00RMYRX5H9XEVJS7ZJ", "dateTime": 1516129134439}, {"current_trial": 138, "trialdata": {"rt": -1, "trial_type": "single-stim", "word": "brother", "stimulus": "<p id=\"stim\">BROTHER</p>", "conditions": [24, 1600, "v", 24000], "internal_node_id": "0.0-102.0", "trial": 3, "time_elapsed": 765870, "serialpos": 21, "key_press": -1, "wordID": 178, "type": "PRES_VIS", "trial_index": 138}, "uniqueid": "MTK1698:3XLBSAQ9Z5JF00RMYRX5H9XEVJS7ZJ", "dateTime": 1516129137074}, {"current_trial": 139, "trialdata": {"rt": -1, "trial_type": "single-stim", "word": "milk", "stimulus": "<p id=\"stim\">MILK</p>", "conditions": [24, 1600, "v", 24000], "internal_node_id": "0.0-103.0", "trial": 3, "time_elapsed": 768446, "serialpos": 22, "key_press": -1, "wordID": 894, "type": "PRES_VIS", "trial_index": 139}, "uniqueid": "MTK1698:3XLBSAQ9Z5JF00RMYRX5H9XEVJS7ZJ", "dateTime": 1516129139649}, {"current_trial": 140, "trialdata": {"rt": -1, "trial_type": "single-stim", "word": "primate", "stimulus": "<p id=\"stim\">PRIMATE</p>", "conditions": [24, 1600, "v", 24000], "internal_node_id": "0.0-104.0", "trial": 3, "time_elapsed": 770973, "serialpos": 23, "key_press": -1, "wordID": 1122, "type": "PRES_VIS", "trial_index": 140}, "uniqueid": "MTK1698:3XLBSAQ9Z5JF00RMYRX5H9XEVJS7ZJ", "dateTime": 1516129142176}, {"current_trial": 141, "trialdata": {"rt": -1, "trial_type": "single-stim", "stimulus": "", "internal_node_id": "0.0-105.0-0.0", "time_elapsed": 773102, "key_press": -1, "type": "PRE_RECALL_DELAY", "trial_index": 141}, "uniqueid": "MTK1698:3XLBSAQ9Z5JF00RMYRX5H9XEVJS7ZJ", "dateTime": 1516129144305}, {"current_trial": 142, "trialdata": {"rt": -1000, "trial_type": "single-audio", "stimulus": "/static/audio/400Hz.wav", "internal_node_id": "0.0-106.0", "time_elapsed": 773604, "key_press": -1, "type": "PRE_RECALL_ALERT", "trial_index": 142}, "uniqueid": "MTK1698:3XLBSAQ9Z5JF00RMYRX5H9XEVJS7ZJ", "dateTime": 1516129144807}, {"current_trial": 143, "trialdata": {"rt": [3490, 4890, 6346, 11242, 13882, 20090], "recwords": ["clime", "chest", "hero", "playground", "pudding", "briefcase"], "key_times": [2156, 2426, 2714, 2882, 3058, 3490, 3818, 4034, 4170, 4242, 4554, 4890, 5338, 5458, 5602, 5802, 6346, 6706, 6850, 6986, 7266, 7554, 7842, 8018, 8338, 8450, 9122, 11242, 12395, 12706, 13034, 13194, 13370, 13490, 13674, 13882, 14874, 15074, 15394, 15562, 15786, 16466, 16650, 16914, 17282, 17674, 17850, 20090], "trial_type": "free-recall", "conditions": [24, 1600, "v", 24000], "internal_node_id": "0.0-107.0-0.0", "key_presses": [67, 76, 73, 77, 69, 13, 67, 72, 69, 83, 84, 13, 72, 69, 82, 79, 13, 80, 76, 65, 89, 71, 82, 79, 85, 78, 68, 13, 80, 85, 68, 68, 73, 78, 71, 32, 66, 82, 73, 69, 68, 8, 70, 67, 65, 83, 69, 13], "trial": 3, "time_elapsed": 833608, "type": "FREE_RECALL", "trial_index": 143}, "uniqueid": "MTK1698:3XLBSAQ9Z5JF00RMYRX5H9XEVJS7ZJ", "dateTime": 1516129204813}, {"current_trial": 144, "trialdata": {"rt": 4254, "trial_type": "text", "internal_node_id": "0.0-108.0", "time_elapsed": 839869, "key_press": 32, "type": "INSTRUCTIONS", "trial_index": 144}, "uniqueid": "MTK1698:3XLBSAQ9Z5JF00RMYRX5H9XEVJS7ZJ", "dateTime": 1516129211072}, {"current_trial": 145, "trialdata": {"rt": [15692], "trial_type": "math-distractor", "key_times": [14749, 14892, 15692, 20388, 23731], "responses": ["11"], "num2": [2, 4], "num3": [2, 4], "conditions": [24, 800, "v", 24000], "internal_node_id": "0.0-109.0", "key_presses": [49, 49, 13, 52, 8], "trial": 4, "time_elapsed": 865878, "type": "DISTRACTOR", "trial_index": 145, "num1": [7, 8]}, "uniqueid": "MTK1698:3XLBSAQ9Z5JF00RMYRX5H9XEVJS7ZJ", "dateTime": 1516129237081}, {"current_trial": 146, "trialdata": {"rt": -1, "trial_type": "single-stim", "stimulus": "<p id=\"stim\">10</p>", "internal_node_id": "0.0-110.0-0.0", "time_elapsed": 868887, "key_press": -1, "trial_index": 146}, "uniqueid": "MTK1698:3XLBSAQ9Z5JF00RMYRX5H9XEVJS7ZJ", "dateTime": 1516129240090}, {"current_trial": 147, "trialdata": {"rt": -1, "trial_type": "single-stim", "stimulus": "<p id=\"stim\">9</p>", "internal_node_id": "0.0-110.0-1.0", "time_elapsed": 869892, "key_press": -1, "trial_index": 147}, "uniqueid": "MTK1698:3XLBSAQ9Z5JF00RMYRX5H9XEVJS7ZJ", "dateTime": 1516129241095}, {"current_trial": 148, "trialdata": {"rt": -1, "trial_type": "single-stim", "stimulus": "<p id=\"stim\">8</p>", "internal_node_id": "0.0-110.0-2.0", "time_elapsed": 870896, "key_press": -1, "trial_index": 148}, "uniqueid": "MTK1698:3XLBSAQ9Z5JF00RMYRX5H9XEVJS7ZJ", "dateTime": 1516129242099}, {"current_trial": 149, "trialdata": {"rt": -1, "trial_type": "single-stim", "stimulus": "<p id=\"stim\">7</p>", "internal_node_id": "0.0-110.0-3.0", "time_elapsed": 871901, "key_press": -1, "trial_index": 149}, "uniqueid": "MTK1698:3XLBSAQ9Z5JF00RMYRX5H9XEVJS7ZJ", "dateTime": 1516129243104}, {"current_trial": 150, "trialdata": {"rt": -1, "trial_type": "single-stim", "stimulus": "<p id=\"stim\">6</p>", "internal_node_id": "0.0-110.0-4.0", "time_elapsed": 872906, "key_press": -1, "trial_index": 150}, "uniqueid": "MTK1698:3XLBSAQ9Z5JF00RMYRX5H9XEVJS7ZJ", "dateTime": 1516129244109}, {"current_trial": 151, "trialdata": {"rt": -1, "trial_type": "single-stim", "stimulus": "<p id=\"stim\">5</p>", "internal_node_id": "0.0-110.0-5.0", "time_elapsed": 873910, "key_press": -1, "trial_index": 151}, "uniqueid": "MTK1698:3XLBSAQ9Z5JF00RMYRX5H9XEVJS7ZJ", "dateTime": 1516129245114}, {"current_trial": 152, "trialdata": {"rt": -1, "trial_type": "single-stim", "stimulus": "<p id=\"stim\">4</p>", "internal_node_id": "0.0-110.0-6.0", "time_elapsed": 874914, "key_press": -1, "trial_index": 152}, "uniqueid": "MTK1698:3XLBSAQ9Z5JF00RMYRX5H9XEVJS7ZJ", "dateTime": 1516129246117}, {"current_trial": 153, "trialdata": {"rt": -1, "trial_type": "single-stim", "stimulus": "<p id=\"stim\">3</p>", "internal_node_id": "0.0-110.0-7.0", "time_elapsed": 875919, "key_press": -1, "trial_index": 153}, "uniqueid": "MTK1698:3XLBSAQ9Z5JF00RMYRX5H9XEVJS7ZJ", "dateTime": 1516129247122}, {"current_trial": 154, "trialdata": {"rt": -1, "trial_type": "single-stim", "stimulus": "<p id=\"stim\">2</p>", "internal_node_id": "0.0-110.0-8.0", "time_elapsed": 876923, "key_press": -1, "trial_index": 154}, "uniqueid": "MTK1698:3XLBSAQ9Z5JF00RMYRX5H9XEVJS7ZJ", "dateTime": 1516129248126}, {"current_trial": 155, "trialdata": {"rt": -1, "trial_type": "single-stim", "stimulus": "<p id=\"stim\">1</p>", "internal_node_id": "0.0-110.0-9.0", "time_elapsed": 877927, "key_press": -1, "trial_index": 155}, "uniqueid": "MTK1698:3XLBSAQ9Z5JF00RMYRX5H9XEVJS7ZJ", "dateTime": 1516129249130}, {"current_trial": 156, "trialdata": {"rt": -1, "trial_type": "single-stim", "stimulus": "<p id=\"stim\">+</p>", "internal_node_id": "0.0-111.0-0.0", "time_elapsed": 879432, "key_press": -1, "type": "FIXATION", "trial_index": 156}, "uniqueid": "MTK1698:3XLBSAQ9Z5JF00RMYRX5H9XEVJS7ZJ", "dateTime": 1516129250636}, {"current_trial": 157, "trialdata": {"rt": -1, "trial_type": "single-stim", "word": "liver", "stimulus": "<p id=\"stim\">LIVER</p>", "conditions": [24, 800, "v", 24000], "internal_node_id": "0.0-112.0", "trial": 4, "time_elapsed": 880237, "serialpos": 0, "key_press": -1, "wordID": 832, "type": "PRES_VIS", "trial_index": 157}, "uniqueid": "MTK1698:3XLBSAQ9Z5JF00RMYRX5H9XEVJS7ZJ", "dateTime": 1516129251440}, {"current_trial": 158, "trialdata": {"rt": -1, "trial_type": "single-stim", "word": "kidney", "stimulus": "<p id=\"stim\">KIDNEY</p>", "conditions": [24, 800, "v", 24000], "internal_node_id": "0.0-113.0", "trial": 4, "time_elapsed": 882166, "serialpos": 1, "key_press": -1, "wordID": 775, "type": "PRES_VIS", "trial_index": 158}, "uniqueid": "MTK1698:3XLBSAQ9Z5JF00RMYRX5H9XEVJS7ZJ", "dateTime": 1516129253369}, {"current_trial": 159, "trialdata": {"rt": -1, "trial_type": "single-stim", "word": "film", "stimulus": "<p id=\"stim\">FILM</p>", "conditions": [24, 800, "v", 24000], "internal_node_id": "0.0-114.0", "trial": 4, "time_elapsed": 883941, "serialpos": 2, "key_press": -1, "wordID": 564, "type": "PRES_VIS", "trial_index": 159}, "uniqueid": "MTK1698:3XLBSAQ9Z5JF00RMYRX5H9XEVJS7ZJ", "dateTime": 1516129255144}, {"current_trial": 160, "trialdata": {"rt": -1, "trial_type": "single-stim", "word": "perfume", "stimulus": "<p id=\"stim\">PERFUME</p>", "conditions": [24, 800, "v", 24000], "internal_node_id": "0.0-115.0", "trial": 4, "time_elapsed": 885694, "serialpos": 3, "key_press": -1, "wordID": 1048, "type": "PRES_VIS", "trial_index": 160}, "uniqueid": "MTK1698:3XLBSAQ9Z5JF00RMYRX5H9XEVJS7ZJ", "dateTime": 1516129256897}, {"current_trial": 161, "trialdata": {"rt": -1, "trial_type": "single-stim", "word": "captive", "stimulus": "<p id=\"stim\">CAPTIVE</p>", "conditions": [24, 800, "v", 24000], "internal_node_id": "0.0-116.0", "trial": 4, "time_elapsed": 887608, "serialpos": 4, "key_press": -1, "wordID": 239, "type": "PRES_VIS", "trial_index": 161}, "uniqueid": "MTK1698:3XLBSAQ9Z5JF00RMYRX5H9XEVJS7ZJ", "dateTime": 1516129258811}, {"current_trial": 162, "trialdata": {"rt": -1, "trial_type": "single-stim", "word": "pecan", "stimulus": "<p id=\"stim\">PECAN</p>", "conditions": [24, 800, "v", 24000], "internal_node_id": "0.0-117.0", "trial": 4, "time_elapsed": 889246, "serialpos": 5, "key_press": -1, "wordID": 1035, "type": "PRES_VIS", "trial_index": 162}, "uniqueid": "MTK1698:3XLBSAQ9Z5JF00RMYRX5H9XEVJS7ZJ", "dateTime": 1516129260449}, {"current_trial": 163, "trialdata": {"rt": -1, "trial_type": "single-stim", "word": "badge", "stimulus": "<p id=\"stim\">BADGE</p>", "conditions": [24, 800, "v", 24000], "internal_node_id": "0.0-118.0", "trial": 4, "time_elapsed": 890870, "serialpos": 6, "key_press": -1, "wordID": 67, "type": "PRES_VIS", "trial_index": 163}, "uniqueid": "MTK1698:3XLBSAQ9Z5JF00RMYRX5H9XEVJS7ZJ", "dateTime": 1516129262073}, {"current_trial": 164, "trialdata": {"rt": -1, "trial_type": "single-stim", "word": "cabbage", "stimulus": "<p id=\"stim\">CABBAGE</p>", "conditions": [24, 800, "v", 24000], "internal_node_id": "0.0-119.0", "trial": 4, "time_elapsed": 892616, "serialpos": 7, "key_press": -1, "wordID": 209, "type": "PRES_VIS", "trial_index": 164}, "uniqueid": "MTK1698:3XLBSAQ9Z5JF00RMYRX5H9XEVJS7ZJ", "dateTime": 1516129263820}, {"current_trial": 165, "trialdata": {"rt": -1, "trial_type": "single-stim", "word": "monster", "stimulus": "<p id=\"stim\">MONSTER</p>", "conditions": [24, 800, "v", 24000], "internal_node_id": "0.0-120.0", "trial": 4, "time_elapsed": 894234, "serialpos": 8, "key_press": -1, "wordID": 911, "type": "PRES_VIS", "trial_index": 165}, "uniqueid": "MTK1698:3XLBSAQ9Z5JF00RMYRX5H9XEVJS7ZJ", "dateTime": 1516129265437}, {"current_trial": 166, "trialdata": {"rt": -1, "trial_type": "single-stim", "word": "infant", "stimulus": "<p id=\"stim\">INFANT</p>", "conditions": [24, 800, "v", 24000], "internal_node_id": "0.0-121.0", "trial": 4, "time_elapsed": 896234, "serialpos": 9, "key_press": -1, "wordID": 736, "type": "PRES_VIS", "trial_index": 166}, "uniqueid": "MTK1698:3XLBSAQ9Z5JF00RMYRX5H9XEVJS7ZJ", "dateTime": 1516129267437}, {"current_trial": 167, "trialdata": {"rt": -1, "trial_type": "single-stim", "word": "sticker", "stimulus": "<p id=\"stim\">STICKER</p>", "conditions": [24, 800, "v", 24000], "internal_node_id": "0.0-122.0", "trial": 4, "time_elapsed": 897984, "serialpos": 10, "key_press": -1, "wordID": 1381, "type": "PRES_VIS", "trial_index": 167}, "uniqueid": "MTK1698:3XLBSAQ9Z5JF00RMYRX5H9XEVJS7ZJ", "dateTime": 1516129269188}, {"current_trial": 168, "trialdata": {"rt": -1, "trial_type": "single-stim", "word": "market", "stimulus": "<p id=\"stim\">MARKET</p>", "conditions": [24, 800, "v", 24000], "internal_node_id": "0.0-123.0", "trial": 4, "time_elapsed": 899632, "serialpos": 11, "key_press": -1, "wordID": 870, "type": "PRES_VIS", "trial_index": 168}, "uniqueid": "MTK1698:3XLBSAQ9Z5JF00RMYRX5H9XEVJS7ZJ", "dateTime": 1516129270835}, {"current_trial": 169, "trialdata": {"rt": -1, "trial_type": "single-stim", "word": "clam", "stimulus": "<p id=\"stim\">CLAM</p>", "conditions": [24, 800, "v", 24000], "internal_node_id": "0.0-124.0", "trial": 4, "time_elapsed": 901473, "serialpos": 12, "key_press": -1, "wordID": 314, "type": "PRES_VIS", "trial_index": 169}, "uniqueid": "MTK1698:3XLBSAQ9Z5JF00RMYRX5H9XEVJS7ZJ", "dateTime": 1516129272676}, {"current_trial": 170, "trialdata": {"rt": -1, "trial_type": "single-stim", "word": "mars", "stimulus": "<p id=\"stim\">MARS</p>", "conditions": [24, 800, "v", 24000], "internal_node_id": "0.0-125.0", "trial": 4, "time_elapsed": 903373, "serialpos": 13, "key_press": -1, "wordID": 872, "type": "PRES_VIS", "trial_index": 170}, "uniqueid": "MTK1698:3XLBSAQ9Z5JF00RMYRX5H9XEVJS7ZJ", "dateTime": 1516129274577}, {"current_trial": 171, "trialdata": {"rt": -1, "trial_type": "single-stim", "word": "stone", "stimulus": "<p id=\"stim\">STONE</p>", "conditions": [24, 800, "v", 24000], "internal_node_id": "0.0-126.0", "trial": 4, "time_elapsed": 905360, "serialpos": 14, "key_press": -1, "wordID": 1384, "type": "PRES_VIS", "trial_index": 171}, "uniqueid": "MTK1698:3XLBSAQ9Z5JF00RMYRX5H9XEVJS7ZJ", "dateTime": 1516129276563}, {"current_trial": 172, "trialdata": {"rt": -1, "trial_type": "single-stim", "word": "bike", "stimulus": "<p id=\"stim\">BIKE</p>", "conditions": [24, 800, "v", 24000], "internal_node_id": "0.0-127.0", "trial": 4, "time_elapsed": 907329, "serialpos": 15, "key_press": -1, "wordID": 124, "type": "PRES_VIS", "trial_index": 172}, "uniqueid": "MTK1698:3XLBSAQ9Z5JF00RMYRX5H9XEVJS7ZJ", "dateTime": 1516129278533}, {"current_trial": 173, "trialdata": {"rt": -1, "trial_type": "single-stim", "word": "diver", "stimulus": "<p id=\"stim\">DIVER</p>", "conditions": [24, 800, "v", 24000], "internal_node_id": "0.0-128.0", "trial": 4, "time_elapsed": 909316, "serialpos": 16, "key_press": -1, "wordID": 475, "type": "PRES_VIS", "trial_index": 173}, "uniqueid": "MTK1698:3XLBSAQ9Z5JF00RMYRX5H9XEVJS7ZJ", "dateTime": 1516129280519}, {"current_trial": 174, "trialdata": {"rt": -1, "trial_type": "single-stim", "word": "ozone", "stimulus": "<p id=\"stim\">OZONE</p>", "conditions": [24, 800, "v", 24000], "internal_node_id": "0.0-129.0", "trial": 4, "time_elapsed": 911067, "serialpos": 17, "key_press": -1, "wordID": 995, "type": "PRES_VIS", "trial_index": 174}, "uniqueid": "MTK1698:3XLBSAQ9Z5JF00RMYRX5H9XEVJS7ZJ", "dateTime": 1516129282270}, {"current_trial": 175, "trialdata": {"rt": -1, "trial_type": "single-stim", "word": "smog", "stimulus": "<p id=\"stim\">SMOG</p>", "conditions": [24, 800, "v", 24000], "internal_node_id": "0.0-130.0", "trial": 4, "time_elapsed": 913033, "serialpos": 18, "key_press": -1, "wordID": 1329, "type": "PRES_VIS", "trial_index": 175}, "uniqueid": "MTK1698:3XLBSAQ9Z5JF00RMYRX5H9XEVJS7ZJ", "dateTime": 1516129284236}, {"current_trial": 176, "trialdata": {"rt": -1, "trial_type": "single-stim", "word": "fungus", "stimulus": "<p id=\"stim\">FUNGUS</p>", "conditions": [24, 800, "v", 24000], "internal_node_id": "0.0-131.0", "trial": 4, "time_elapsed": 914768, "serialpos": 19, "key_press": -1, "wordID": 613, "type": "PRES_VIS", "trial_index": 176}, "uniqueid": "MTK1698:3XLBSAQ9Z5JF00RMYRX5H9XEVJS7ZJ", "dateTime": 1516129285971}, {"current_trial": 177, "trialdata": {"rt": -1, "trial_type": "single-stim", "word": "salt", "stimulus": "<p id=\"stim\">SALT</p>", "conditions": [24, 800, "v", 24000], "internal_node_id": "0.0-132.0", "trial": 4, "time_elapsed": 916760, "serialpos": 20, "key_press": -1, "wordID": 1228, "type": "PRES_VIS", "trial_index": 177}, "uniqueid": "MTK1698:3XLBSAQ9Z5JF00RMYRX5H9XEVJS7ZJ", "dateTime": 1516129287963}, {"current_trial": 178, "trialdata": {"rt": -1, "trial_type": "single-stim", "word": "oyster", "stimulus": "<p id=\"stim\">OYSTER</p>", "conditions": [24, 800, "v", 24000], "internal_node_id": "0.0-133.0", "trial": 4, "time_elapsed": 918430, "serialpos": 21, "key_press": -1, "wordID": 994, "type": "PRES_VIS", "trial_index": 178}, "uniqueid": "MTK1698:3XLBSAQ9Z5JF00RMYRX5H9XEVJS7ZJ", "dateTime": 1516129289634}, {"current_trial": 179, "trialdata": {"rt": -1, "trial_type": "single-stim", "word": "hamper", "stimulus": "<p id=\"stim\">HAMPER</p>", "conditions": [24, 800, "v", 24000], "internal_node_id": "0.0-134.0", "trial": 4, "time_elapsed": 920342, "serialpos": 22, "key_press": -1, "wordID": 681, "type": "PRES_VIS", "trial_index": 179}, "uniqueid": "MTK1698:3XLBSAQ9Z5JF00RMYRX5H9XEVJS7ZJ", "dateTime": 1516129291546}, {"current_trial": 180, "trialdata": {"rt": -1, "trial_type": "single-stim", "word": "rattle", "stimulus": "<p id=\"stim\">RATTLE</p>", "conditions": [24, 800, "v", 24000], "internal_node_id": "0.0-135.0", "trial": 4, "time_elapsed": 922022, "serialpos": 23, "key_press": -1, "wordID": 1169, "type": "PRES_VIS", "trial_index": 180}, "uniqueid": "MTK1698:3XLBSAQ9Z5JF00RMYRX5H9XEVJS7ZJ", "dateTime": 1516129293225}, {"current_trial": 181, "trialdata": {"rt": -1, "trial_type": "single-stim", "stimulus": "", "internal_node_id": "0.0-136.0-0.0", "time_elapsed": 924333, "key_press": -1, "type": "PRE_RECALL_DELAY", "trial_index": 181}, "uniqueid": "MTK1698:3XLBSAQ9Z5JF00RMYRX5H9XEVJS7ZJ", "dateTime": 1516129295536}, {"current_trial": 182, "trialdata": {"rt": -1000, "trial_type": "single-audio", "stimulus": "/static/audio/400Hz.wav", "internal_node_id": "0.0-137.0", "time_elapsed": 924834, "key_press": -1, "type": "PRE_RECALL_ALERT", "trial_index": 182}, "uniqueid": "MTK1698:3XLBSAQ9Z5JF00RMYRX5H9XEVJS7ZJ", "dateTime": 1516129296037}, {"current_trial": 183, "trialdata": {"rt": [2083, 3836, 5188, 6507, 10067], "recwords": ["smog", "monster", "film", "liver", "kidney"], "key_times": [1340, 1476, 1595, 1779, 2083, 2435, 2660, 2836, 2940, 3244, 3460, 3628, 3836, 4243, 4396, 4644, 4843, 5188, 5563, 5772, 5979, 6060, 6212, 6507, 7092, 7300, 7492, 8219, 8371, 8508, 10067], "trial_type": "free-recall", "conditions": [24, 800, "v", 24000], "internal_node_id": "0.0-138.0-0.0", "key_presses": [83, 77, 79, 71, 13, 77, 79, 78, 83, 84, 69, 82, 13, 70, 73, 76, 77, 13, 76, 73, 86, 69, 82, 13, 75, 73, 68, 78, 69, 89, 13], "trial": 4, "time_elapsed": 984839, "type": "FREE_RECALL", "trial_index": 183}, "uniqueid": "MTK1698:3XLBSAQ9Z5JF00RMYRX5H9XEVJS7ZJ", "dateTime": 1516129356045}, {"current_trial": 184, "trialdata": {"rt": 3547, "trial_type": "text", "internal_node_id": "0.0-139.0", "time_elapsed": 990393, "key_press": 32, "type": "INSTRUCTIONS", "trial_index": 184}, "uniqueid": "MTK1698:3XLBSAQ9Z5JF00RMYRX5H9XEVJS7ZJ", "dateTime": 1516129361596}, {"current_trial": 185, "trialdata": {"rt": [12044, 19527], "trial_type": "math-distractor", "key_times": [5556, 5804, 12044, 18215, 18656, 19527], "responses": ["12", "14"], "num2": [3, 8, 3], "num3": [8, 1, 2], "conditions": [12, 1600, "v", 24000], "internal_node_id": "0.0-140.0", "key_presses": [49, 50, 13, 49, 52, 13], "trial": 5, "time_elapsed": 1016404, "type": "DISTRACTOR", "trial_index": 185, "num1": [1, 5, 4]}, "uniqueid": "MTK1698:3XLBSAQ9Z5JF00RMYRX5H9XEVJS7ZJ", "dateTime": 1516129387607}, {"current_trial": 186, "trialdata": {"rt": -1, "trial_type": "single-stim", "stimulus": "<p id=\"stim\">10</p>", "internal_node_id": "0.0-141.0-0.0", "time_elapsed": 1019413, "key_press": -1, "trial_index": 186}, "uniqueid": "MTK1698:3XLBSAQ9Z5JF00RMYRX5H9XEVJS7ZJ", "dateTime": 1516129390616}, {"current_trial": 187, "trialdata": {"rt": -1, "trial_type": "single-stim", "stimulus": "<p id=\"stim\">9</p>", "internal_node_id": "0.0-141.0-1.0", "time_elapsed": 1020418, "key_press": -1, "trial_index": 187}, "uniqueid": "MTK1698:3XLBSAQ9Z5JF00RMYRX5H9XEVJS7ZJ", "dateTime": 1516129391622}, {"current_trial": 188, "trialdata": {"rt": -1, "trial_type": "single-stim", "stimulus": "<p id=\"stim\">8</p>", "internal_node_id": "0.0-141.0-2.0", "time_elapsed": 1021424, "key_press": -1, "trial_index": 188}, "uniqueid": "MTK1698:3XLBSAQ9Z5JF00RMYRX5H9XEVJS7ZJ", "dateTime": 1516129392627}, {"current_trial": 189, "trialdata": {"rt": -1, "trial_type": "single-stim", "stimulus": "<p id=\"stim\">7</p>", "internal_node_id": "0.0-141.0-3.0", "time_elapsed": 1022428, "key_press": -1, "trial_index": 189}, "uniqueid": "MTK1698:3XLBSAQ9Z5JF00RMYRX5H9XEVJS7ZJ", "dateTime": 1516129393631}, {"current_trial": 190, "trialdata": {"rt": -1, "trial_type": "single-stim", "stimulus": "<p id=\"stim\">6</p>", "internal_node_id": "0.0-141.0-4.0", "time_elapsed": 1023432, "key_press": -1, "trial_index": 190}, "uniqueid": "MTK1698:3XLBSAQ9Z5JF00RMYRX5H9XEVJS7ZJ", "dateTime": 1516129394635}, {"current_trial": 191, "trialdata": {"rt": -1, "trial_type": "single-stim", "stimulus": "<p id=\"stim\">5</p>", "internal_node_id": "0.0-141.0-5.0", "time_elapsed": 1024436, "key_press": -1, "trial_index": 191}, "uniqueid": "MTK1698:3XLBSAQ9Z5JF00RMYRX5H9XEVJS7ZJ", "dateTime": 1516129395639}, {"current_trial": 192, "trialdata": {"rt": -1, "trial_type": "single-stim", "stimulus": "<p id=\"stim\">4</p>", "internal_node_id": "0.0-141.0-6.0", "time_elapsed": 1025442, "key_press": -1, "trial_index": 192}, "uniqueid": "MTK1698:3XLBSAQ9Z5JF00RMYRX5H9XEVJS7ZJ", "dateTime": 1516129396645}, {"current_trial": 193, "trialdata": {"rt": -1, "trial_type": "single-stim", "stimulus": "<p id=\"stim\">3</p>", "internal_node_id": "0.0-141.0-7.0", "time_elapsed": 1026447, "key_press": -1, "trial_index": 193}, "uniqueid": "MTK1698:3XLBSAQ9Z5JF00RMYRX5H9XEVJS7ZJ", "dateTime": 1516129397650}, {"current_trial": 194, "trialdata": {"rt": -1, "trial_type": "single-stim", "stimulus": "<p id=\"stim\">2</p>", "internal_node_id": "0.0-141.0-8.0", "time_elapsed": 1027453, "key_press": -1, "trial_index": 194}, "uniqueid": "MTK1698:3XLBSAQ9Z5JF00RMYRX5H9XEVJS7ZJ", "dateTime": 1516129398656}, {"current_trial": 195, "trialdata": {"rt": -1, "trial_type": "single-stim", "stimulus": "<p id=\"stim\">1</p>", "internal_node_id": "0.0-141.0-9.0", "time_elapsed": 1028458, "key_press": -1, "trial_index": 195}, "uniqueid": "MTK1698:3XLBSAQ9Z5JF00RMYRX5H9XEVJS7ZJ", "dateTime": 1516129399661}, {"current_trial": 196, "trialdata": {"rt": -1, "trial_type": "single-stim", "stimulus": "<p id=\"stim\">+</p>", "internal_node_id": "0.0-142.0-0.0", "time_elapsed": 1029964, "key_press": -1, "type": "FIXATION", "trial_index": 196}, "uniqueid": "MTK1698:3XLBSAQ9Z5JF00RMYRX5H9XEVJS7ZJ", "dateTime": 1516129401167}, {"current_trial": 197, "trialdata": {"rt": -1, "trial_type": "single-stim", "word": "cricket", "stimulus": "<p id=\"stim\">CRICKET</p>", "conditions": [12, 1600, "v", 24000], "internal_node_id": "0.0-143.0", "trial": 5, "time_elapsed": 1031569, "serialpos": 0, "key_press": -1, "wordID": 407, "type": "PRES_VIS", "trial_index": 197}, "uniqueid": "MTK1698:3XLBSAQ9Z5JF00RMYRX5H9XEVJS7ZJ", "dateTime": 1516129402772}, {"current_trial": 198, "trialdata": {"rt": -1, "trial_type": "single-stim", "word": "pigment", "stimulus": "<p id=\"stim\">PIGMENT</p>", "conditions": [12, 1600, "v", 24000], "internal_node_id": "0.0-144.0", "trial": 5, "time_elapsed": 1034146, "serialpos": 1, "key_press": -1, "wordID": 1065, "type": "PRES_VIS", "trial_index": 198}, "uniqueid": "MTK1698:3XLBSAQ9Z5JF00RMYRX5H9XEVJS7ZJ", "dateTime": 1516129405349}, {"current_trial": 199, "trialdata": {"rt": -1, "trial_type": "single-stim", "word": "headband", "stimulus": "<p id=\"stim\">HEADBAND</p>", "conditions": [12, 1600, "v", 24000], "internal_node_id": "0.0-145.0", "trial": 5, "time_elapsed": 1036601, "serialpos": 2, "key_press": -1, "wordID": 695, "type": "PRES_VIS", "trial_index": 199}, "uniqueid": "MTK1698:3XLBSAQ9Z5JF00RMYRX5H9XEVJS7ZJ", "dateTime": 1516129407804}, {"current_trial": 200, "trialdata": {"rt": -1, "trial_type": "single-stim", "word": "bison", "stimulus": "<p id=\"stim\">BISON</p>", "conditions": [12, 1600, "v", 24000], "internal_node_id": "0.0-146.0", "trial": 5, "time_elapsed": 1039219, "serialpos": 3, "key_press": -1, "wordID": 130, "type": "PRES_VIS", "trial_index": 200}, "uniqueid": "MTK1698:3XLBSAQ9Z5JF00RMYRX5H9XEVJS7ZJ", "dateTime": 1516129410422}, {"current_trial": 201, "trialdata": {"rt": -1, "trial_type": "single-stim", "word": "cattle", "stimulus": "<p id=\"stim\">CATTLE</p>", "conditions": [12, 1600, "v", 24000], "internal_node_id": "0.0-147.0", "trial": 5, "time_elapsed": 1041832, "serialpos": 4, "key_press": -1, "wordID": 260, "type": "PRES_VIS", "trial_index": 201}, "uniqueid": "MTK1698:3XLBSAQ9Z5JF00RMYRX5H9XEVJS7ZJ", "dateTime": 1516129413035}, {"current_trial": 202, "trialdata": {"rt": -1, "trial_type": "single-stim", "word": "sculpture", "stimulus": "<p id=\"stim\">SCULPTURE</p>", "conditions": [12, 1600, "v", 24000], "internal_node_id": "0.0-148.0", "trial": 5, "time_elapsed": 1044558, "serialpos": 5, "key_press": -1, "wordID": 1257, "type": "PRES_VIS", "trial_index": 202}, "uniqueid": "MTK1698:3XLBSAQ9Z5JF00RMYRX5H9XEVJS7ZJ", "dateTime": 1516129415761}, {"current_trial": 203, "trialdata": {"rt": -1, "trial_type": "single-stim", "word": "window", "stimulus": "<p id=\"stim\">WINDOW</p>", "conditions": [12, 1600, "v", 24000], "internal_node_id": "0.0-149.0", "trial": 5, "time_elapsed": 1047033, "serialpos": 6, "key_press": -1, "wordID": 1610, "type": "PRES_VIS", "trial_index": 203}, "uniqueid": "MTK1698:3XLBSAQ9Z5JF00RMYRX5H9XEVJS7ZJ", "dateTime": 1516129418236}, {"current_trial": 204, "trialdata": {"rt": -1, "trial_type": "single-stim", "word": "cocoon", "stimulus": "<p id=\"stim\">COCOON</p>", "conditions": [12, 1600, "v", 24000], "internal_node_id": "0.0-150.0", "trial": 5, "time_elapsed": 1049544, "serialpos": 7, "key_press": -1, "wordID": 338, "type": "PRES_VIS", "trial_index": 204}, "uniqueid": "MTK1698:3XLBSAQ9Z5JF00RMYRX5H9XEVJS7ZJ", "dateTime": 1516129420747}, {"current_trial": 205, "trialdata": {"rt": -1, "trial_type": "single-stim", "word": "wrench", "stimulus": "<p id=\"stim\">WRENCH</p>", "conditions": [12, 1600, "v", 24000], "internal_node_id": "0.0-151.0", "trial": 5, "time_elapsed": 1052150, "serialpos": 8, "key_press": -1, "wordID": 1624, "type": "PRES_VIS", "trial_index": 205}, "uniqueid": "MTK1698:3XLBSAQ9Z5JF00RMYRX5H9XEVJS7ZJ", "dateTime": 1516129423353}, {"current_trial": 206, "trialdata": {"rt": -1, "trial_type": "single-stim", "word": "leader", "stimulus": "<p id=\"stim\">LEADER</p>", "conditions": [12, 1600, "v", 24000], "internal_node_id": "0.0-152.0", "trial": 5, "time_elapsed": 1054949, "serialpos": 9, "key_press": -1, "wordID": 806, "type": "PRES_VIS", "trial_index": 206}, "uniqueid": "MTK1698:3XLBSAQ9Z5JF00RMYRX5H9XEVJS7ZJ", "dateTime": 1516129426152}, {"current_trial": 207, "trialdata": {"rt": -1, "trial_type": "single-stim", "word": "shirt", "stimulus": "<p id=\"stim\">SHIRT</p>", "conditions": [12, 1600, "v", 24000], "internal_node_id": "0.0-153.0", "trial": 5, "time_elapsed": 1057658, "serialpos": 10, "key_press": -1, "wordID": 1286, "type": "PRES_VIS", "trial_index": 207}, "uniqueid": "MTK1698:3XLBSAQ9Z5JF00RMYRX5H9XEVJS7ZJ", "dateTime": 1516129428861}, {"current_trial": 208, "trialdata": {"rt": -1, "trial_type": "single-stim", "word": "star", "stimulus": "<p id=\"stim\">STAR</p>", "conditions": [12, 1600, "v", 24000], "internal_node_id": "0.0-154.0", "trial": 5, "time_elapsed": 1060147, "serialpos": 11, "key_press": -1, "wordID": 1372, "type": "PRES_VIS", "trial_index": 208}, "uniqueid": "MTK1698:3XLBSAQ9Z5JF00RMYRX5H9XEVJS7ZJ", "dateTime": 1516129431351}, {"current_trial": 209, "trialdata": {"rt": -1, "trial_type": "single-stim", "stimulus": "", "internal_node_id": "0.0-155.0-0.0", "time_elapsed": 1062243, "key_press": -1, "type": "PRE_RECALL_DELAY", "trial_index": 209}, "uniqueid": "MTK1698:3XLBSAQ9Z5JF00RMYRX5H9XEVJS7ZJ", "dateTime": 1516129433446}, {"current_trial": 210, "trialdata": {"rt": -1000, "trial_type": "single-audio", "stimulus": "/static/audio/400Hz.wav", "internal_node_id": "0.0-156.0", "time_elapsed": 1062744, "key_press": -1, "type": "PRE_RECALL_ALERT", "trial_index": 210}, "uniqueid": "MTK1698:3XLBSAQ9Z5JF00RMYRX5H9XEVJS7ZJ", "dateTime": 1516129433947}, {"current_trial": 211, "trialdata": {"rt": [3122, 4409, 8297, 11817], "recwords": ["cattle", "bison", "sculpture", "window"], "key_times": [1858, 1897, 2218, 2385, 2553, 2729, 3122, 3561, 3657, 3826, 3993, 4153, 4409, 4673, 4857, 5126, 5817, 6129, 6989, 7209, 7593, 7713, 8297, 9985, 10162, 10265, 10449, 11065, 11218, 11817], "trial_type": "free-recall", "conditions": [12, 1600, "v", 24000], "internal_node_id": "0.0-157.0-0.0", "key_presses": [67, 65, 84, 84, 76, 69, 13, 66, 73, 83, 79, 78, 13, 83, 67, 85, 76, 80, 84, 85, 82, 69, 32, 87, 73, 78, 68, 79, 87, 13], "trial": 5, "time_elapsed": 1122747, "type": "FREE_RECALL", "trial_index": 211}, "uniqueid": "MTK1698:3XLBSAQ9Z5JF00RMYRX5H9XEVJS7ZJ", "dateTime": 1516129493952}, {"current_trial": 212, "trialdata": {"rt": 1426, "trial_type": "text", "internal_node_id": "0.0-158.0", "time_elapsed": 1126180, "key_press": 32, "type": "INSTRUCTIONS", "trial_index": 212}, "uniqueid": "MTK1698:3XLBSAQ9Z5JF00RMYRX5H9XEVJS7ZJ", "dateTime": 1516129497383}, {"current_trial": 213, "trialdata": {"rt": [8960], "trial_type": "math-distractor", "key_times": [8081, 8137, 8960], "responses": ["13"], "num2": [3, 4], "num3": [3, 9], "conditions": [12, 1600, "v", 12000], "internal_node_id": "0.0-159.0", "key_presses": [49, 51, 13], "trial": 6, "time_elapsed": 1140191, "type": "DISTRACTOR", "trial_index": 213, "num1": [7, 8]}, "uniqueid": "MTK1698:3XLBSAQ9Z5JF00RMYRX5H9XEVJS7ZJ", "dateTime": 1516129511394}, {"current_trial": 214, "trialdata": {"rt": -1, "trial_type": "single-stim", "stimulus": "<p id=\"stim\">10</p>", "internal_node_id": "0.0-160.0-0.0", "time_elapsed": 1143200, "key_press": -1, "trial_index": 214}, "uniqueid": "MTK1698:3XLBSAQ9Z5JF00RMYRX5H9XEVJS7ZJ", "dateTime": 1516129514403}, {"current_trial": 215, "trialdata": {"rt": -1, "trial_type": "single-stim", "stimulus": "<p id=\"stim\">9</p>", "internal_node_id": "0.0-160.0-1.0", "time_elapsed": 1144203, "key_press": -1, "trial_index": 215}, "uniqueid": "MTK1698:3XLBSAQ9Z5JF00RMYRX5H9XEVJS7ZJ", "dateTime": 1516129515406}, {"current_trial": 216, "trialdata": {"rt": -1, "trial_type": "single-stim", "stimulus": "<p id=\"stim\">8</p>", "internal_node_id": "0.0-160.0-2.0", "time_elapsed": 1145209, "key_press": -1, "trial_index": 216}, "uniqueid": "MTK1698:3XLBSAQ9Z5JF00RMYRX5H9XEVJS7ZJ", "dateTime": 1516129516412}, {"current_trial": 217, "trialdata": {"rt": -1, "trial_type": "single-stim", "stimulus": "<p id=\"stim\">7</p>", "internal_node_id": "0.0-160.0-3.0", "time_elapsed": 1146212, "key_press": -1, "trial_index": 217}, "uniqueid": "MTK1698:3XLBSAQ9Z5JF00RMYRX5H9XEVJS7ZJ", "dateTime": 1516129517415}, {"current_trial": 218, "trialdata": {"rt": -1, "trial_type": "single-stim", "stimulus": "<p id=\"stim\">6</p>", "internal_node_id": "0.0-160.0-4.0", "time_elapsed": 1147216, "key_press": -1, "trial_index": 218}, "uniqueid": "MTK1698:3XLBSAQ9Z5JF00RMYRX5H9XEVJS7ZJ", "dateTime": 1516129518419}, {"current_trial": 219, "trialdata": {"rt": -1, "trial_type": "single-stim", "stimulus": "<p id=\"stim\">5</p>", "internal_node_id": "0.0-160.0-5.0", "time_elapsed": 1148220, "key_press": -1, "trial_index": 219}, "uniqueid": "MTK1698:3XLBSAQ9Z5JF00RMYRX5H9XEVJS7ZJ", "dateTime": 1516129519423}, {"current_trial": 220, "trialdata": {"rt": -1, "trial_type": "single-stim", "stimulus": "<p id=\"stim\">4</p>", "internal_node_id": "0.0-160.0-6.0", "time_elapsed": 1149225, "key_press": -1, "trial_index": 220}, "uniqueid": "MTK1698:3XLBSAQ9Z5JF00RMYRX5H9XEVJS7ZJ", "dateTime": 1516129520428}, {"current_trial": 221, "trialdata": {"rt": -1, "trial_type": "single-stim", "stimulus": "<p id=\"stim\">3</p>", "internal_node_id": "0.0-160.0-7.0", "time_elapsed": 1150228, "key_press": -1, "trial_index": 221}, "uniqueid": "MTK1698:3XLBSAQ9Z5JF00RMYRX5H9XEVJS7ZJ", "dateTime": 1516129521431}, {"current_trial": 222, "trialdata": {"rt": -1, "trial_type": "single-stim", "stimulus": "<p id=\"stim\">2</p>", "internal_node_id": "0.0-160.0-8.0", "time_elapsed": 1151234, "key_press": -1, "trial_index": 222}, "uniqueid": "MTK1698:3XLBSAQ9Z5JF00RMYRX5H9XEVJS7ZJ", "dateTime": 1516129522437}, {"current_trial": 223, "trialdata": {"rt": -1, "trial_type": "single-stim", "stimulus": "<p id=\"stim\">1</p>", "internal_node_id": "0.0-160.0-9.0", "time_elapsed": 1152238, "key_press": -1, "trial_index": 223}, "uniqueid": "MTK1698:3XLBSAQ9Z5JF00RMYRX5H9XEVJS7ZJ", "dateTime": 1516129523442}, {"current_trial": 224, "trialdata": {"rt": -1, "trial_type": "single-stim", "stimulus": "<p id=\"stim\">+</p>", "internal_node_id": "0.0-161.0-0.0", "time_elapsed": 1153743, "key_press": -1, "type": "FIXATION", "trial_index": 224}, "uniqueid": "MTK1698:3XLBSAQ9Z5JF00RMYRX5H9XEVJS7ZJ", "dateTime": 1516129524946}, {"current_trial": 225, "trialdata": {"rt": -1, "trial_type": "single-stim", "word": "dress", "stimulus": "<p id=\"stim\">DRESS</p>", "conditions": [12, 1600, "v", 12000], "internal_node_id": "0.0-162.0", "trial": 6, "time_elapsed": 1155347, "serialpos": 0, "key_press": -1, "wordID": 494, "type": "PRES_VIS", "trial_index": 225}, "uniqueid": "MTK1698:3XLBSAQ9Z5JF00RMYRX5H9XEVJS7ZJ", "dateTime": 1516129526551}, {"current_trial": 226, "trialdata": {"rt": -1, "trial_type": "single-stim", "word": "supper", "stimulus": "<p id=\"stim\">SUPPER</p>", "conditions": [12, 1600, "v", 12000], "internal_node_id": "0.0-163.0", "trial": 6, "time_elapsed": 1158020, "serialpos": 1, "key_press": -1, "wordID": 1410, "type": "PRES_VIS", "trial_index": 226}, "uniqueid": "MTK1698:3XLBSAQ9Z5JF00RMYRX5H9XEVJS7ZJ", "dateTime": 1516129529223}, {"current_trial": 227, "trialdata": {"rt": -1, "trial_type": "single-stim", "word": "banquet", "stimulus": "<p id=\"stim\">BANQUET</p>", "conditions": [12, 1600, "v", 12000], "internal_node_id": "0.0-164.0", "trial": 6, "time_elapsed": 1160550, "serialpos": 2, "key_press": -1, "wordID": 85, "type": "PRES_VIS", "trial_index": 227}, "uniqueid": "MTK1698:3XLBSAQ9Z5JF00RMYRX5H9XEVJS7ZJ", "dateTime": 1516129531754}, {"current_trial": 228, "trialdata": {"rt": -1, "trial_type": "single-stim", "word": "helmet", "stimulus": "<p id=\"stim\">HELMET</p>", "conditions": [12, 1600, "v", 12000], "internal_node_id": "0.0-165.0", "trial": 6, "time_elapsed": 1163106, "serialpos": 3, "key_press": -1, "wordID": 701, "type": "PRES_VIS", "trial_index": 228}, "uniqueid": "MTK1698:3XLBSAQ9Z5JF00RMYRX5H9XEVJS7ZJ", "dateTime": 1516129534309}, {"current_trial": 229, "trialdata": {"rt": -1, "trial_type": "single-stim", "word": "ketchup", "stimulus": "<p id=\"stim\">KETCHUP</p>", "conditions": [12, 1600, "v", 12000], "internal_node_id": "0.0-166.0", "trial": 6, "time_elapsed": 1165656, "serialpos": 4, "key_press": -1, "wordID": 770, "type": "PRES_VIS", "trial_index": 229}, "uniqueid": "MTK1698:3XLBSAQ9Z5JF00RMYRX5H9XEVJS7ZJ", "dateTime": 1516129536860}, {"current_trial": 230, "trialdata": {"rt": -1, "trial_type": "single-stim", "word": "scarf", "stimulus": "<p id=\"stim\">SCARF</p>", "conditions": [12, 1600, "v", 12000], "internal_node_id": "0.0-167.0", "trial": 6, "time_elapsed": 1168250, "serialpos": 5, "key_press": -1, "wordID": 1245, "type": "PRES_VIS", "trial_index": 230}, "uniqueid": "MTK1698:3XLBSAQ9Z5JF00RMYRX5H9XEVJS7ZJ", "dateTime": 1516129539453}, {"current_trial": 231, "trialdata": {"rt": -1, "trial_type": "single-stim", "word": "dentist", "stimulus": "<p id=\"stim\">DENTIST</p>", "conditions": [12, 1600, "v", 12000], "internal_node_id": "0.0-168.0", "trial": 6, "time_elapsed": 1170859, "serialpos": 6, "key_press": -1, "wordID": 446, "type": "PRES_VIS", "trial_index": 231}, "uniqueid": "MTK1698:3XLBSAQ9Z5JF00RMYRX5H9XEVJS7ZJ", "dateTime": 1516129542062}, {"current_trial": 232, "trialdata": {"rt": -1, "trial_type": "single-stim", "word": "popcorn", "stimulus": "<p id=\"stim\">POPCORN</p>", "conditions": [12, 1600, "v", 12000], "internal_node_id": "0.0-169.0", "trial": 6, "time_elapsed": 1173571, "serialpos": 7, "key_press": -1, "wordID": 1103, "type": "PRES_VIS", "trial_index": 232}, "uniqueid": "MTK1698:3XLBSAQ9Z5JF00RMYRX5H9XEVJS7ZJ", "dateTime": 1516129544775}, {"current_trial": 233, "trialdata": {"rt": -1, "trial_type": "single-stim", "word": "nightgown", "stimulus": "<p id=\"stim\">NIGHTGOWN</p>", "conditions": [12, 1600, "v", 12000], "internal_node_id": "0.0-170.0", "trial": 6, "time_elapsed": 1176198, "serialpos": 8, "key_press": -1, "wordID": 952, "type": "PRES_VIS", "trial_index": 233}, "uniqueid": "MTK1698:3XLBSAQ9Z5JF00RMYRX5H9XEVJS7ZJ", "dateTime": 1516129547401}, {"current_trial": 234, "trialdata": {"rt": -1, "trial_type": "single-stim", "word": "stomach", "stimulus": "<p id=\"stim\">STOMACH</p>", "conditions": [12, 1600, "v", 12000], "internal_node_id": "0.0-171.0", "trial": 6, "time_elapsed": 1178980, "serialpos": 9, "key_press": -1, "wordID": 1383, "type": "PRES_VIS", "trial_index": 234}, "uniqueid": "MTK1698:3XLBSAQ9Z5JF00RMYRX5H9XEVJS7ZJ", "dateTime": 1516129550184}, {"current_trial": 235, "trialdata": {"rt": -1, "trial_type": "single-stim", "word": "puddle", "stimulus": "<p id=\"stim\">PUDDLE</p>", "conditions": [12, 1600, "v", 12000], "internal_node_id": "0.0-172.0", "trial": 6, "time_elapsed": 1181691, "serialpos": 10, "key_press": -1, "wordID": 1139, "type": "PRES_VIS", "trial_index": 235}, "uniqueid": "MTK1698:3XLBSAQ9Z5JF00RMYRX5H9XEVJS7ZJ", "dateTime": 1516129552894}, {"current_trial": 236, "trialdata": {"rt": -1, "trial_type": "single-stim", "word": "shelf", "stimulus": "<p id=\"stim\">SHELF</p>", "conditions": [12, 1600, "v", 12000], "internal_node_id": "0.0-173.0", "trial": 6, "time_elapsed": 1184377, "serialpos": 11, "key_press": -1, "wordID": 1279, "type": "PRES_VIS", "trial_index": 236}, "uniqueid": "MTK1698:3XLBSAQ9Z5JF00RMYRX5H9XEVJS7ZJ", "dateTime": 1516129555580}, {"current_trial": 237, "trialdata": {"rt": -1, "trial_type": "single-stim", "stimulus": "", "internal_node_id": "0.0-174.0-0.0", "time_elapsed": 1186471, "key_press": -1, "type": "PRE_RECALL_DELAY", "trial_index": 237}, "uniqueid": "MTK1698:3XLBSAQ9Z5JF00RMYRX5H9XEVJS7ZJ", "dateTime": 1516129557674}, {"current_trial": 238, "trialdata": {"rt": -1000, "trial_type": "single-audio", "stimulus": "/static/audio/400Hz.wav", "internal_node_id": "0.0-175.0", "time_elapsed": 1186972, "key_press": -1, "type": "PRE_RECALL_ALERT", "trial_index": 238}, "uniqueid": "MTK1698:3XLBSAQ9Z5JF00RMYRX5H9XEVJS7ZJ", "dateTime": 1516129558176}, {"current_trial": 239, "trialdata": {"rt": [2888, 4152, 8360, 12903], "recwords": ["dress", "shelf", "ketchup", "shelf"], "key_times": [1725, 1888, 2120, 2384, 2552, 2888, 3392, 3616, 3752, 3880, 4024, 4152, 6024, 6219, 6496, 6872, 7168, 7640, 7888, 8360, 11984, 12119, 12303, 12480, 12663, 12903], "trial_type": "free-recall", "conditions": [12, 1600, "v", 12000], "internal_node_id": "0.0-176.0-0.0", "key_presses": [68, 82, 69, 83, 83, 13, 83, 72, 69, 76, 70, 32, 75, 69, 84, 67, 72, 85, 80, 32, 83, 72, 69, 76, 70, 13], "trial": 6, "time_elapsed": 1246978, "type": "FREE_RECALL", "trial_index": 239}, "uniqueid": "MTK1698:3XLBSAQ9Z5JF00RMYRX5H9XEVJS7ZJ", "dateTime": 1516129618184}, {"current_trial": 240, "trialdata": {"rt": 5463, "trial_type": "text", "internal_node_id": "0.0-177.0", "time_elapsed": 1254449, "key_press": 32, "type": "INSTRUCTIONS", "trial_index": 240}, "uniqueid": "MTK1698:3XLBSAQ9Z5JF00RMYRX5H9XEVJS7ZJ", "dateTime": 1516129625652}, {"current_trial": 241, "trialdata": {"rt": [5068], "trial_type": "math-distractor", "key_times": [4165, 4292, 5068], "responses": ["11"], "num2": [1, 8], "num3": [1, 1], "conditions": [12, 1600, "v", 12000], "internal_node_id": "0.0-178.0", "key_presses": [49, 49, 13], "trial": 7, "time_elapsed": 1268460, "type": "DISTRACTOR", "trial_index": 241, "num1": [9, 9]}, "uniqueid": "MTK1698:3XLBSAQ9Z5JF00RMYRX5H9XEVJS7ZJ", "dateTime": 1516129639663}, {"current_trial": 242, "trialdata": {"rt": -1, "trial_type": "single-stim", "stimulus": "<p id=\"stim\">10</p>", "internal_node_id": "0.0-179.0-0.0", "time_elapsed": 1271470, "key_press": -1, "trial_index": 242}, "uniqueid": "MTK1698:3XLBSAQ9Z5JF00RMYRX5H9XEVJS7ZJ", "dateTime": 1516129642673}, {"current_trial": 243, "trialdata": {"rt": -1, "trial_type": "single-stim", "stimulus": "<p id=\"stim\">9</p>", "internal_node_id": "0.0-179.0-1.0", "time_elapsed": 1272476, "key_press": -1, "trial_index": 243}, "uniqueid": "MTK1698:3XLBSAQ9Z5JF00RMYRX5H9XEVJS7ZJ", "dateTime": 1516129643679}, {"current_trial": 244, "trialdata": {"rt": -1, "trial_type": "single-stim", "stimulus": "<p id=\"stim\">8</p>", "internal_node_id": "0.0-179.0-2.0", "time_elapsed": 1273480, "key_press": -1, "trial_index": 244}, "uniqueid": "MTK1698:3XLBSAQ9Z5JF00RMYRX5H9XEVJS7ZJ", "dateTime": 1516129644683}, {"current_trial": 245, "trialdata": {"rt": -1, "trial_type": "single-stim", "stimulus": "<p id=\"stim\">7</p>", "internal_node_id": "0.0-179.0-3.0", "time_elapsed": 1274484, "key_press": -1, "trial_index": 245}, "uniqueid": "MTK1698:3XLBSAQ9Z5JF00RMYRX5H9XEVJS7ZJ", "dateTime": 1516129645687}, {"current_trial": 246, "trialdata": {"rt": -1, "trial_type": "single-stim", "stimulus": "<p id=\"stim\">6</p>", "internal_node_id": "0.0-179.0-4.0", "time_elapsed": 1275488, "key_press": -1, "trial_index": 246}, "uniqueid": "MTK1698:3XLBSAQ9Z5JF00RMYRX5H9XEVJS7ZJ", "dateTime": 1516129646692}, {"current_trial": 247, "trialdata": {"rt": -1, "trial_type": "single-stim", "stimulus": "<p id=\"stim\">5</p>", "internal_node_id": "0.0-179.0-5.0", "time_elapsed": 1276492, "key_press": -1, "trial_index": 247}, "uniqueid": "MTK1698:3XLBSAQ9Z5JF00RMYRX5H9XEVJS7ZJ", "dateTime": 1516129647695}, {"current_trial": 248, "trialdata": {"rt": -1, "trial_type": "single-stim", "stimulus": "<p id=\"stim\">4</p>", "internal_node_id": "0.0-179.0-6.0", "time_elapsed": 1277496, "key_press": -1, "trial_index": 248}, "uniqueid": "MTK1698:3XLBSAQ9Z5JF00RMYRX5H9XEVJS7ZJ", "dateTime": 1516129648699}, {"current_trial": 249, "trialdata": {"rt": -1, "trial_type": "single-stim", "stimulus": "<p id=\"stim\">3</p>", "internal_node_id": "0.0-179.0-7.0", "time_elapsed": 1278500, "key_press": -1, "trial_index": 249}, "uniqueid": "MTK1698:3XLBSAQ9Z5JF00RMYRX5H9XEVJS7ZJ", "dateTime": 1516129649703}, {"current_trial": 250, "trialdata": {"rt": -1, "trial_type": "single-stim", "stimulus": "<p id=\"stim\">2</p>", "internal_node_id": "0.0-179.0-8.0", "time_elapsed": 1279504, "key_press": -1, "trial_index": 250}, "uniqueid": "MTK1698:3XLBSAQ9Z5JF00RMYRX5H9XEVJS7ZJ", "dateTime": 1516129650708}, {"current_trial": 251, "trialdata": {"rt": -1, "trial_type": "single-stim", "stimulus": "<p id=\"stim\">1</p>", "internal_node_id": "0.0-179.0-9.0", "time_elapsed": 1280509, "key_press": -1, "trial_index": 251}, "uniqueid": "MTK1698:3XLBSAQ9Z5JF00RMYRX5H9XEVJS7ZJ", "dateTime": 1516129651712}, {"current_trial": 252, "trialdata": {"rt": -1, "trial_type": "single-stim", "stimulus": "<p id=\"stim\">+</p>", "internal_node_id": "0.0-180.0-0.0", "time_elapsed": 1282013, "key_press": -1, "type": "FIXATION", "trial_index": 252}, "uniqueid": "MTK1698:3XLBSAQ9Z5JF00RMYRX5H9XEVJS7ZJ", "dateTime": 1516129653216}, {"current_trial": 253, "trialdata": {"rt": -1, "trial_type": "single-stim", "word": "mister", "stimulus": "<p id=\"stim\">MISTER</p>", "conditions": [12, 1600, "v", 12000], "internal_node_id": "0.0-181.0", "trial": 7, "time_elapsed": 1283619, "serialpos": 0, "key_press": -1, "wordID": 900, "type": "PRES_VIS", "trial_index": 253}, "uniqueid": "MTK1698:3XLBSAQ9Z5JF00RMYRX5H9XEVJS7ZJ", "dateTime": 1516129654822}, {"current_trial": 254, "trialdata": {"rt": -1, "trial_type": "single-stim", "word": "binder", "stimulus": "<p id=\"stim\">BINDER</p>", "conditions": [12, 1600, "v", 12000], "internal_node_id": "0.0-182.0", "trial": 7, "time_elapsed": 1286255, "serialpos": 1, "key_press": -1, "wordID": 126, "type": "PRES_VIS", "trial_index": 254}, "uniqueid": "MTK1698:3XLBSAQ9Z5JF00RMYRX5H9XEVJS7ZJ", "dateTime": 1516129657458}, {"current_trial": 255, "trialdata": {"rt": -1, "trial_type": "single-stim", "word": "poet", "stimulus": "<p id=\"stim\">POET</p>", "conditions": [12, 1600, "v", 12000], "internal_node_id": "0.0-183.0", "trial": 7, "time_elapsed": 1289045, "serialpos": 2, "key_press": -1, "wordID": 1094, "type": "PRES_VIS", "trial_index": 255}, "uniqueid": "MTK1698:3XLBSAQ9Z5JF00RMYRX5H9XEVJS7ZJ", "dateTime": 1516129660248}, {"current_trial": 256, "trialdata": {"rt": -1, "trial_type": "single-stim", "word": "leg", "stimulus": "<p id=\"stim\">LEG</p>", "conditions": [12, 1600, "v", 12000], "internal_node_id": "0.0-184.0", "trial": 7, "time_elapsed": 1291634, "serialpos": 3, "key_press": -1, "wordID": 808, "type": "PRES_VIS", "trial_index": 256}, "uniqueid": "MTK1698:3XLBSAQ9Z5JF00RMYRX5H9XEVJS7ZJ", "dateTime": 1516129662837}, {"current_trial": 257, "trialdata": {"rt": -1, "trial_type": "single-stim", "word": "softball", "stimulus": "<p id=\"stim\">SOFTBALL</p>", "conditions": [12, 1600, "v", 12000], "internal_node_id": "0.0-185.0", "trial": 7, "time_elapsed": 1294328, "serialpos": 4, "key_press": -1, "wordID": 1342, "type": "PRES_VIS", "trial_index": 257}, "uniqueid": "MTK1698:3XLBSAQ9Z5JF00RMYRX5H9XEVJS7ZJ", "dateTime": 1516129665531}, {"current_trial": 258, "trialdata": {"rt": -1, "trial_type": "single-stim", "word": "canyon", "stimulus": "<p id=\"stim\">CANYON</p>", "conditions": [12, 1600, "v", 12000], "internal_node_id": "0.0-186.0", "trial": 7, "time_elapsed": 1297061, "serialpos": 5, "key_press": -1, "wordID": 234, "type": "PRES_VIS", "trial_index": 258}, "uniqueid": "MTK1698:3XLBSAQ9Z5JF00RMYRX5H9XEVJS7ZJ", "dateTime": 1516129668264}, {"current_trial": 259, "trialdata": {"rt": -1, "trial_type": "single-stim", "word": "valley", "stimulus": "<p id=\"stim\">VALLEY</p>", "conditions": [12, 1600, "v", 12000], "internal_node_id": "0.0-187.0", "trial": 7, "time_elapsed": 1299737, "serialpos": 6, "key_press": -1, "wordID": 1544, "type": "PRES_VIS", "trial_index": 259}, "uniqueid": "MTK1698:3XLBSAQ9Z5JF00RMYRX5H9XEVJS7ZJ", "dateTime": 1516129670940}, {"current_trial": 260, "trialdata": {"rt": -1, "trial_type": "single-stim", "word": "hood", "stimulus": "<p id=\"stim\">HOOD</p>", "conditions": [12, 1600, "v", 12000], "internal_node_id": "0.0-188.0", "trial": 7, "time_elapsed": 1302381, "serialpos": 7, "key_press": -1, "wordID": 713, "type": "PRES_VIS", "trial_index": 260}, "uniqueid": "MTK1698:3XLBSAQ9Z5JF00RMYRX5H9XEVJS7ZJ", "dateTime": 1516129673584}, {"current_trial": 261, "trialdata": {"rt": -1, "trial_type": "single-stim", "word": "shoulder", "stimulus": "<p id=\"stim\">SHOULDER</p>", "conditions": [12, 1600, "v", 12000], "internal_node_id": "0.0-189.0", "trial": 7, "time_elapsed": 1304800, "serialpos": 8, "key_press": -1, "wordID": 1293, "type": "PRES_VIS", "trial_index": 261}, "uniqueid": "MTK1698:3XLBSAQ9Z5JF00RMYRX5H9XEVJS7ZJ", "dateTime": 1516129676003}, {"current_