{"assignmentId": "3IQ1VMJRYURIDB771WFQECXBIHL9AV", "workerId": "MTK1863", "questiondata": {"origin": "United States", "strat-rehearsal": "75", "marital": "Single", "education": "Some college", "ethnicity": "Hispanic", "color_depth": 24, "distracted": "No", "wrote-notes": "No", "strat-other": "remembering the words by the first letter of the word. (This was hard! but super fun thank you!)", "screen_width": 1366, "avail_screen_width": 1366, "avail_screen_height": 724, "strat-image": "65", "language": "english", "gender": "Female", "age": "31", "gender_other": "", "race": ["White"], "strat-categorize": "61", "pixel_depth": 24, "strat-spatial": "27", "strat-story": "49", "race_other": "", "screen_height": 768}, "bonus": 0, "hitId": "3LVTFB9DE5PNSH32EWDK792J87RQGW", "counterbalance": 2839, "useragent": "Mozilla/5.0 (Windows NT 6.1; Win64; x64) AppleWebKit/537.36 (KHTML, like Gecko) Chrome/63.0.3239.132 Safari/537.36", "eventdata": [{"eventtype": "initialized", "interval": 0, "value": null, "timestamp": 1516480065093}, {"eventtype": "window_resize", "interval": 1, "value": [1366, 723], "timestamp": 1516480065094}, {"eventtype": "focus", "interval": 2741491, "value": "off", "timestamp": 1516482806585}, {"eventtype": "focus", "interval": 24918, "value": "on", "timestamp": 1516482831503}], "data": [{"current_trial": 0, "trialdata": {"rt": 2516, "trial_type": "text", "internal_node_id": "0.0-0.0", "time_elapsed": 2525, "key_press": 13, "type": "INSTRUCTIONS", "trial_index": 0}, "uniqueid": "MTK1863:3IQ1VMJRYURIDB771WFQECXBIHL9AV", "dateTime": 1516480068324}, {"current_trial": 1, "trialdata": {"rt": 15500, "trial_type": "text", "internal_node_id": "0.0-1.0", "time_elapsed": 18033, "key_press": 13, "type": "INSTRUCTIONS", "trial_index": 1}, "uniqueid": "MTK1863:3IQ1VMJRYURIDB771WFQECXBIHL9AV", "dateTime": 1516480083830}, {"current_trial": 2, "trialdata": {"rt": [26035], "trial_type": "audio-test", "responses": ["ocean"], "internal_node_id": "0.0-2.0", "time_elapsed": 44127, "type": "AUDIO_TEST", "trial_index": 2}, "uniqueid": "MTK1863:3IQ1VMJRYURIDB771WFQECXBIHL9AV", "dateTime": 1516480109923}, {"current_trial": 3, "trialdata": {"rt": [23722], "trial_type": "audio-test", "responses": ["crystal"], "internal_node_id": "0.0-3.0", "time_elapsed": 67871, "type": "AUDIO_TEST", "trial_index": 3}, "uniqueid": "MTK1863:3IQ1VMJRYURIDB771WFQECXBIHL9AV", "dateTime": 1516480133667}, {"current_trial": 4, "trialdata": {"rt": [6886], "trial_type": "audio-test", "responses": ["spice"], "internal_node_id": "0.0-4.0", "time_elapsed": 74775, "type": "AUDIO_TEST", "trial_index": 4}, "uniqueid": "MTK1863:3IQ1VMJRYURIDB771WFQECXBIHL9AV", "dateTime": 1516480140571}, {"current_trial": 5, "trialdata": {"rt": 37677, "trial_type": "survey-text", "responses": "{\"Q0\":\"9:00 p.m\",\"Q1\":\"6:00 a.m\",\"Q2\":\"5\"}", "internal_node_id": "0.0-5.0", "time_elapsed": 113210, "type": "SLEEP_SURVEY", "trial_index": 5}, "uniqueid": "MTK1863:3IQ1VMJRYURIDB771WFQECXBIHL9AV", "dateTime": 1516480179007}, {"current_trial": 6, "trialdata": {"rt": 27920, "trial_type": "text", "internal_node_id": "0.0-6.0", "time_elapsed": 142134, "key_press": 13, "type": "INSTRUCTIONS", "trial_index": 6}, "uniqueid": "MTK1863:3IQ1VMJRYURIDB771WFQECXBIHL9AV", "dateTime": 1516480207931}, {"current_trial": 7, "trialdata": {"rt": 5656, "trial_type": "text", "internal_node_id": "0.0-7.0", "time_elapsed": 148294, "key_press": 13, "type": "INSTRUCTIONS", "trial_index": 7}, "uniqueid": "MTK1863:3IQ1VMJRYURIDB771WFQECXBIHL9AV", "dateTime": 1516480214090}, {"current_trial": 8, "trialdata": {"rt": 2830, "trial_type": "text", "internal_node_id": "0.0-8.0", "time_elapsed": 151627, "key_press": 13, "type": "INSTRUCTIONS", "trial_index": 8}, "uniqueid": "MTK1863:3IQ1VMJRYURIDB771WFQECXBIHL9AV", "dateTime": 1516480217424}, {"current_trial": 9, "trialdata": {"rt": [11845], "trial_type": "math-distractor", "key_times": [10706, 11149, 11845], "responses": ["17"], "num2": [5, 3], "num3": [5, 7], "conditions": [18, 1200, "v", 18000], "internal_node_id": "0.0-9.0", "key_presses": [49, 55, 13], "trial": 0, "time_elapsed": 170648, "type": "DISTRACTOR", "trial_index": 9, "num1": [7, 9]}, "uniqueid": "MTK1863:3IQ1VMJRYURIDB771WFQECXBIHL9AV", "dateTime": 1516480236445}, {"current_trial": 10, "trialdata": {"rt": -1, "trial_type": "single-stim", "stimulus": "<p id=\"stim\">10</p>", "internal_node_id": "0.0-10.0-0.0", "time_elapsed": 173653, "key_press": -1, "trial_index": 10}, "uniqueid": "MTK1863:3IQ1VMJRYURIDB771WFQECXBIHL9AV", "dateTime": 1516480239450}, {"current_trial": 11, "trialdata": {"rt": -1, "trial_type": "single-stim", "stimulus": "<p id=\"stim\">9</p>", "internal_node_id": "0.0-10.0-1.0", "time_elapsed": 174657, "key_press": -1, "trial_index": 11}, "uniqueid": "MTK1863:3IQ1VMJRYURIDB771WFQECXBIHL9AV", "dateTime": 1516480240453}, {"current_trial": 12, "trialdata": {"rt": -1, "trial_type": "single-stim", "stimulus": "<p id=\"stim\">8</p>", "internal_node_id": "0.0-10.0-2.0", "time_elapsed": 175660, "key_press": -1, "trial_index": 12}, "uniqueid": "MTK1863:3IQ1VMJRYURIDB771WFQECXBIHL9AV", "dateTime": 1516480241456}, {"current_trial": 13, "trialdata": {"rt": -1, "trial_type": "single-stim", "stimulus": "<p id=\"stim\">7</p>", "internal_node_id": "0.0-10.0-3.0", "time_elapsed": 176663, "key_press": -1, "trial_index": 13}, "uniqueid": "MTK1863:3IQ1VMJRYURIDB771WFQECXBIHL9AV", "dateTime": 1516480242459}, {"current_trial": 14, "trialdata": {"rt": -1, "trial_type": "single-stim", "stimulus": "<p id=\"stim\">6</p>", "internal_node_id": "0.0-10.0-4.0", "time_elapsed": 177666, "key_press": -1, "trial_index": 14}, "uniqueid": "MTK1863:3IQ1VMJRYURIDB771WFQECXBIHL9AV", "dateTime": 1516480243462}, {"current_trial": 15, "trialdata": {"rt": -1, "trial_type": "single-stim", "stimulus": "<p id=\"stim\">5</p>", "internal_node_id": "0.0-10.0-5.0", "time_elapsed": 178669, "key_press": -1, "trial_index": 15}, "uniqueid": "MTK1863:3IQ1VMJRYURIDB771WFQECXBIHL9AV", "dateTime": 1516480244465}, {"current_trial": 16, "trialdata": {"rt": -1, "trial_type": "single-stim", "stimulus": "<p id=\"stim\">4</p>", "internal_node_id": "0.0-10.0-6.0", "time_elapsed": 179672, "key_press": -1, "trial_index": 16}, "uniqueid": "MTK1863:3IQ1VMJRYURIDB771WFQECXBIHL9AV", "dateTime": 1516480245468}, {"current_trial": 17, "trialdata": {"rt": -1, "trial_type": "single-stim", "stimulus": "<p id=\"stim\">3</p>", "internal_node_id": "0.0-10.0-7.0", "time_elapsed": 180675, "key_press": -1, "trial_index": 17}, "uniqueid": "MTK1863:3IQ1VMJRYURIDB771WFQECXBIHL9AV", "dateTime": 1516480246471}, {"current_trial": 18, "trialdata": {"rt": -1, "trial_type": "single-stim", "stimulus": "<p id=\"stim\">2</p>", "internal_node_id": "0.0-10.0-8.0", "time_elapsed": 181677, "key_press": -1, "trial_index": 18}, "uniqueid": "MTK1863:3IQ1VMJRYURIDB771WFQECXBIHL9AV", "dateTime": 1516480247474}, {"current_trial": 19, "trialdata": {"rt": -1, "trial_type": "single-stim", "stimulus": "<p id=\"stim\">1</p>", "internal_node_id": "0.0-10.0-9.0", "time_elapsed": 182679, "key_press": -1, "trial_index": 19}, "uniqueid": "MTK1863:3IQ1VMJRYURIDB771WFQECXBIHL9AV", "dateTime": 1516480248476}, {"current_trial": 20, "trialdata": {"rt": -1, "trial_type": "single-stim", "stimulus": "<p id=\"stim\">+</p>", "internal_node_id": "0.0-11.0-0.0", "time_elapsed": 184182, "key_press": -1, "type": "FIXATION", "trial_index": 20}, "uniqueid": "MTK1863:3IQ1VMJRYURIDB771WFQECXBIHL9AV", "dateTime": 1516480249979}, {"current_trial": 21, "trialdata": {"rt": -1, "trial_type": "single-stim", "word": "laser", "stimulus": "<p id=\"stim\">LASER</p>", "conditions": [18, 1200, "v", 18000], "internal_node_id": "0.0-12.0", "trial": 0, "time_elapsed": 185385, "serialpos": 0, "key_press": -1, "wordID": 800, "type": "PRES_VIS", "trial_index": 21}, "uniqueid": "MTK1863:3IQ1VMJRYURIDB771WFQECXBIHL9AV", "dateTime": 1516480251182}, {"current_trial": 22, "trialdata": {"rt": -1, "trial_type": "single-stim", "word": "tile", "stimulus": "<p id=\"stim\">TILE</p>", "conditions": [18, 1200, "v", 18000], "internal_node_id": "0.0-13.0", "trial": 0, "time_elapsed": 187591, "serialpos": 1, "key_press": -1, "wordID": 1467, "type": "PRES_VIS", "trial_index": 22}, "uniqueid": "MTK1863:3IQ1VMJRYURIDB771WFQECXBIHL9AV", "dateTime": 1516480253388}, {"current_trial": 23, "trialdata": {"rt": -1, "trial_type": "single-stim", "word": "puddle", "stimulus": "<p id=\"stim\">PUDDLE</p>", "conditions": [18, 1200, "v", 18000], "internal_node_id": "0.0-14.0", "trial": 0, "time_elapsed": 189590, "serialpos": 2, "key_press": -1, "wordID": 1139, "type": "PRES_VIS", "trial_index": 23}, "uniqueid": "MTK1863:3IQ1VMJRYURIDB771WFQECXBIHL9AV", "dateTime": 1516480255386}, {"current_trial": 24, "trialdata": {"rt": -1, "trial_type": "single-stim", "word": "space", "stimulus": "<p id=\"stim\">SPACE</p>", "conditions": [18, 1200, "v", 18000], "internal_node_id": "0.0-15.0", "trial": 0, "time_elapsed": 191630, "serialpos": 3, "key_press": -1, "wordID": 1344, "type": "PRES_VIS", "trial_index": 24}, "uniqueid": "MTK1863:3IQ1VMJRYURIDB771WFQECXBIHL9AV", "dateTime": 1516480257427}, {"current_trial": 25, "trialdata": {"rt": -1, "trial_type": "single-stim", "word": "donor", "stimulus": "<p id=\"stim\">DONOR</p>", "conditions": [18, 1200, "v", 18000], "internal_node_id": "0.0-16.0", "trial": 0, "time_elapsed": 193950, "serialpos": 4, "key_press": -1, "wordID": 484, "type": "PRES_VIS", "trial_index": 25}, "uniqueid": "MTK1863:3IQ1VMJRYURIDB771WFQECXBIHL9AV", "dateTime": 1516480259746}, {"current_trial": 26, "trialdata": {"rt": -1, "trial_type": "single-stim", "word": "scarecrow", "stimulus": "<p id=\"stim\">SCARECROW</p>", "conditions": [18, 1200, "v", 18000], "internal_node_id": "0.0-17.0", "trial": 0, "time_elapsed": 196091, "serialpos": 5, "key_press": -1, "wordID": 1244, "type": "PRES_VIS", "trial_index": 26}, "uniqueid": "MTK1863:3IQ1VMJRYURIDB771WFQECXBIHL9AV", "dateTime": 1516480261888}, {"current_trial": 27, "trialdata": {"rt": -1, "trial_type": "single-stim", "word": "scotch", "stimulus": "<p id=\"stim\">SCOTCH</p>", "conditions": [18, 1200, "v", 18000], "internal_node_id": "0.0-18.0", "trial": 0, "time_elapsed": 198148, "serialpos": 6, "key_press": -1, "wordID": 1250, "type": "PRES_VIS", "trial_index": 27}, "uniqueid": "MTK1863:3IQ1VMJRYURIDB771WFQECXBIHL9AV", "dateTime": 1516480263945}, {"current_trial": 28, "trialdata": {"rt": -1, "trial_type": "single-stim", "word": "wrench", "stimulus": "<p id=\"stim\">WRENCH</p>", "conditions": [18, 1200, "v", 18000], "internal_node_id": "0.0-19.0", "trial": 0, "time_elapsed": 200214, "serialpos": 7, "key_press": -1, "wordID": 1624, "type": "PRES_VIS", "trial_index": 28}, "uniqueid": "MTK1863:3IQ1VMJRYURIDB771WFQECXBIHL9AV", "dateTime": 1516480266011}, {"current_trial": 29, "trialdata": {"rt": -1, "trial_type": "single-stim", "word": "branch", "stimulus": "<p id=\"stim\">BRANCH</p>", "conditions": [18, 1200, "v", 18000], "internal_node_id": "0.0-20.0", "trial": 0, "time_elapsed": 202293, "serialpos": 8, "key_press": -1, "wordID": 167, "type": "PRES_VIS", "trial_index": 29}, "uniqueid": "MTK1863:3IQ1VMJRYURIDB771WFQECXBIHL9AV", "dateTime": 1516480268090}, {"current_trial": 30, "trialdata": {"rt": -1, "trial_type": "single-stim", "word": "bathtub", "stimulus": "<p id=\"stim\">BATHTUB</p>", "conditions": [18, 1200, "v", 18000], "internal_node_id": "0.0-21.0", "trial": 0, "time_elapsed": 204656, "serialpos": 9, "key_press": -1, "wordID": 99, "type": "PRES_VIS", "trial_index": 30}, "uniqueid": "MTK1863:3IQ1VMJRYURIDB771WFQECXBIHL9AV", "dateTime": 1516480270453}, {"current_trial": 31, "trialdata": {"rt": -1, "trial_type": "single-stim", "word": "ozone", "stimulus": "<p id=\"stim\">OZONE</p>", "conditions": [18, 1200, "v", 18000], "internal_node_id": "0.0-22.0", "trial": 0, "time_elapsed": 206869, "serialpos": 10, "key_press": -1, "wordID": 995, "type": "PRES_VIS", "trial_index": 31}, "uniqueid": "MTK1863:3IQ1VMJRYURIDB771WFQECXBIHL9AV", "dateTime": 1516480272666}, {"current_trial": 32, "trialdata": {"rt": -1, "trial_type": "single-stim", "word": "neutron", "stimulus": "<p id=\"stim\">NEUTRON</p>", "conditions": [18, 1200, "v", 18000], "internal_node_id": "0.0-23.0", "trial": 0, "time_elapsed": 209009, "serialpos": 11, "key_press": -1, "wordID": 946, "type": "PRES_VIS", "trial_index": 32}, "uniqueid": "MTK1863:3IQ1VMJRYURIDB771WFQECXBIHL9AV", "dateTime": 1516480274806}, {"current_trial": 33, "trialdata": {"rt": -1, "trial_type": "single-stim", "word": "canal", "stimulus": "<p id=\"stim\">CANAL</p>", "conditions": [18, 1200, "v", 18000], "internal_node_id": "0.0-24.0", "trial": 0, "time_elapsed": 211323, "serialpos": 12, "key_press": -1, "wordID": 225, "type": "PRES_VIS", "trial_index": 33}, "uniqueid": "MTK1863:3IQ1VMJRYURIDB771WFQECXBIHL9AV", "dateTime": 1516480277120}, {"current_trial": 34, "trialdata": {"rt": -1, "trial_type": "single-stim", "word": "snack", "stimulus": "<p id=\"stim\">SNACK</p>", "conditions": [18, 1200, "v", 18000], "internal_node_id": "0.0-25.0", "trial": 0, "time_elapsed": 213625, "serialpos": 13, "key_press": -1, "wordID": 1330, "type": "PRES_VIS", "trial_index": 34}, "uniqueid": "MTK1863:3IQ1VMJRYURIDB771WFQECXBIHL9AV", "dateTime": 1516480279421}, {"current_trial": 35, "trialdata": {"rt": -1, "trial_type": "single-stim", "word": "pastry", "stimulus": "<p id=\"stim\">PASTRY</p>", "conditions": [18, 1200, "v", 18000], "internal_node_id": "0.0-26.0", "trial": 0, "time_elapsed": 215700, "serialpos": 14, "key_press": -1, "wordID": 1021, "type": "PRES_VIS", "trial_index": 35}, "uniqueid": "MTK1863:3IQ1VMJRYURIDB771WFQECXBIHL9AV", "dateTime": 1516480281496}, {"current_trial": 36, "trialdata": {"rt": -1, "trial_type": "single-stim", "word": "pepper", "stimulus": "<p id=\"stim\">PEPPER</p>", "conditions": [18, 1200, "v", 18000], "internal_node_id": "0.0-27.0", "trial": 0, "time_elapsed": 218057, "serialpos": 15, "key_press": -1, "wordID": 1046, "type": "PRES_VIS", "trial_index": 36}, "uniqueid": "MTK1863:3IQ1VMJRYURIDB771WFQECXBIHL9AV", "dateTime": 1516480283853}, {"current_trial": 37, "trialdata": {"rt": -1, "trial_type": "single-stim", "word": "rebel", "stimulus": "<p id=\"stim\">REBEL</p>", "conditions": [18, 1200, "v", 18000], "internal_node_id": "0.0-28.0", "trial": 0, "time_elapsed": 220316, "serialpos": 16, "key_press": -1, "wordID": 1171, "type": "PRES_VIS", "trial_index": 37}, "uniqueid": "MTK1863:3IQ1VMJRYURIDB771WFQECXBIHL9AV", "dateTime": 1516480286112}, {"current_trial": 38, "trialdata": {"rt": -1, "trial_type": "single-stim", "word": "tombstone", "stimulus": "<p id=\"stim\">TOMBSTONE</p>", "conditions": [18, 1200, "v", 18000], "internal_node_id": "0.0-29.0", "trial": 0, "time_elapsed": 222701, "serialpos": 17, "key_press": -1, "wordID": 1477, "type": "PRES_VIS", "trial_index": 38}, "uniqueid": "MTK1863:3IQ1VMJRYURIDB771WFQECXBIHL9AV", "dateTime": 1516480288497}, {"current_trial": 39, "trialdata": {"rt": -1, "trial_type": "single-stim", "stimulus": "", "internal_node_id": "0.0-30.0-0.0", "time_elapsed": 224906, "key_press": -1, "type": "PRE_RECALL_DELAY", "trial_index": 39}, "uniqueid": "MTK1863:3IQ1VMJRYURIDB771WFQECXBIHL9AV", "dateTime": 1516480290702}, {"current_trial": 40, "trialdata": {"rt": -1000, "trial_type": "single-audio", "stimulus": "/static/audio/400Hz.wav", "internal_node_id": "0.0-31.0", "time_elapsed": 225411, "key_press": -1, "type": "PRE_RECALL_ALERT", "trial_index": 40}, "uniqueid": "MTK1863:3IQ1VMJRYURIDB771WFQECXBIHL9AV", "dateTime": 1516480291208}, {"current_trial": 41, "trialdata": {"rt": [7174, 10514, 13289, 17142, 35053, 42244, 44612, 53426], "recwords": ["tombstone", "tile", "bird", "tone", "scarecrow", "bridge", "tile", "+"], "key_times": [2932, 3230, 3556, 4626, 5108, 5408, 5780, 6062, 6347, 7174, 8807, 9118, 9328, 9695, 10514, 11774, 12128, 12371, 12642, 13289, 15535, 15869, 16179, 16509, 17142, 20874, 21178, 22239, 22703, 22965, 26058, 27654, 28007, 29125, 29784, 30100, 30500, 31856, 32035, 32201, 32373, 33452, 33790, 34042, 34329, 34686, 35053, 40029, 40314, 40558, 41123, 41377, 41542, 42244, 43075, 43389, 43599, 43985, 44612, 51539, 51808, 53426], "trial_type": "free-recall", "conditions": [18, 1200, "v", 18000], "internal_node_id": "0.0-32.0-0.0", "key_presses": [84, 79, 77, 66, 83, 84, 79, 78, 69, 13, 84, 73, 76, 69, 13, 66, 73, 82, 68, 13, 84, 79, 78, 69, 13, 83, 67, 65, 82, 69, 67, 8, 8, 67, 82, 79, 87, 8, 8, 8, 8, 69, 67, 82, 79, 87, 13, 66, 82, 73, 68, 71, 69, 13, 84, 73, 76, 69, 13, 16, 187, 13], "trial": 0, "time_elapsed": 285356, "type": "FREE_RECALL", "trial_index": 41}, "uniqueid": "MTK1863:3IQ1VMJRYURIDB771WFQECXBIHL9AV", "dateTime": 1516480351160}, {"current_trial": 42, "trialdata": {"rt": 2395, "trial_type": "text", "internal_node_id": "0.0-33.0", "time_elapsed": 289762, "key_press": 13, "type": "INSTRUCTIONS", "trial_index": 42}, "uniqueid": "MTK1863:3IQ1VMJRYURIDB771WFQECXBIHL9AV", "dateTime": 1516480355558}, {"current_trial": 43, "trialdata": {"rt": [6858, 10286], "trial_type": "math-distractor", "key_times": [6077, 6207, 6858, 9497, 9916, 10286, 17814, 17944], "responses": ["21", "10"], "num2": [7, 1, 9], "num3": [9, 5, 5], "conditions": [18, 1200, "v", 18000], "internal_node_id": "0.0-34.0", "key_presses": [50, 49, 13, 49, 48, 13, 50, 51], "trial": 1, "time_elapsed": 309722, "type": "DISTRACTOR", "trial_index": 43, "num1": [4, 4, 8]}, "uniqueid": "MTK1863:3IQ1VMJRYURIDB771WFQECXBIHL9AV", "dateTime": 1516480375518}, {"current_trial": 44, "trialdata": {"rt": -1, "trial_type": "single-stim", "stimulus": "<p id=\"stim\">10</p>", "internal_node_id": "0.0-35.0-0.0", "time_elapsed": 312725, "key_press": -1, "trial_index": 44}, "uniqueid": "MTK1863:3IQ1VMJRYURIDB771WFQECXBIHL9AV", "dateTime": 1516480378521}, {"current_trial": 45, "trialdata": {"rt": -1, "trial_type": "single-stim", "stimulus": "<p id=\"stim\">9</p>", "internal_node_id": "0.0-35.0-1.0", "time_elapsed": 313727, "key_press": -1, "trial_index": 45}, "uniqueid": "MTK1863:3IQ1VMJRYURIDB771WFQECXBIHL9AV", "dateTime": 1516480379523}, {"current_trial": 46, "trialdata": {"rt": -1, "trial_type": "single-stim", "stimulus": "<p id=\"stim\">8</p>", "internal_node_id": "0.0-35.0-2.0", "time_elapsed": 314729, "key_press": -1, "trial_index": 46}, "uniqueid": "MTK1863:3IQ1VMJRYURIDB771WFQECXBIHL9AV", "dateTime": 1516480380525}, {"current_trial": 47, "trialdata": {"rt": -1, "trial_type": "single-stim", "stimulus": "<p id=\"stim\">7</p>", "internal_node_id": "0.0-35.0-3.0", "time_elapsed": 315731, "key_press": -1, "trial_index": 47}, "uniqueid": "MTK1863:3IQ1VMJRYURIDB771WFQECXBIHL9AV", "dateTime": 1516480381527}, {"current_trial": 48, "trialdata": {"rt": -1, "trial_type": "single-stim", "stimulus": "<p id=\"stim\">6</p>", "internal_node_id": "0.0-35.0-4.0", "time_elapsed": 316733, "key_press": -1, "trial_index": 48}, "uniqueid": "MTK1863:3IQ1VMJRYURIDB771WFQECXBIHL9AV", "dateTime": 1516480382529}, {"current_trial": 49, "trialdata": {"rt": -1, "trial_type": "single-stim", "stimulus": "<p id=\"stim\">5</p>", "internal_node_id": "0.0-35.0-5.0", "time_elapsed": 317735, "key_press": -1, "trial_index": 49}, "uniqueid": "MTK1863:3IQ1VMJRYURIDB771WFQECXBIHL9AV", "dateTime": 1516480383531}, {"current_trial": 50, "trialdata": {"rt": -1, "trial_type": "single-stim", "stimulus": "<p id=\"stim\">4</p>", "internal_node_id": "0.0-35.0-6.0", "time_elapsed": 318737, "key_press": -1, "trial_index": 50}, "uniqueid": "MTK1863:3IQ1VMJRYURIDB771WFQECXBIHL9AV", "dateTime": 1516480384533}, {"current_trial": 51, "trialdata": {"rt": -1, "trial_type": "single-stim", "stimulus": "<p id=\"stim\">3</p>", "internal_node_id": "0.0-35.0-7.0", "time_elapsed": 319739, "key_press": -1, "trial_index": 51}, "uniqueid": "MTK1863:3IQ1VMJRYURIDB771WFQECXBIHL9AV", "dateTime": 1516480385535}, {"current_trial": 52, "trialdata": {"rt": -1, "trial_type": "single-stim", "stimulus": "<p id=\"stim\">2</p>", "internal_node_id": "0.0-35.0-8.0", "time_elapsed": 320741, "key_press": -1, "trial_index": 52}, "uniqueid": "MTK1863:3IQ1VMJRYURIDB771WFQECXBIHL9AV", "dateTime": 1516480386537}, {"current_trial": 53, "trialdata": {"rt": -1, "trial_type": "single-stim", "stimulus": "<p id=\"stim\">1</p>", "internal_node_id": "0.0-35.0-9.0", "time_elapsed": 321743, "key_press": -1, "trial_index": 53}, "uniqueid": "MTK1863:3IQ1VMJRYURIDB771WFQECXBIHL9AV", "dateTime": 1516480387539}, {"current_trial": 54, "trialdata": {"rt": -1, "trial_type": "single-stim", "stimulus": "<p id=\"stim\">+</p>", "internal_node_id": "0.0-36.0-0.0", "time_elapsed": 323245, "key_press": -1, "type": "FIXATION", "trial_index": 54}, "uniqueid": "MTK1863:3IQ1VMJRYURIDB771WFQECXBIHL9AV", "dateTime": 1516480389041}, {"current_trial": 55, "trialdata": {"rt": -1, "trial_type": "single-stim", "word": "champagne", "stimulus": "<p id=\"stim\">CHAMPAGNE</p>", "conditions": [18, 1200, "v", 18000], "internal_node_id": "0.0-37.0", "trial": 1, "time_elapsed": 324447, "serialpos": 0, "key_press": -1, "wordID": 277, "type": "PRES_VIS", "trial_index": 55}, "uniqueid": "MTK1863:3IQ1VMJRYURIDB771WFQECXBIHL9AV", "dateTime": 1516480390243}, {"current_trial": 56, "trialdata": {"rt": -1, "trial_type": "single-stim", "word": "boyfriend", "stimulus": "<p id=\"stim\">BOYFRIEND</p>", "conditions": [18, 1200, "v", 18000], "internal_node_id": "0.0-38.0", "trial": 1, "time_elapsed": 326822, "serialpos": 1, "key_press": -1, "wordID": 161, "type": "PRES_VIS", "trial_index": 56}, "uniqueid": "MTK1863:3IQ1VMJRYURIDB771WFQECXBIHL9AV", "dateTime": 1516480392618}, {"current_trial": 57, "trialdata": {"rt": -1, "trial_type": "single-stim", "word": "marsh", "stimulus": "<p id=\"stim\">MARSH</p>", "conditions": [18, 1200, "v", 18000], "internal_node_id": "0.0-39.0", "trial": 1, "time_elapsed": 329040, "serialpos": 2, "key_press": -1, "wordID": 873, "type": "PRES_VIS", "trial_index": 57}, "uniqueid": "MTK1863:3IQ1VMJRYURIDB771WFQECXBIHL9AV", "dateTime": 1516480394836}, {"current_trial": 58, "trialdata": {"rt": -1, "trial_type": "single-stim", "word": "salt", "stimulus": "<p id=\"stim\">SALT</p>", "conditions": [18, 1200, "v", 18000], "internal_node_id": "0.0-40.0", "trial": 1, "time_elapsed": 331368, "serialpos": 3, "key_press": -1, "wordID": 1228, "type": "PRES_VIS", "trial_index": 58}, "uniqueid": "MTK1863:3IQ1VMJRYURIDB771WFQECXBIHL9AV", "dateTime": 1516480397164}, {"current_trial": 59, "trialdata": {"rt": -1, "trial_type": "single-stim", "word": "witness", "stimulus": "<p id=\"stim\">WITNESS</p>", "conditions": [18, 1200, "v", 18000], "internal_node_id": "0.0-41.0", "trial": 1, "time_elapsed": 333507, "serialpos": 4, "key_press": -1, "wordID": 1617, "type": "PRES_VIS", "trial_index": 59}, "uniqueid": "MTK1863:3IQ1VMJRYURIDB771WFQECXBIHL9AV", "dateTime": 1516480399303}, {"current_trial": 60, "trialdata": {"rt": -1, "trial_type": "single-stim", "word": "highway", "stimulus": "<p id=\"stim\">HIGHWAY</p>", "conditions": [18, 1200, "v", 18000], "internal_node_id": "0.0-42.0", "trial": 1, "time_elapsed": 335586, "serialpos": 5, "key_press": -1, "wordID": 706, "type": "PRES_VIS", "trial_index": 60}, "uniqueid": "MTK1863:3IQ1VMJRYURIDB771WFQECXBIHL9AV", "dateTime": 1516480401382}, {"current_trial": 61, "trialdata": {"rt": -1, "trial_type": "single-stim", "word": "mailman", "stimulus": "<p id=\"stim\">MAILMAN</p>", "conditions": [18, 1200, "v", 18000], "internal_node_id": "0.0-43.0", "trial": 1, "time_elapsed": 337748, "serialpos": 6, "key_press": -1, "wordID": 857, "type": "PRES_VIS", "trial_index": 61}, "uniqueid": "MTK1863:3IQ1VMJRYURIDB771WFQECXBIHL9AV", "dateTime": 1516480403544}, {"current_trial": 62, "trialdata": {"rt": -1, "trial_type": "single-stim", "word": "piano", "stimulus": "<p id=\"stim\">PIANO</p>", "conditions": [18, 1200, "v", 18000], "internal_node_id": "0.0-44.0", "trial": 1, "time_elapsed": 339847, "serialpos": 7, "key_press": -1, "wordID": 1056, "type": "PRES_VIS", "trial_index": 62}, "uniqueid": "MTK1863:3IQ1VMJRYURIDB771WFQECXBIHL9AV", "dateTime": 1516480405643}, {"current_trial": 63, "trialdata": {"rt": -1, "trial_type": "single-stim", "word": "widow", "stimulus": "<p id=\"stim\">WIDOW</p>", "conditions": [18, 1200, "v", 18000], "internal_node_id": "0.0-45.0", "trial": 1, "time_elapsed": 342188, "serialpos": 8, "key_press": -1, "wordID": 1607, "type": "PRES_VIS", "trial_index": 63}, "uniqueid": "MTK1863:3IQ1VMJRYURIDB771WFQECXBIHL9AV", "dateTime": 1516480407984}, {"current_trial": 64, "trialdata": {"rt": -1, "trial_type": "single-stim", "word": "racket", "stimulus": "<p id=\"stim\">RACKET</p>", "conditions": [18, 1200, "v", 18000], "internal_node_id": "0.0-46.0", "trial": 1, "time_elapsed": 344410, "serialpos": 9, "key_press": -1, "wordID": 1154, "type": "PRES_VIS", "trial_index": 64}, "uniqueid": "MTK1863:3IQ1VMJRYURIDB771WFQECXBIHL9AV", "dateTime": 1516480410206}, {"current_trial": 65, "trialdata": {"rt": -1, "trial_type": "single-stim", "word": "hiker", "stimulus": "<p id=\"stim\">HIKER</p>", "conditions": [18, 1200, "v", 18000], "internal_node_id": "0.0-47.0", "trial": 1, "time_elapsed": 346647, "serialpos": 10, "key_press": -1, "wordID": 707, "type": "PRES_VIS", "trial_index": 65}, "uniqueid": "MTK1863:3IQ1VMJRYURIDB771WFQECXBIHL9AV", "dateTime": 1516480412443}, {"current_trial": 66, "trialdata": {"rt": -1, "trial_type": "single-stim", "word": "fleet", "stimulus": "<p id=\"stim\">FLEET</p>", "conditions": [18, 1200, "v", 18000], "internal_node_id": "0.0-48.0", "trial": 1, "time_elapsed": 348656, "serialpos": 11, "key_press": -1, "wordID": 577, "type": "PRES_VIS", "trial_index": 66}, "uniqueid": "MTK1863:3IQ1VMJRYURIDB771WFQECXBIHL9AV", "dateTime": 1516480414452}, {"current_trial": 67, "trialdata": {"rt": -1, "trial_type": "single-stim", "word": "valley", "stimulus": "<p id=\"stim\">VALLEY</p>", "conditions": [18, 1200, "v", 18000], "internal_node_id": "0.0-49.0", "trial": 1, "time_elapsed": 350906, "serialpos": 12, "key_press": -1, "wordID": 1544, "type": "PRES_VIS", "trial_index": 67}, "uniqueid": "MTK1863:3IQ1VMJRYURIDB771WFQECXBIHL9AV", "dateTime": 1516480416702}, {"current_trial": 68, "trialdata": {"rt": -1, "trial_type": "single-stim", "word": "hamper", "stimulus": "<p id=\"stim\">HAMPER</p>", "conditions": [18, 1200, "v", 18000], "internal_node_id": "0.0-50.0", "trial": 1, "time_elapsed": 352994, "serialpos": 13, "key_press": -1, "wordID": 681, "type": "PRES_VIS", "trial_index": 68}, "uniqueid": "MTK1863:3IQ1VMJRYURIDB771WFQECXBIHL9AV", "dateTime": 1516480418798}, {"current_trial": 69, "trialdata": {"rt": -1, "trial_type": "single-stim", "word": "brook", "stimulus": "<p id=\"stim\">BROOK</p>", "conditions": [18, 1200, "v", 18000], "internal_node_id": "0.0-51.0", "trial": 1, "time_elapsed": 355186, "serialpos": 14, "key_press": -1, "wordID": 176, "type": "PRES_VIS", "trial_index": 69}, "uniqueid": "MTK1863:3IQ1VMJRYURIDB771WFQECXBIHL9AV", "dateTime": 1516480420982}, {"current_trial": 70, "trialdata": {"rt": -1, "trial_type": "single-stim", "word": "flashlight", "stimulus": "<p id=\"stim\">FLASHLIGHT</p>", "conditions": [18, 1200, "v", 18000], "internal_node_id": "0.0-52.0", "trial": 1, "time_elapsed": 357556, "serialpos": 15, "key_press": -1, "wordID": 574, "type": "PRES_VIS", "trial_index": 70}, "uniqueid": "MTK1863:3IQ1VMJRYURIDB771WFQECXBIHL9AV", "dateTime": 1516480423352}, {"current_trial": 71, "trialdata": {"rt": -1, "trial_type": "single-stim", "word": "scissors", "stimulus": "<p id=\"stim\">SCISSORS</p>", "conditions": [18, 1200, "v", 18000], "internal_node_id": "0.0-53.0", "trial": 1, "time_elapsed": 359636, "serialpos": 16, "key_press": -1, "wordID": 1249, "type": "PRES_VIS", "trial_index": 71}, "uniqueid": "MTK1863:3IQ1VMJRYURIDB771WFQECXBIHL9AV", "dateTime": 1516480425432}, {"current_trial": 72, "trialdata": {"rt": -1, "trial_type": "single-stim", "word": "doughnut", "stimulus": "<p id=\"stim\">DOUGHNUT</p>", "conditions": [18, 1200, "v", 18000], "internal_node_id": "0.0-54.0", "trial": 1, "time_elapsed": 361925, "serialpos": 17, "key_press": -1, "wordID": 489, "type": "PRES_VIS", "trial_index": 72}, "uniqueid": "MTK1863:3IQ1VMJRYURIDB771WFQECXBIHL9AV", "dateTime": 1516480427721}, {"current_trial": 73, "trialdata": {"rt": -1, "trial_type": "single-stim", "stimulus": "", "internal_node_id": "0.0-55.0-0.0", "time_elapsed": 364197, "key_press": -1, "type": "PRE_RECALL_DELAY", "trial_index": 73}, "uniqueid": "MTK1863:3IQ1VMJRYURIDB771WFQECXBIHL9AV", "dateTime": 1516480429993}, {"current_trial": 74, "trialdata": {"rt": -1000, "trial_type": "single-audio", "stimulus": "/static/audio/400Hz.wav", "internal_node_id": "0.0-56.0", "time_elapsed": 364700, "key_press": -1, "type": "PRE_RECALL_ALERT", "trial_index": 74}, "uniqueid": "MTK1863:3IQ1VMJRYURIDB771WFQECXBIHL9AV", "dateTime": 1516480430496}, {"current_trial": 75, "trialdata": {"rt": [3891, 7095, 9836, 13691, 18033, 21210, 26624, 29164, 31722, 34914, 40808, 49838, 52944, 56025], "recwords": ["+", "widow", "spider", "flashlight", "boyfriend", "donor", "flashlight", "car", "driver", "bridge", "window", "brick", "salt", "pepper"], "key_times": [2927, 3252, 3891, 5056, 5391, 5726, 6065, 6370, 7095, 7899, 8320, 8544, 8938, 9162, 9259, 9836, 10624, 10937, 11314, 11530, 11826, 12211, 12427, 12721, 12808, 12977, 13691, 14766, 15124, 15467, 15919, 16133, 16381, 16624, 16936, 17247, 18033, 18719, 19103, 19449, 20037, 20859, 21210, 23294, 23673, 24076, 24269, 24525, 25242, 25503, 25730, 25854, 25992, 26624, 28051, 28227, 28469, 29164, 29999, 30234, 30487, 30955, 31232, 31305, 31722, 32508, 32817, 33397, 33975, 34235, 34354, 34914, 38704, 39058, 39333, 39571, 39863, 40200, 40808, 47460, 47704, 47913, 48532, 48875, 49838, 51349, 51552, 51937, 52326, 52944, 53779, 54365, 54807, 54955, 55570, 55647, 56025], "trial_type": "free-recall", "conditions": [18, 1200, "v", 18000], "internal_node_id": "0.0-57.0-0.0", "key_presses": [16, 187, 13, 87, 73, 68, 79, 87, 13, 83, 80, 73, 68, 69, 82, 13, 70, 76, 65, 83, 72, 76, 73, 71, 72, 84, 13, 66, 79, 89, 70, 82, 73, 69, 78, 68, 13, 68, 79, 78, 79, 82, 13, 70, 76, 65, 83, 72, 76, 73, 71, 72, 84, 13, 67, 65, 82, 13, 68, 82, 73, 86, 69, 82, 13, 66, 82, 73, 68, 71, 69, 13, 87, 73, 78, 68, 79, 87, 13, 66, 82, 73, 67, 75, 13, 83, 65, 76, 84, 13, 80, 69, 80, 80, 69, 82, 13], "trial": 1, "time_elapsed": 424644, "type": "FREE_RECALL", "trial_index": 75}, "uniqueid": "MTK1863:3IQ1VMJRYURIDB771WFQECXBIHL9AV", "dateTime": 1516480490448}, {"current_trial": 76, "trialdata": {"rt": 4425, "trial_type": "text", "internal_node_id": "0.0-58.0", "time_elapsed": 431079, "key_press": 13, "type": "INSTRUCTIONS", "trial_index": 76}, "uniqueid": "MTK1863:3IQ1VMJRYURIDB771WFQECXBIHL9AV", "dateTime": 1516480496876}, {"current_trial": 77, "trialdata": {"rt": [4621, 9251, 13133, 19637, 22703], "trial_type": "math-distractor", "key_times": [3873, 4360, 4621, 8404, 8875, 9251, 12264, 12454, 13133, 18725, 18866, 19637, 22226, 22703], "responses": ["10", "17", "11", "24", "6"], "num2": [1, 6, 2, 7, 4, 6], "num3": [6, 3, 7, 9, 1, 5], "conditions": [24, 1600, "v", 24000], "internal_node_id": "0.0-59.0", "key_presses": [49, 48, 13, 49, 55, 13, 49, 49, 13, 50, 52, 13, 54, 13], "trial": 2, "time_elapsed": 456089, "type": "DISTRACTOR", "trial_index": 77, "num1": [3, 8, 2, 6, 1, 5]}, "uniqueid": "MTK1863:3IQ1VMJRYURIDB771WFQECXBIHL9AV", "dateTime": 1516480521885}, {"current_trial": 78, "trialdata": {"rt": -1, "trial_type": "single-stim", "stimulus": "<p id=\"stim\">10</p>", "internal_node_id": "0.0-60.0-0.0", "time_elapsed": 459092, "key_press": -1, "trial_index": 78}, "uniqueid": "MTK1863:3IQ1VMJRYURIDB771WFQECXBIHL9AV", "dateTime": 1516480524888}, {"current_trial": 79, "trialdata": {"rt": -1, "trial_type": "single-stim", "stimulus": "<p id=\"stim\">9</p>", "internal_node_id": "0.0-60.0-1.0", "time_elapsed": 460095, "key_press": -1, "trial_index": 79}, "uniqueid": "MTK1863:3IQ1VMJRYURIDB771WFQECXBIHL9AV", "dateTime": 1516480525892}, {"current_trial": 80, "trialdata": {"rt": -1, "trial_type": "single-stim", "stimulus": "<p id=\"stim\">8</p>", "internal_node_id": "0.0-60.0-2.0", "time_elapsed": 461098, "key_press": -1, "trial_index": 80}, "uniqueid": "MTK1863:3IQ1VMJRYURIDB771WFQECXBIHL9AV", "dateTime": 1516480526895}, {"current_trial": 81, "trialdata": {"rt": -1, "trial_type": "single-stim", "stimulus": "<p id=\"stim\">7</p>", "internal_node_id": "0.0-60.0-3.0", "time_elapsed": 462101, "key_press": -1, "trial_index": 81}, "uniqueid": "MTK1863:3IQ1VMJRYURIDB771WFQECXBIHL9AV", "dateTime": 1516480527898}, {"current_trial": 82, "trialdata": {"rt": -1, "trial_type": "single-stim", "stimulus": "<p id=\"stim\">6</p>", "internal_node_id": "0.0-60.0-4.0", "time_elapsed": 463104, "key_press": -1, "trial_index": 82}, "uniqueid": "MTK1863:3IQ1VMJRYURIDB771WFQECXBIHL9AV", "dateTime": 1516480528901}, {"current_trial": 83, "trialdata": {"rt": -1, "trial_type": "single-stim", "stimulus": "<p id=\"stim\">5</p>", "internal_node_id": "0.0-60.0-5.0", "time_elapsed": 464107, "key_press": -1, "trial_index": 83}, "uniqueid": "MTK1863:3IQ1VMJRYURIDB771WFQECXBIHL9AV", "dateTime": 1516480529903}, {"current_trial": 84, "trialdata": {"rt": -1, "trial_type": "single-stim", "stimulus": "<p id=\"stim\">4</p>", "internal_node_id": "0.0-60.0-6.0", "time_elapsed": 465110, "key_press": -1, "trial_index": 84}, "uniqueid": "MTK1863:3IQ1VMJRYURIDB771WFQECXBIHL9AV", "dateTime": 1516480530906}, {"current_trial": 85, "trialdata": {"rt": -1, "trial_type": "single-stim", "stimulus": "<p id=\"stim\">3</p>", "internal_node_id": "0.0-60.0-7.0", "time_elapsed": 466112, "key_press": -1, "trial_index": 85}, "uniqueid": "MTK1863:3IQ1VMJRYURIDB771WFQECXBIHL9AV", "dateTime": 1516480531908}, {"current_trial": 86, "trialdata": {"rt": -1, "trial_type": "single-stim", "stimulus": "<p id=\"stim\">2</p>", "internal_node_id": "0.0-60.0-8.0", "time_elapsed": 467114, "key_press": -1, "trial_index": 86}, "uniqueid": "MTK1863:3IQ1VMJRYURIDB771WFQECXBIHL9AV", "dateTime": 1516480532910}, {"current_trial": 87, "trialdata": {"rt": -1, "trial_type": "single-stim", "stimulus": "<p id=\"stim\">1</p>", "internal_node_id": "0.0-60.0-9.0", "time_elapsed": 468116, "key_press": -1, "trial_index": 87}, "uniqueid": "MTK1863:3IQ1VMJRYURIDB771WFQECXBIHL9AV", "dateTime": 1516480533912}, {"current_trial": 88, "trialdata": {"rt": -1, "trial_type": "single-stim", "stimulus": "<p id=\"stim\">+</p>", "internal_node_id": "0.0-61.0-0.0", "time_elapsed": 469618, "key_press": -1, "type": "FIXATION", "trial_index": 88}, "uniqueid": "MTK1863:3IQ1VMJRYURIDB771WFQECXBIHL9AV", "dateTime": 1516480535414}, {"current_trial": 89, "trialdata": {"rt": -1, "trial_type": "single-stim", "word": "liver", "stimulus": "<p id=\"stim\">LIVER</p>", "conditions": [24, 1600, "v", 24000], "internal_node_id": "0.0-62.0", "trial": 2, "time_elapsed": 471220, "serialpos": 0, "key_press": -1, "wordID": 832, "type": "PRES_VIS", "trial_index": 89}, "uniqueid": "MTK1863:3IQ1VMJRYURIDB771WFQECXBIHL9AV", "dateTime": 1516480537016}, {"current_trial": 90, "trialdata": {"rt": -1, "trial_type": "single-stim", "word": "pecan", "stimulus": "<p id=\"stim\">PECAN</p>", "conditions": [24, 1600, "v", 24000], "internal_node_id": "0.0-63.0", "trial": 2, "time_elapsed": 473974, "serialpos": 1, "key_press": -1, "wordID": 1035, "type": "PRES_VIS", "trial_index": 90}, "uniqueid": "MTK1863:3IQ1VMJRYURIDB771WFQECXBIHL9AV", "dateTime": 1516480539770}, {"current_trial": 91, "trialdata": {"rt": -1, "trial_type": "single-stim", "word": "banquet", "stimulus": "<p id=\"stim\">BANQUET</p>", "conditions": [24, 1600, "v", 24000], "internal_node_id": "0.0-64.0", "trial": 2, "time_elapsed": 476734, "serialpos": 2, "key_press": -1, "wordID": 85, "type": "PRES_VIS", "trial_index": 91}, "uniqueid": "MTK1863:3IQ1VMJRYURIDB771WFQECXBIHL9AV", "dateTime": 1516480542531}, {"current_trial": 92, "trialdata": {"rt": -1, "trial_type": "single-stim", "word": "sausage", "stimulus": "<p id=\"stim\">SAUSAGE</p>", "conditions": [24, 1600, "v", 24000], "internal_node_id": "0.0-65.0", "trial": 2, "time_elapsed": 479144, "serialpos": 3, "key_press": -1, "wordID": 1237, "type": "PRES_VIS", "trial_index": 92}, "uniqueid": "MTK1863:3IQ1VMJRYURIDB771WFQECXBIHL9AV", "dateTime": 1516480544940}, {"current_trial": 93, "trialdata": {"rt": -1, "trial_type": "single-stim", "word": "salad", "stimulus": "<p id=\"stim\">SALAD</p>", "conditions": [24, 1600, "v", 24000], "internal_node_id": "0.0-66.0", "trial": 2, "time_elapsed": 481784, "serialpos": 4, "key_press": -1, "wordID": 1223, "type": "PRES_VIS", "trial_index": 93}, "uniqueid": "MTK1863:3IQ1VMJRYURIDB771WFQECXBIHL9AV", "dateTime": 1516480547580}, {"current_trial": 94, "trialdata": {"rt": -1, "trial_type": "single-stim", "word": "marrow", "stimulus": "<p id=\"stim\">MARROW</p>", "conditions": [24, 1600, "v", 24000], "internal_node_id": "0.0-67.0", "trial": 2, "time_elapsed": 484486, "serialpos": 5, "key_press": -1, "wordID": 871, "type": "PRES_VIS", "trial_index": 94}, "uniqueid": "MTK1863:3IQ1VMJRYURIDB771WFQECXBIHL9AV", "dateTime": 1516480550282}, {"current_trial": 95, "trialdata": {"rt": -1, "trial_type": "single-stim", "word": "pliers", "stimulus": "<p id=\"stim\">PLIERS</p>", "conditions": [24, 1600, "v", 24000], "internal_node_id": "0.0-68.0", "trial": 2, "time_elapsed": 487026, "serialpos": 6, "key_press": -1, "wordID": 1088, "type": "PRES_VIS", "trial_index": 95}, "uniqueid": "MTK1863:3IQ1VMJRYURIDB771WFQECXBIHL9AV", "dateTime": 1516480552822}, {"current_trial": 96, "trialdata": {"rt": -1, "trial_type": "single-stim", "word": "seagull", "stimulus": "<p id=\"stim\">SEAGULL</p>", "conditions": [24, 1600, "v", 24000], "internal_node_id": "0.0-69.0", "trial": 2, "time_elapsed": 489635, "serialpos": 7, "key_press": -1, "wordID": 1260, "type": "PRES_VIS", "trial_index": 96}, "uniqueid": "MTK1863:3IQ1VMJRYURIDB771WFQECXBIHL9AV", "dateTime": 1516480555431}, {"current_trial": 97, "trialdata": {"rt": -1, "trial_type": "single-stim", "word": "softball", "stimulus": "<p id=\"stim\">SOFTBALL</p>", "conditions": [24, 1600, "v", 24000], "internal_node_id": "0.0-70.0", "trial": 2, "time_elapsed": 492126, "serialpos": 8, "key_press": -1, "wordID": 1342, "type": "PRES_VIS", "trial_index": 97}, "uniqueid": "MTK1863:3IQ1VMJRYURIDB771WFQECXBIHL9AV", "dateTime": 1516480557924}, {"current_trial": 98, "trialdata": {"rt": -1, "trial_type": "single-stim", "word": "fragrance", "stimulus": "<p id=\"stim\">FRAGRANCE</p>", "conditions": [24, 1600, "v", 24000], "internal_node_id": "0.0-71.0", "trial": 2, "time_elapsed": 494711, "serialpos": 9, "key_press": -1, "wordID": 598, "type": "PRES_VIS", "trial_index": 98}, "uniqueid": "MTK1863:3IQ1VMJRYURIDB771WFQECXBIHL9AV", "dateTime": 1516480560507}, {"current_trial": 99, "trialdata": {"rt": -1, "trial_type": "single-stim", "word": "perfume", "stimulus": "<p id=\"stim\">PERFUME</p>", "conditions": [24, 1600, "v", 24000], "internal_node_id": "0.0-72.0", "trial": 2, "time_elapsed": 497220, "serialpos": 10, "key_press": -1, "wordID": 1048, "type": "PRES_VIS", "trial_index": 99}, "uniqueid": "MTK1863:3IQ1VMJRYURIDB771WFQECXBIHL9AV", "dateTime": 1516480563016}, {"current_trial": 100, "trialdata": {"rt": -1, "trial_type": "single-stim", "word": "peanut", "stimulus": "<p id=\"stim\">PEANUT</p>", "conditions": [24, 1600, "v", 24000], "internal_node_id": "0.0-73.0", "trial": 2, "time_elapsed": 499641, "serialpos": 11, "key_press": -1, "wordID": 1031, "type": "PRES_VIS", "trial_index": 100}, "uniqueid": "MTK1863:3IQ1VMJRYURIDB771WFQECXBIHL9AV", "dateTime": 1516480565437}, {"current_trial": 101, "trialdata": {"rt": -1, "trial_type": "single-stim", "word": "panther", "stimulus": "<p id=\"stim\">PANTHER</p>", "conditions": [24, 1600, "v", 24000], "internal_node_id": "0.0-74.0", "trial": 2, "time_elapsed": 502213, "serialpos": 12, "key_press": -1, "wordID": 1008, "type": "PRES_VIS", "trial_index": 101}, "uniqueid": "MTK1863:3IQ1VMJRYURIDB771WFQECXBIHL9AV", "dateTime": 1516480568009}, {"current_trial": 102, "trialdata": {"rt": -1, "trial_type": "single-stim", "word": "fox", "stimulus": "<p id=\"stim\">FOX</p>", "conditions": [24, 1600, "v", 24000], "internal_node_id": "0.0-75.0", "trial": 2, "time_elapsed": 504756, "serialpos": 13, "key_press": -1, "wordID": 597, "type": "PRES_VIS", "trial_index": 102}, "uniqueid": "MTK1863:3IQ1VMJRYURIDB771WFQECXBIHL9AV", "dateTime": 1516480570552}, {"current_trial": 103, "trialdata": {"rt": -1, "trial_type": "single-stim", "word": "fireplace", "stimulus": "<p id=\"stim\">FIREPLACE</p>", "conditions": [24, 1600, "v", 24000], "internal_node_id": "0.0-76.0", "trial": 2, "time_elapsed": 507371, "serialpos": 14, "key_press": -1, "wordID": 569, "type": "PRES_VIS", "trial_index": 103}, "uniqueid": "MTK1863:3IQ1VMJRYURIDB771WFQECXBIHL9AV", "dateTime": 1516480573167}, {"current_trial": 104, "trialdata": {"rt": -1, "trial_type": "single-stim", "word": "convict", "stimulus": "<p id=\"stim\">CONVICT</p>", "conditions": [24, 1600, "v", 24000], "internal_node_id": "0.0-77.0", "trial": 2, "time_elapsed": 509920, "serialpos": 15, "key_press": -1, "wordID": 370, "type": "PRES_VIS", "trial_index": 104}, "uniqueid": "MTK1863:3IQ1VMJRYURIDB771WFQECXBIHL9AV", "dateTime": 1516480575716}, {"current_trial": 105, "trialdata": {"rt": -1, "trial_type": "single-stim", "word": "outfit", "stimulus": "<p id=\"stim\">OUTFIT</p>", "conditions": [24, 1600, "v", 24000], "internal_node_id": "0.0-78.0", "trial": 2, "time_elapsed": 512688, "serialpos": 16, "key_press": -1, "wordID": 987, "type": "PRES_VIS", "trial_index": 105}, "uniqueid": "MTK1863:3IQ1VMJRYURIDB771WFQECXBIHL9AV", "dateTime": 1516480578484}, {"current_trial": 106, "trialdata": {"rt": -1, "trial_type": "single-stim", "word": "sidewalk", "stimulus": "<p id=\"stim\">SIDEWALK</p>", "conditions": [24, 1600, "v", 24000], "internal_node_id": "0.0-79.0", "trial": 2, "time_elapsed": 515105, "serialpos": 17, "key_press": -1, "wordID": 1302, "type": "PRES_VIS", "trial_index": 106}, "uniqueid": "MTK1863:3IQ1VMJRYURIDB771WFQECXBIHL9AV", "dateTime": 1516480580901}, {"current_trial": 107, "trialdata": {"rt": -1, "trial_type": "single-stim", "word": "costume", "stimulus": "<p id=\"stim\">COSTUME</p>", "conditions": [24, 1600, "v", 24000], "internal_node_id": "0.0-80.0", "trial": 2, "time_elapsed": 517656, "serialpos": 18, "key_press": -1, "wordID": 382, "type": "PRES_VIS", "trial_index": 107}, "uniqueid": "MTK1863:3IQ1VMJRYURIDB771WFQECXBIHL9AV", "dateTime": 1516480583452}, {"current_trial": 108, "trialdata": {"rt": -1, "trial_type": "single-stim", "word": "kitchen", "stimulus": "<p id=\"stim\">KITCHEN</p>", "conditions": [24, 1600, "v", 24000], "internal_node_id": "0.0-81.0", "trial": 2, "time_elapsed": 520164, "serialpos": 19, "key_press": -1, "wordID": 777, "type": "PRES_VIS", "trial_index": 108}, "uniqueid": "MTK1863:3IQ1VMJRYURIDB771WFQECXBIHL9AV", "dateTime": 1516480585960}, {"current_trial": 109, "trialdata": {"rt": -1, "trial_type": "single-stim", "word": "primate", "stimulus": "<p id=\"stim\">PRIMATE</p>", "conditions": [24, 1600, "v", 24000], "internal_node_id": "0.0-82.0", "trial": 2, "time_elapsed": 522723, "serialpos": 20, "key_press": -1, "wordID": 1122, "type": "PRES_VIS", "trial_index": 109}, "uniqueid": "MTK1863:3IQ1VMJRYURIDB771WFQECXBIHL9AV", "dateTime": 1516480588519}, {"current_trial": 110, "trialdata": {"rt": -1, "trial_type": "single-stim", "word": "clamp", "stimulus": "<p id=\"stim\">CLAMP</p>", "conditions": [24, 1600, "v", 24000], "internal_node_id": "0.0-83.0", "trial": 2, "time_elapsed": 525317, "serialpos": 21, "key_press": -1, "wordID": 315, "type": "PRES_VIS", "trial_index": 110}, "uniqueid": "MTK1863:3IQ1VMJRYURIDB771WFQECXBIHL9AV", "dateTime": 1516480591113}, {"current_trial": 111, "trialdata": {"rt": -1, "trial_type": "single-stim", "word": "piston", "stimulus": "<p id=\"stim\">PISTON</p>", "conditions": [24, 1600, "v", 24000], "internal_node_id": "0.0-84.0", "trial": 2, "time_elapsed": 527862, "serialpos": 22, "key_press": -1, "wordID": 1075, "type": "PRES_VIS", "trial_index": 111}, "uniqueid": "MTK1863:3IQ1VMJRYURIDB771WFQECXBIHL9AV", "dateTime": 1516480593659}, {"current_trial": 112, "trialdata": {"rt": -1, "trial_type": "single-stim", "word": "helmet", "stimulus": "<p id=\"stim\">HELMET</p>", "conditions": [24, 1600, "v", 24000], "internal_node_id": "0.0-85.0", "trial": 2, "time_elapsed": 530517, "serialpos": 23, "key_press": -1, "wordID": 701, "type": "PRES_VIS", "trial_index": 112}, "uniqueid": "MTK1863:3IQ1VMJRYURIDB771WFQECXBIHL9AV", "dateTime": 1516480596314}, {"current_trial": 113, "trialdata": {"rt": -1, "trial_type": "single-stim", "stimulus": "", "internal_node_id": "0.0-86.0-0.0", "time_elapsed": 532917, "key_press": -1, "type": "PRE_RECALL_DELAY", "trial_index": 113}, "uniqueid": "MTK1863:3IQ1VMJRYURIDB771WFQECXBIHL9AV", "dateTime": 1516480598714}, {"current_trial": 114, "trialdata": {"rt": -1000, "trial_type": "single-audio", "stimulus": "/static/audio/400Hz.wav", "internal_node_id": "0.0-87.0", "time_elapsed": 533419, "key_press": -1, "type": "PRE_RECALL_ALERT", "trial_index": 114}, "uniqueid": "MTK1863:3IQ1VMJRYURIDB771WFQECXBIHL9AV", "dateTime": 1516480599216}, {"current_trial": 115, "trialdata": {"rt": [7415, 10535, 14940, 22793, 30989, 37761, 40664, 43819], "recwords": ["helmet", "panther", "fox", "pliers", "raincoat", "boyfriend", "seal", "seagull"], "key_times": [2009, 2167, 2967, 3210, 3457, 3724, 3935, 5254, 6044, 6772, 7415, 8391, 8774, 9022, 9368, 9558, 9764, 9883, 10535, 13270, 13702, 14280, 14940, 20647, 20873, 21100, 21435, 21524, 22161, 22793, 27512, 27740, 28897, 29165, 29532, 29867, 30258, 30581, 30989, 34560, 34948, 35212, 36017, 36228, 36459, 36681, 36950, 37181, 37761, 39074, 39345, 39671, 40025, 40664, 41747, 41972, 42243, 42508, 42805, 43071, 43215, 43819], "trial_type": "free-recall", "conditions": [24, 1600, "v", 24000], "internal_node_id": "0.0-88.0-0.0", "key_presses": [72, 69, 76, 77, 69, 78, 84, 8, 8, 84, 13, 80, 65, 78, 84, 72, 69, 82, 13, 70, 79, 88, 13, 80, 76, 73, 69, 82, 83, 13, 82, 65, 73, 78, 67, 79, 65, 84, 13, 66, 79, 89, 70, 82, 73, 69, 78, 68, 13, 83, 69, 65, 76, 13, 83, 69, 65, 71, 85, 76, 76, 13], "trial": 2, "time_elapsed": 593376, "type": "FREE_RECALL", "trial_index": 115}, "uniqueid": "MTK1863:3IQ1VMJRYURIDB771WFQECXBIHL9AV", "dateTime": 1516480659181}, {"current_trial": 116, "trialdata": {"rt": 51041, "trial_type": "text", "internal_node_id": "0.0-89.0", "time_elapsed": 646429, "key_press": 13, "type": "INSTRUCTIONS", "trial_index": 116}, "uniqueid": "MTK1863:3IQ1VMJRYURIDB771WFQECXBIHL9AV", "dateTime": 1516480712226}, {"current_trial": 117, "trialdata": {"rt": [4881, 7652], "trial_type": "math-distractor", "key_times": [3703, 4559, 4881, 7258, 7652, 10893, 11460, 11474], "responses": ["10", "8"], "num2": [3, 1, 7], "num3": [6, 5, 3], "conditions": [24, 1600, "v", 12000], "internal_node_id": "0.0-90.0", "key_presses": [49, 48, 13, 56, 13, 49, 56, 57], "trial": 3, "time_elapsed": 660438, "type": "DISTRACTOR", "trial_index": 117, "num1": [1, 2, 8]}, "uniqueid": "MTK1863:3IQ1VMJRYURIDB771WFQECXBIHL9AV", "dateTime": 1516480726234}, {"current_trial": 118, "trialdata": {"rt": -1, "trial_type": "single-stim", "stimulus": "<p id=\"stim\">10</p>", "internal_node_id": "0.0-91.0-0.0", "time_elapsed": 663441, "key_press": -1, "trial_index": 118}, "uniqueid": "MTK1863:3IQ1VMJRYURIDB771WFQECXBIHL9AV", "dateTime": 1516480729237}, {"current_trial": 119, "trialdata": {"rt": -1, "trial_type": "single-stim", "stimulus": "<p id=\"stim\">9</p>", "internal_node_id": "0.0-91.0-1.0", "time_elapsed": 664443, "key_press": -1, "trial_index": 119}, "uniqueid": "MTK1863:3IQ1VMJRYURIDB771WFQECXBIHL9AV", "dateTime": 1516480730239}, {"current_trial": 120, "trialdata": {"rt": -1, "trial_type": "single-stim", "stimulus": "<p id=\"stim\">8</p>", "internal_node_id": "0.0-91.0-2.0", "time_elapsed": 665445, "key_press": -1, "trial_index": 120}, "uniqueid": "MTK1863:3IQ1VMJRYURIDB771WFQECXBIHL9AV", "dateTime": 1516480731241}, {"current_trial": 121, "trialdata": {"rt": -1, "trial_type": "single-stim", "stimulus": "<p id=\"stim\">7</p>", "internal_node_id": "0.0-91.0-3.0", "time_elapsed": 666447, "key_press": -1, "trial_index": 121}, "uniqueid": "MTK1863:3IQ1VMJRYURIDB771WFQECXBIHL9AV", "dateTime": 1516480732243}, {"current_trial": 122, "trialdata": {"rt": -1, "trial_type": "single-stim", "stimulus": "<p id=\"stim\">6</p>", "internal_node_id": "0.0-91.0-4.0", "time_elapsed": 667449, "key_press": -1, "trial_index": 122}, "uniqueid": "MTK1863:3IQ1VMJRYURIDB771WFQECXBIHL9AV", "dateTime": 1516480733245}, {"current_trial": 123, "trialdata": {"rt": -1, "trial_type": "single-stim", "stimulus": "<p id=\"stim\">5</p>", "internal_node_id": "0.0-91.0-5.0", "time_elapsed": 668451, "key_press": -1, "trial_index": 123}, "uniqueid": "MTK1863:3IQ1VMJRYURIDB771WFQECXBIHL9AV", "dateTime": 1516480734247}, {"current_trial": 124, "trialdata": {"rt": -1, "trial_type": "single-stim", "stimulus": "<p id=\"stim\">4</p>", "internal_node_id": "0.0-91.0-6.0", "time_elapsed": 669403, "key_press": -1, "trial_index": 124}, "uniqueid": "MTK1863:3IQ1VMJRYURIDB771WFQECXBIHL9AV", "dateTime": 1516480735199}, {"current_trial": 125, "trialdata": {"rt": -1, "trial_type": "single-stim", "stimulus": "<p id=\"stim\">3</p>", "internal_node_id": "0.0-91.0-7.0", "time_elapsed": 670405, "key_press": -1, "trial_index": 125}, "uniqueid": "MTK1863:3IQ1VMJRYURIDB771WFQECXBIHL9AV", "dateTime": 1516480736201}, {"current_trial": 126, "trialdata": {"rt": -1, "trial_type": "single-stim", "stimulus": "<p id=\"stim\">2</p>", "internal_node_id": "0.0-91.0-8.0", "time_elapsed": 671407, "key_press": -1, "trial_index": 126}, "uniqueid": "MTK1863:3IQ1VMJRYURIDB771WFQECXBIHL9AV", "dateTime": 1516480737203}, {"current_trial": 127, "trialdata": {"rt": -1, "trial_type": "single-stim", "stimulus": "<p id=\"stim\">1</p>", "internal_node_id": "0.0-91.0-9.0", "time_elapsed": 672409, "key_press": -1, "trial_index": 127}, "uniqueid": "MTK1863:3IQ1VMJRYURIDB771WFQECXBIHL9AV", "dateTime": 1516480738205}, {"current_trial": 128, "trialdata": {"rt": -1, "trial_type": "single-stim", "stimulus": "<p id=\"stim\">+</p>", "internal_node_id": "0.0-92.0-0.0", "time_elapsed": 673911, "key_press": -1, "type": "FIXATION", "trial_index": 128}, "uniqueid": "MTK1863:3IQ1VMJRYURIDB771WFQECXBIHL9AV", "dateTime": 1516480739707}, {"current_trial": 129, "trialdata": {"rt": -1, "trial_type": "single-stim", "word": "picnic", "stimulus": "<p id=\"stim\">PICNIC</p>", "conditions": [24, 1600, "v", 12000], "internal_node_id": "0.0-93.0", "trial": 3, "time_elapsed": 675513, "serialpos": 0, "key_press": -1, "wordID": 1059, "type": "PRES_VIS", "trial_index": 129}, "uniqueid": "MTK1863:3IQ1VMJRYURIDB771WFQECXBIHL9AV", "dateTime": 1516480741309}, {"current_trial": 130, "trialdata": {"rt": -1, "trial_type": "single-stim", "word": "lumber", "stimulus": "<p id=\"stim\">LUMBER</p>", "conditions": [24, 1600, "v", 12000], "internal_node_id": "0.0-94.0", "trial": 3, "time_elapsed": 678035, "serialpos": 1, "key_press": -1, "wordID": 847, "type": "PRES_VIS", "trial_index": 130}, "uniqueid": "MTK1863:3IQ1VMJRYURIDB771WFQECXBIHL9AV", "dateTime": 1516480743832}, {"current_trial": 131, "trialdata": {"rt": -1, "trial_type": "single-stim", "word": "record", "stimulus": "<p id=\"stim\">RECORD</p>", "conditions": [24, 1600, "v", 12000], "internal_node_id": "0.0-95.0", "trial": 3, "time_elapsed": 680587, "serialpos": 2, "key_press": -1, "wordID": 1175, "type": "PRES_VIS", "trial_index": 131}, "uniqueid": "MTK1863:3IQ1VMJRYURIDB771WFQECXBIHL9AV", "dateTime": 1516480746383}, {"current_trial": 132, "trialdata": {"rt": -1, "trial_type": "single-stim", "word": "actor", "stimulus": "<p id=\"stim\">ACTOR</p>", "conditions": [24, 1600, "v", 12000], "internal_node_id": "0.0-96.0", "trial": 3, "time_elapsed": 683009, "serialpos": 3, "key_press": -1, "wordID": 4, "type": "PRES_VIS", "trial_index": 132}, "uniqueid": "MTK1863:3IQ1VMJRYURIDB771WFQECXBIHL9AV", "dateTime": 1516480748806}, {"current_trial": 133, "trialdata": {"rt": -1, "trial_type": "single-stim", "word": "wrist", "stimulus": "<p id=\"stim\">WRIST</p>", "conditions": [24, 1600, "v", 12000], "internal_node_id": "0.0-97.0", "trial": 3, "time_elapsed": 685560, "serialpos": 4, "key_press": -1, "wordID": 1625, "type": "PRES_VIS", "trial_index": 133}, "uniqueid": "MTK1863:3IQ1VMJRYURIDB771WFQECXBIHL9AV", "dateTime": 1516480751356}, {"current_trial": 134, "trialdata": {"rt": -1, "trial_type": "single-stim", "word": "leg", "stimulus": "<p id=\"stim\">LEG</p>", "conditions": [24, 1600, "v", 12000], "internal_node_id": "0.0-98.0", "trial": 3, "time_elapsed": 688307, "serialpos": 5, "key_press": -1, "wordID": 808, "type": "PRES_VIS", "trial_index": 134}, "uniqueid": "MTK1863:3IQ1VMJRYURIDB771WFQECXBIHL9AV", "dateTime": 1516480754103}, {"current_trial": 135, "trialdata": {"rt": -1, "trial_type": "single-stim", "word": "powder", "stimulus": "<p id=\"stim\">POWDER</p>", "conditions": [24, 1600, "v", 12000], "internal_node_id": "0.0-99.0", "trial": 3, "time_elapsed": 690986, "serialpos": 6, "key_press": -1, "wordID": 1116, "type": "PRES_VIS", "trial_index": 135}, "uniqueid": "MTK1863:3IQ1VMJRYURIDB771WFQECXBIHL9AV", "dateTime": 1516480756783}, {"current_trial": 136, "trialdata": {"rt": -1, "trial_type": "single-stim", "word": "woman", "stimulus": "<p id=\"stim\">WOMAN</p>", "conditions": [24, 1600, "v", 12000], "internal_node_id": "0.0-100.0", "trial": 3, "time_elapsed": 693437, "serialpos": 7, "key_press": -1, "wordID": 1619, "type": "PRES_VIS", "trial_index": 136}, "uniqueid": "MTK1863:3IQ1VMJRYURIDB771WFQECXBIHL9AV", "dateTime": 1516480759234}, {"current_trial": 137, "trialdata": {"rt": -1, "trial_type": "single-stim", "word": "lion", "stimulus": "<p id=\"stim\">LION</p>", "conditions": [24, 1600, "v", 12000], "internal_node_id": "0.0-101.0", "trial": 3, "time_elapsed": 696049, "serialpos": 8, "key_press": -1, "wordID": 826, "type": "PRES_VIS", "trial_index": 137}, "uniqueid": "MTK1863:3IQ1VMJRYURIDB771WFQECXBIHL9AV", "dateTime": 1516480761846}, {"current_trial": 138, "trialdata": {"rt": -1, "trial_type": "single-stim", "word": "tribe", "stimulus": "<p id=\"stim\">TRIBE</p>", "conditions": [24, 1600, "v", 12000], "internal_node_id": "0.0-102.0", "trial": 3, "time_elapsed": 698515, "serialpos": 9, "key_press": -1, "wordID": 1504, "type": "PRES_VIS", "trial_index": 138}, "uniqueid": "MTK1863:3IQ1VMJRYURIDB771WFQECXBIHL9AV", "dateTime": 1516480764312}, {"current_trial": 139, "trialdata": {"rt": -1, "trial_type": "single-stim", "word": "twister", "stimulus": "<p id=\"stim\">TWISTER</p>", "conditions": [24, 1600, "v", 12000], "internal_node_id": "0.0-103.0", "trial": 3, "time_elapsed": 701115, "serialpos": 10, "key_press": -1, "wordID": 1529, "type": "PRES_VIS", "trial_index": 139}, "uniqueid": "MTK1863:3IQ1VMJRYURIDB771WFQECXBIHL9AV", "dateTime": 1516480766911}, {"current_trial": 140, "trialdata": {"rt": -1, "trial_type": "single-stim", "word": "supper", "stimulus": "<p id=\"stim\">SUPPER</p>", "conditions": [24, 1600, "v", 12000], "internal_node_id": "0.0-104.0", "trial": 3, "time_elapsed": 703737, "serialpos": 11, "key_press": -1, "wordID": 1410, "type": "PRES_VIS", "trial_index": 140}, "uniqueid": "MTK1863:3IQ1VMJRYURIDB771WFQECXBIHL9AV", "dateTime": 1516480769534}, {"current_trial": 141, "trialdata": {"rt": -1, "trial_type": "single-stim", "word": "asia", "stimulus": "<p id=\"stim\">ASIA</p>", "conditions": [24, 1600, "v", 12000], "internal_node_id": "0.0-105.0", "trial": 3, "time_elapsed": 706182, "serialpos": 12, "key_press": -1, "wordID": 45, "type": "PRES_VIS", "trial_index": 141}, "uniqueid": "MTK1863:3IQ1VMJRYURIDB771WFQECXBIHL9AV", "dateTime": 1516480771979}, {"current_trial": 142, "trialdata": {"rt": -1, "trial_type": "single-stim", "word": "japan", "stimulus": "<p id=\"stim\">JAPAN</p>", "conditions": [24, 1600, "v", 12000], "internal_node_id": "0.0-106.0", "trial": 3, "time_elapsed": 708730, "serialpos": 13, "key_press": -1, "wordID": 748, "type": "PRES_VIS", "trial_index": 142}, "uniqueid": "MTK1863:3IQ1VMJRYURIDB771WFQECXBIHL9AV", "dateTime": 1516480774527}, {"current_trial": 143, "trialdata": {"rt": -1, "trial_type": "single-stim", "word": "scalpel", "stimulus": "<p id=\"stim\">SCALPEL</p>", "conditions": [24, 1600, "v", 12000], "internal_node_id": "0.0-107.0", "trial": 3, "time_elapsed": 711467, "serialpos": 14, "key_press": -1, "wordID": 1242, "type": "PRES_VIS", "trial_index": 143}, "uniqueid": "MTK1863:3IQ1VMJRYURIDB771WFQECXBIHL9AV", "dateTime": 1516480777264}, {"current_trial": 144, "trialdata": {"rt": -1, "trial_type": "single-stim", "word": "trout", "stimulus": "<p id=\"stim\">TROUT</p>", "conditions": [24, 1600, "v", 12000], "internal_node_id": "0.0-108.0", "trial": 3, "time_elapsed": 713893, "serialpos": 15, "key_press": -1, "wordID": 1510, "type": "PRES_VIS", "trial_index": 144}, "uniqueid": "MTK1863:3IQ1VMJRYURIDB771WFQECXBIHL9AV", "dateTime": 1516480779689}, {"current_trial": 145, "trialdata": {"rt": -1, "trial_type": "single-stim", "word": "driver", "stimulus": "<p id=\"stim\">DRIVER</p>", "conditions": [24, 1600, "v", 12000], "internal_node_id": "0.0-109.0", "trial": 3, "time_elapsed": 716583, "serialpos": 16, "key_press": -1, "wordID": 498, "type": "PRES_VIS", "trial_index": 145}, "uniqueid": "MTK1863:3IQ1VMJRYURIDB771WFQECXBIHL9AV", "dateTime": 1516480782379}, {"current_trial": 146, "trialdata": {"rt": -1, "trial_type": "single-stim", "word": "human", "stimulus": "<p id=\"stim\">HUMAN</p>", "conditions": [24, 1600, "v", 12000], "internal_node_id": "0.0-110.0", "trial": 3, "time_elapsed": 719246, "serialpos": 17, "key_press": -1, "wordID": 725, "type": "PRES_VIS", "trial_index": 146}, "uniqueid": "MTK1863:3IQ1VMJRYURIDB771WFQECXBIHL9AV", "dateTime": 1516480785042}, {"current_trial": 147, "trialdata": {"rt": -1, "trial_type": "single-stim", "word": "student", "stimulus": "<p id=\"stim\">STUDENT</p>", "conditions": [24, 1600, "v", 12000], "internal_node_id": "0.0-111.0", "trial": 3, "time_elapsed": 721803, "serialpos": 18, "key_press": -1, "wordID": 1394, "type": "PRES_VIS", "trial_index": 147}, "uniqueid": "MTK1863:3IQ1VMJRYURIDB771WFQECXBIHL9AV", "dateTime": 1516480787599}, {"current_trial": 148, "trialdata": {"rt": -1, "trial_type": "single-stim", "word": "truck", "stimulus": "<p id=\"stim\">TRUCK</p>", "conditions": [24, 1600, "v", 12000], "internal_node_id": "0.0-112.0", "trial": 3, "time_elapsed": 724345, "serialpos": 19, "key_press": -1, "wordID": 1511, "type": "PRES_VIS", "trial_index": 148}, "uniqueid": "MTK1863:3IQ1VMJRYURIDB771WFQECXBIHL9AV", "dateTime": 1516480790141}, {"current_trial": 149, "trialdata": {"rt": -1, "trial_type": "single-stim", "word": "wagon", "stimulus": "<p id=\"stim\">WAGON</p>", "conditions": [24, 1600, "v", 12000], "internal_node_id": "0.0-113.0", "trial": 3, "time_elapsed": 727128, "serialpos": 20, "key_press": -1, "wordID": 1577, "type": "PRES_VIS", "trial_index": 149}, "uniqueid": "MTK1863:3IQ1VMJRYURIDB771WFQECXBIHL9AV", "dateTime": 1516480792924}, {"current_trial": 150, "trialdata": {"rt": -1, "trial_type": "single-stim", "word": "country", "stimulus": "<p id=\"stim\">COUNTRY</p>", "conditions": [24, 1600, "v", 12000], "internal_node_id": "0.0-114.0", "trial": 3, "time_elapsed": 729547, "serialpos": 21, "key_press": -1, "wordID": 387, "type": "PRES_VIS", "trial_index": 150}, "uniqueid": "MTK1863:3IQ1VMJRYURIDB771WFQECXBIHL9AV", "dateTime": 1516480795344}, {"current_trial": 151, "trialdata": {"rt": -1, "trial_type": "single-stim", "word": "omelet", "stimulus": "<p id=\"stim\">OMELET</p>", "conditions": [24, 1600, "v", 12000], "internal_node_id": "0.0-115.0", "trial": 3, "time_elapsed": 732293, "serialpos": 22, "key_press": -1, "wordID": 975, "type": "PRES_VIS", "trial_index": 151}, "uniqueid": "MTK1863:3IQ1VMJRYURIDB771WFQECXBIHL9AV", "dateTime": 1516480798090}, {"current_trial": 152, "trialdata": {"rt": -1, "trial_type": "single-stim", "word": "freezer", "stimulus": "<p id=\"stim\">FREEZER</p>", "conditions": [24, 1600, "v", 12000], "internal_node_id": "0.0-116.0", "trial": 3, "time_elapsed": 734802, "serialpos": 23, "key_press": -1, "wordID": 603, "type": "PRES_VIS", "trial_index": 152}, "uniqueid": "MTK1863:3IQ1VMJRYURIDB771WFQECXBIHL9AV", "dateTime": 1516480800598}, {"current_trial": 153, "trialdata": {"rt": -1, "trial_type": "single-stim", "stimulus": "", "internal_node_id": "0.0-117.0-0.0", "time_elapsed": 737010, "key_press": -1, "type": "PRE_RECALL_DELAY", "trial_index": 153}, "uniqueid": "MTK1863:3IQ1VMJRYURIDB771WFQECXBIHL9AV", "dateTime": 1516480802806}, {"current_trial": 154, "trialdata": {"rt": -1000, "trial_type": "single-audio", "stimulus": "/static/audio/400Hz.wav", "internal_node_id": "0.0-118.0", "time_elapsed": 737512, "key_press": -1, "type": "PRE_RECALL_ALERT", "trial_index": 154}, "uniqueid": "MTK1863:3IQ1VMJRYURIDB771WFQECXBIHL9AV", "dateTime": 1516480803309}, {"current_trial": 155, "trialdata": {"rt": [3975, 7920, 11228, 14303, 17838, 20936, 23988, 27727, 31248, 34661, 42177, 48442, 53870], "recwords": ["+", "leg", "woman", "tribe", "powder", "record", "actor", "lumber", "picnic", "wagon", "supper", "driver", "human"], "key_times": [2920, 3169, 3975, 6260, 7012, 7281, 7920, 9170, 9524, 9812, 10176, 10461, 11228, 12299, 12403, 12675, 12996, 13253, 14303, 15183, 15389, 15903, 16296, 16514, 16933, 17838, 18679, 18795, 19098, 19449, 19775, 20097, 20936, 21779, 22102, 22448, 22745, 23148, 23988, 25749, 26112, 26460, 26736, 27031, 27107, 27727, 28633, 28991, 29492, 29837, 30124, 30575, 31248, 32870, 33132, 33414, 33758, 34049, 34661, 36541, 36976, 37317, 38060, 38150, 39943, 40119, 41116, 41650, 41739, 42177, 46322, 46566, 47246, 47686, 47969, 48050, 48442, 51971, 52249, 52503, 53177, 53507, 53870], "trial_type": "free-recall", "conditions": [24, 1600, "v", 12000], "internal_node_id": "0.0-119.0-0.0", "key_presses": [16, 187, 13, 76, 69, 71, 13, 87, 79, 77, 65, 78, 13, 84, 82, 73, 66, 69, 13, 80, 79, 87, 68, 69, 82, 13, 82, 69, 67, 79, 82, 68, 13, 65, 67, 84, 79, 82, 13, 76, 85, 77, 66, 69, 82, 13, 80, 73, 67, 78, 73, 67, 13, 87, 65, 71, 79, 78, 13, 83, 85, 80, 69, 82, 8, 8, 80, 69, 82, 13, 68, 82, 73, 86, 69, 82, 13, 72, 85, 77, 65, 78, 13], "trial": 3, "time_elapsed": 797456, "type": "FREE_RECALL", "trial_index": 155}, "uniqueid": "MTK1863:3IQ1VMJRYURIDB771WFQECXBIHL9AV", "dateTime": 1516480863262}, {"current_trial": 156, "trialdata": {"rt": 3772, "trial_type": "text", "internal_node_id": "0.0-120.0", "time_elapsed": 803240, "key_press": 13, "type": "INSTRUCTIONS", "trial_index": 156}, "uniqueid": "MTK1863:3IQ1VMJRYURIDB771WFQECXBIHL9AV", "dateTime": 1516480869036}, {"current_trial": 157, "trialdata": {"rt": [5104, 10280], "trial_type": "math-distractor", "key_times": [4372, 4770, 5104, 9085, 9520, 10280], "responses": ["17", "14"], "num2": [7, 7, 6], "num3": [6, 4, 2], "conditions": [12, 800, "v", 12000], "internal_node_id": "0.0-121.0", "key_presses": [49, 55, 13, 49, 52, 13], "trial": 4, "time_elapsed": 817246, "type": "DISTRACTOR", "trial_index": 157, "num1": [4, 4, 7]}, "uniqueid": "MTK1863:3IQ1VMJRYURIDB771WFQECXBIHL9AV", "dateTime": 1516480883043}, {"current_trial": 158, "trialdata": {"rt": -1, "trial_type": "single-stim", "stimulus": "<p id=\"stim\">10</p>", "internal_node_id": "0.0-122.0-0.0", "time_elapsed": 820249, "key_press": -1, "trial_index": 158}, "uniqueid": "MTK1863:3IQ1VMJRYURIDB771WFQECXBIHL9AV", "dateTime": 1516480886046}, {"current_trial": 159, "trialdata": {"rt": -1, "trial_type": "single-stim", "stimulus": "<p id=\"stim\">9</p>", "internal_node_id": "0.0-122.0-1.0", "time_elapsed": 821251, "key_press": -1, "trial_index": 159}, "uniqueid": "MTK1863:3IQ1VMJRYURIDB771WFQECXBIHL9AV", "dateTime": 1516480887048}, {"current_trial": 160, "trialdata": {"rt": -1, "trial_type": "single-stim", "stimulus": "<p id=\"stim\">8</p>", "internal_node_id": "0.0-122.0-2.0", "time_elapsed": 822253, "key_press": -1, "trial_index": 160}, "uniqueid": "MTK1863:3IQ1VMJRYURIDB771WFQECXBIHL9AV", "dateTime": 1516480888050}, {"current_trial": 161, "trialdata": {"rt": -1, "trial_type": "single-stim", "stimulus": "<p id=\"stim\">7</p>", "internal_node_id": "0.0-122.0-3.0", "time_elapsed": 823255, "key_press": -1, "trial_index": 161}, "uniqueid": "MTK1863:3IQ1VMJRYURIDB771WFQECXBIHL9AV", "dateTime": 1516480889052}, {"current_trial": 162, "trialdata": {"rt": -1, "trial_type": "single-stim", "stimulus": "<p id=\"stim\">6</p>", "internal_node_id": "0.0-122.0-4.0", "time_elapsed": 824257, "key_press": -1, "trial_index": 162}, "uniqueid": "MTK1863:3IQ1VMJRYURIDB771WFQECXBIHL9AV", "dateTime": 1516480890054}, {"current_trial": 163, "trialdata": {"rt": -1, "trial_type": "single-stim", "stimulus": "<p id=\"stim\">5</p>", "internal_node_id": "0.0-122.0-5.0", "time_elapsed": 825259, "key_press": -1, "trial_index": 163}, "uniqueid": "MTK1863:3IQ1VMJRYURIDB771WFQECXBIHL9AV", "dateTime": 1516480891056}, {"current_trial": 164, "trialdata": {"rt": -1, "trial_type": "single-stim", "stimulus": "<p id=\"stim\">4</p>", "internal_node_id": "0.0-122.0-6.0", "time_elapsed": 826261, "key_press": -1, "trial_index": 164}, "uniqueid": "MTK1863:3IQ1VMJRYURIDB771WFQECXBIHL9AV", "dateTime": 1516480892058}, {"current_trial": 165, "trialdata": {"rt": -1, "trial_type": "single-stim", "stimulus": "<p id=\"stim\">3</p>", "internal_node_id": "0.0-122.0-7.0", "time_elapsed": 827263, "key_press": -1, "trial_index": 165}, "uniqueid": "MTK1863:3IQ1VMJRYURIDB771WFQECXBIHL9AV", "dateTime": 1516480893060}, {"current_trial": 166, "trialdata": {"rt": -1, "trial_type": "single-stim", "stimulus": "<p id=\"stim\">2</p>", "internal_node_id": "0.0-122.0-8.0", "time_elapsed": 828265, "key_press": -1, "trial_index": 166}, "uniqueid": "MTK1863:3IQ1VMJRYURIDB771WFQECXBIHL9AV", "dateTime": 1516480894062}, {"current_trial": 167, "trialdata": {"rt": -1, "trial_type": "single-stim", "stimulus": "<p id=\"stim\">1</p>", "internal_node_id": "0.0-122.0-9.0", "time_elapsed": 829267, "key_press": -1, "trial_index": 167}, "uniqueid": "MTK1863:3IQ1VMJRYURIDB771WFQECXBIHL9AV", "dateTime": 1516480895064}, {"current_trial": 168, "trialdata": {"rt": -1, "trial_type": "single-stim", "stimulus": "<p id=\"stim\">+</p>", "internal_node_id": "0.0-123.0-0.0", "time_elapsed": 830769, "key_press": -1, "type": "FIXATION", "trial_index": 168}, "uniqueid": "MTK1863:3IQ1VMJRYURIDB771WFQECXBIHL9AV", "dateTime": 1516480896566}, {"current_trial": 169, "trialdata": {"rt": -1, "trial_type": "single-stim", "word": "cabbage", "stimulus": "<p id=\"stim\">CABBAGE</p>", "conditions": [12, 800, "v", 12000], "internal_node_id": "0.0-124.0", "trial": 4, "time_elapsed": 831571, "serialpos": 0, "key_press": -1, "wordID": 209, "type": "PRES_VIS", "trial_index": 169}, "uniqueid": "MTK1863:3IQ1VMJRYURIDB771WFQECXBIHL9AV", "dateTime": 1516480897368}, {"current_trial": 170, "trialdata": {"rt": -1, "trial_type": "single-stim", "word": "blade", "stimulus": "<p id=\"stim\">BLADE</p>", "conditions": [12, 800, "v", 12000], "internal_node_id": "0.0-125.0", "trial": 4, "time_elapsed": 833456, "serialpos": 1, "key_press": -1, "wordID": 133, "type": "PRES_VIS", "trial_index": 170}, "uniqueid": "MTK1863:3IQ1VMJRYURIDB771WFQECXBIHL9AV", "dateTime": 1516480899253}, {"current_trial": 171, "trialdata": {"rt": -1, "trial_type": "single-stim", "word": "nurse", "stimulus": "<p id=\"stim\">NURSE</p>", "conditions": [12, 800, "v", 12000], "internal_node_id": "0.0-126.0", "trial": 4, "time_elapsed": 835094, "serialpos": 2, "key_press": -1, "wordID": 962, "type": "PRES_VIS", "trial_index": 171}, "uniqueid": "MTK1863:3IQ1VMJRYURIDB771WFQECXBIHL9AV", "dateTime": 1516480900891}, {"current_trial": 172, "trialdata": {"rt": -1, "trial_type": "single-stim", "word": "garlic", "stimulus": "<p id=\"stim\">GARLIC</p>", "conditions": [12, 800, "v", 12000], "internal_node_id": "0.0-127.0", "trial": 4, "time_elapsed": 836793, "serialpos": 3, "key_press": -1, "wordID": 623, "type": "PRES_VIS", "trial_index": 172}, "uniqueid": "MTK1863:3IQ1VMJRYURIDB771WFQECXBIHL9AV", "dateTime": 1516480902590}, {"current_trial": 173, "trialdata": {"rt": -1, "trial_type": "single-stim", "word": "turnip", "stimulus": "<p id=\"stim\">TURNIP</p>", "conditions": [12, 800, "v", 12000], "internal_node_id": "0.0-128.0", "trial": 4, "time_elapsed": 838684, "serialpos": 4, "key_press": -1, "wordID": 1520, "type": "PRES_VIS", "trial_index": 173}, "uniqueid": "MTK1863:3IQ1VMJRYURIDB771WFQECXBIHL9AV", "dateTime": 1516480904481}, {"current_trial": 174, "trialdata": {"rt": -1, "trial_type": "single-stim", "word": "buggy", "stimulus": "<p id=\"stim\">BUGGY</p>", "conditions": [12, 800, "v", 12000], "internal_node_id": "0.0-129.0", "trial": 4, "time_elapsed": 840368, "serialpos": 5, "key_press": -1, "wordID": 187, "type": "PRES_VIS", "trial_index": 174}, "uniqueid": "MTK1863:3IQ1VMJRYURIDB771WFQECXBIHL9AV", "dateTime": 1516480906164}, {"current_trial": 175, "trialdata": {"rt": -1, "trial_type": "single-stim", "word": "popcorn", "stimulus": "<p id=\"stim\">POPCORN</p>", "conditions": [12, 800, "v", 12000], "internal_node_id": "0.0-130.0", "trial": 4, "time_elapsed": 842333, "serialpos": 6, "key_press": -1, "wordID": 1103, "type": "PRES_VIS", "trial_index": 175}, "uniqueid": "MTK1863:3IQ1VMJRYURIDB771WFQECXBIHL9AV", "dateTime": 1516480908130}, {"current_trial": 176, "trialdata": {"rt": -1, "trial_type": "single-stim", "word": "flower", "stimulus": "<p id=\"stim\">FLOWER</p>", "conditions": [12, 800, "v", 12000], "internal_node_id": "0.0-131.0", "trial": 4, "time_elapsed": 844286, "serialpos": 7, "key_press": -1, "wordID": 583, "type": "PRES_VIS", "trial_index": 176}, "uniqueid": "MTK1863:3IQ1VMJRYURIDB771WFQECXBIHL9AV", "dateTime": 1516480910082}, {"current_trial": 177, "trialdata": {"rt": -1, "trial_type": "single-stim", "word": "zebra", "stimulus": "<p id=\"stim\">ZEBRA</p>", "conditions": [12, 800, "v", 12000], "internal_node_id": "0.0-132.0", "trial": 4, "time_elapsed": 846009, "serialpos": 8, "key_press": -1, "wordID": 1634, "type": "PRES_VIS", "trial_index": 177}, "uniqueid": "MTK1863:3IQ1VMJRYURIDB771WFQECXBIHL9AV", "dateTime": 1516480911806}, {"current_trial": 178, "trialdata": {"rt": -1, "trial_type": "single-stim", "word": "leopard", "stimulus": "<p id=\"stim\">LEOPARD</p>", "conditions": [12, 800, "v", 12000], "internal_node_id": "0.0-133.0", "trial": 4, "time_elapsed": 847833, "serialpos": 9, "key_press": -1, "wordID": 811, "type": "PRES_VIS", "trial_index": 178}, "uniqueid": "MTK1863:3IQ1VMJRYURIDB771WFQECXBIHL9AV", "dateTime": 1516480913630}, {"current_trial": 179, "trialdata": {"rt": -1, "trial_type": "single-stim", "word": "possum", "stimulus": "<p id=\"stim\">POSSUM</p>", "conditions": [12, 800, "v", 12000], "internal_node_id": "0.0-134.0", "trial": 4, "time_elapsed": 849477, "serialpos": 10, "key_press": -1, "wordID": 1111, "type": "PRES_VIS", "trial_index": 179}, "uniqueid": "MTK1863:3IQ1VMJRYURIDB771WFQECXBIHL9AV", "dateTime": 1516480915274}, {"current_trial": 180, "trialdata": {"rt": -1, "trial_type": "single-stim", "word": "bullet", "stimulus": "<p id=\"stim\">BULLET</p>", "conditions": [12, 800, "v", 12000], "internal_node_id": "0.0-135.0", "trial": 4, "time_elapsed": 851460, "serialpos": 11, "key_press": -1, "wordID": 193, "type": "PRES_VIS", "trial_index": 180}, "uniqueid": "MTK1863:3IQ1VMJRYURIDB771WFQECXBIHL9AV", "dateTime": 1516480917257}, {"current_trial": 181, "trialdata": {"rt": -1, "trial_type": "single-stim", "stimulus": "", "internal_node_id": "0.0-136.0-0.0", "time_elapsed": 853882, "key_press": -1, "type": "PRE_RECALL_DELAY", "trial_index": 181}, "uniqueid": "MTK1863:3IQ1VMJRYURIDB771WFQECXBIHL9AV", "dateTime": 1516480919679}, {"current_trial": 182, "trialdata": {"rt": -1000, "trial_type": "single-audio", "stimulus": "/static/audio/400Hz.wav", "internal_node_id": "0.0-137.0", "time_elapsed": 854385, "key_press": -1, "type": "PRE_RECALL_ALERT", "trial_index": 182}, "uniqueid": "MTK1863:3IQ1VMJRYURIDB771WFQECXBIHL9AV", "dateTime": 1516480920181}, {"current_trial": 183, "trialdata": {"rt": [6284, 9861, 14872, 22257, 25389, 28285, 39422], "recwords": ["+", "cabbage", "possum", "buggy", "garlic", "flower", "leopard"], "key_times": [3859, 4509, 4546, 4579, 4614, 4653, 4688, 4724, 4758, 4794, 4833, 4868, 4903, 4938, 4973, 5015, 5054, 5092, 5127, 5161, 5200, 5236, 5271, 5308, 5341, 5378, 5415, 5450, 5486, 5520, 5556, 5595, 5606, 6284, 7233, 7483, 7789, 7921, 8552, 8851, 9006, 9861, 12374, 12563, 12906, 13065, 13303, 13561, 14872, 16132, 16453, 16901, 17441, 18840, 22257, 23189, 23457, 23658, 23966, 24195, 24674, 25389, 26300, 26603, 26795, 27300, 27392, 27621, 28285, 35016, 35356, 35679, 35949, 38134, 38330, 38546, 39422], "trial_type": "free-recall", "conditions": [12, 800, "v", 12000], "internal_node_id": "0.0-138.0-0.0", "key_presses": [16, 16, 16, 16, 16, 16, 16, 16, 16, 16, 16, 16, 16, 16, 16, 16, 16, 16, 16, 16, 16, 16, 16, 16, 16, 16, 16, 16, 16, 16, 16, 16, 187, 13, 67, 65, 66, 66, 65, 71, 69, 13, 80, 79, 83, 83, 85, 77, 13, 66, 85, 71, 71, 89, 13, 71, 65, 82, 76, 73, 67, 13, 70, 76, 79, 87, 69, 82, 13, 76, 69, 79, 80, 65, 82, 68, 13], "trial": 4, "time_elapsed": 914341, "type": "FREE_RECALL", "trial_index": 183}, "uniqueid": "MTK1863:3IQ1VMJRYURIDB771WFQECXBIHL9AV", "dateTime": 1516480980148}, {"current_trial": 184, "trialdata": {"rt": 2156, "trial_type": "text", "internal_node_id": "0.0-139.0", "time_elapsed": 918510, "key_press": 13, "type": "INSTRUCTIONS", "trial_index": 184}, "uniqueid": "MTK1863:3IQ1VMJRYURIDB771WFQECXBIHL9AV", "dateTime": 1516480984306}, {"current_trial": 185, "trialdata": {"rt": [4065, 7427, 15607, 21666], "trial_type": "math-distractor", "key_times": [3369, 3537, 4065, 6694, 7110, 7427, 14982, 15148, 15607, 21003, 21666], "responses": ["11", "18", "23", "8"], "num2": [2, 8, 8, 1, 5], "num3": [1, 8, 9, 1, 4], "conditions": [12, 800, "v", 24000], "internal_node_id": "0.0-140.0", "key_presses": [49, 49, 13, 49, 56, 13, 50, 51, 13, 56, 13], "trial": 5, "time_elapsed": 944517, "type": "DISTRACTOR", "trial_index": 185, "num1": [8, 2, 5, 6, 8]}, "uniqueid": "MTK1863:3IQ1VMJRYURIDB771WFQECXBIHL9AV", "dateTime": 1516481010314}, {"current_trial": 186, "trialdata": {"rt": -1, "trial_type": "single-stim", "stimulus": "<p id=\"stim\">10</p>", "internal_node_id": "0.0-141.0-0.0", "time_elapsed": 947520, "key_press": -1, "trial_index": 186}, "uniqueid": "MTK1863:3IQ1VMJRYURIDB771WFQECXBIHL9AV", "dateTime": 1516481013317}, {"current_trial": 187, "trialdata": {"rt": -1, "trial_type": "single-stim", "stimulus": "<p id=\"stim\">9</p>", "internal_node_id": "0.0-141.0-1.0", "time_elapsed": 948522, "key_press": -1, "trial_index": 187}, "uniqueid": "MTK1863:3IQ1VMJRYURIDB771WFQECXBIHL9AV", "dateTime": 1516481014319}, {"current_trial": 188, "trialdata": {"rt": -1, "trial_type": "single-stim", "stimulus": "<p id=\"stim\">8</p>", "internal_node_id": "0.0-141.0-2.0", "time_elapsed": 949525, "key_press": -1, "trial_index": 188}, "uniqueid": "MTK1863:3IQ1VMJRYURIDB771WFQECXBIHL9AV", "dateTime": 1516481015321}, {"current_trial": 189, "trialdata": {"rt": -1, "trial_type": "single-stim", "stimulus": "<p id=\"stim\">7</p>", "internal_node_id": "0.0-141.0-3.0", "time_elapsed": 950527, "key_press": -1, "trial_index": 189}, "uniqueid": "MTK1863:3IQ1VMJRYURIDB771WFQECXBIHL9AV", "dateTime": 1516481016324}, {"current_trial": 190, "trialdata": {"rt": -1, "trial_type": "single-stim", "stimulus": "<p id=\"stim\">6</p>", "internal_node_id": "0.0-141.0-4.0", "time_elapsed": 951529, "key_press": -1, "trial_index": 190}, "uniqueid": "MTK1863:3IQ1VMJRYURIDB771WFQECXBIHL9AV", "dateTime": 1516481017326}, {"current_trial": 191, "trialdata": {"rt": -1, "trial_type": "single-stim", "stimulus": "<p id=\"stim\">5</p>", "internal_node_id": "0.0-141.0-5.0", "time_elapsed": 952544, "key_press": -1, "trial_index": 191}, "uniqueid": "MTK1863:3IQ1VMJRYURIDB771WFQECXBIHL9AV", "dateTime": 1516481018340}, {"current_trial": 192, "trialdata": {"rt": -1, "trial_type": "single-stim", "stimulus": "<p id=\"stim\">4</p>", "internal_node_id": "0.0-141.0-6.0", "time_elapsed": 953546, "key_press": -1, "trial_index": 192}, "uniqueid": "MTK1863:3IQ1VMJRYURIDB771WFQECXBIHL9AV", "dateTime": 1516481019343}, {"current_trial": 193, "trialdata": {"rt": -1, "trial_type": "single-stim", "stimulus": "<p id=\"stim\">3</p>", "internal_node_id": "0.0-141.0-7.0", "time_elapsed": 954549, "key_press": -1, "trial_index": 193}, "uniqueid": "MTK1863:3IQ1VMJRYURIDB771WFQECXBIHL9AV", "dateTime": 1516481020345}, {"current_trial": 194, "trialdata": {"rt": -1, "trial_type": "single-stim", "stimulus": "<p id=\"stim\">2</p>", "internal_node_id": "0.0-141.0-8.0", "time_elapsed": 955551, "key_press": -1, "trial_index": 194}, "uniqueid": "MTK1863:3IQ1VMJRYURIDB771WFQECXBIHL9AV", "dateTime": 1516481021348}, {"current_trial": 195, "trialdata": {"rt": -1, "trial_type": "single-stim", "stimulus": "<p id=\"stim\">1</p>", "internal_node_id": "0.0-141.0-9.0", "time_elapsed": 956553, "key_press": -1, "trial_index": 195}, "uniqueid": "MTK1863:3IQ1VMJRYURIDB771WFQECXBIHL9AV", "dateTime": 1516481022350}, {"current_trial": 196, "trialdata": {"rt": -1, "trial_type": "single-stim", "stimulus": "<p id=\"stim\">+</p>", "internal_node_id": "0.0-142.0-0.0", "time_elapsed": 958057, "key_press": -1, "type": "FIXATION", "trial_index": 196}, "uniqueid": "MTK1863:3IQ1VMJRYURIDB771WFQECXBIHL9AV", "dateTime": 1516481023853}, {"current_trial": 197, "trialdata": {"rt": -1, "trial_type": "single-stim", "word": "hornet", "stimulus": "<p id=\"stim\">HORNET</p>", "conditions": [12, 800, "v", 24000], "internal_node_id": "0.0-143.0", "trial": 5, "time_elapsed": 958860, "serialpos": 0, "key_press": -1, "wordID": 717, "type": "PRES_VIS", "trial_index": 197}, "uniqueid": "MTK1863:3IQ1VMJRYURIDB771WFQECXBIHL9AV", "dateTime": 1516481024657}, {"current_trial": 198, "trialdata": {"rt": -1, "trial_type": "single-stim", "word": "swimmer", "stimulus": "<p id=\"stim\">SWIMMER</p>", "conditions": [12, 800, "v", 24000], "internal_node_id": "0.0-144.0", "trial": 5, "time_elapsed": 960619, "serialpos": 1, "key_press": -1, "wordID": 1419, "type": "PRES_VIS", "trial_index": 198}, "uniqueid": "MTK1863:3IQ1VMJRYURIDB771WFQECXBIHL9AV", "dateTime": 1516481026415}, {"current_trial": 199, "trialdata": {"rt": -1, "trial_type": "single-stim", "word": "goblin", "stimulus": "<p id=\"stim\">GOBLIN</p>", "conditions": [12, 800, "v", 24000], "internal_node_id": "0.0-145.0", "trial": 5, "time_elapsed": 962350, "serialpos": 2, "key_press": -1, "wordID": 644, "type": "PRES_VIS", "trial_index": 199}, "uniqueid": "MTK1863:3IQ1VMJRYURIDB771WFQECXBIHL9AV", "dateTime": 1516481028146}, {"current_trial": 200, "trialdata": {"rt": -1, "trial_type": "single-stim", "word": "nomad", "stimulus": "<p id=\"stim\">NOMAD</p>", "conditions": [12, 800, "v", 24000], "internal_node_id": "0.0-146.0", "trial": 5, "time_elapsed": 964317, "serialpos": 3, "key_press": -1, "wordID": 954, "type": "PRES_VIS", "trial_index": 200}, "uniqueid": "MTK1863:3IQ1VMJRYURIDB771WFQECXBIHL9AV", "dateTime": 1516481030113}, {"current_trial": 201, "trialdata": {"rt": -1, "trial_type": "single-stim", "word": "football", "stimulus": "<p id=\"stim\">FOOTBALL</p>", "conditions": [12, 800, "v", 24000], "internal_node_id": "0.0-147.0", "trial": 5, "time_elapsed": 965937, "serialpos": 4, "key_press": -1, "wordID": 590, "type": "PRES_VIS", "trial_index": 201}, "uniqueid": "MTK1863:3IQ1VMJRYURIDB771WFQECXBIHL9AV", "dateTime": 1516481031734}, {"current_trial": 202, "trialdata": {"rt": -1, "trial_type": "single-stim", "word": "custard", "stimulus": "<p id=\"stim\">CUSTARD</p>", "conditions": [12, 800, "v", 24000], "internal_node_id": "0.0-148.0", "trial": 5, "time_elapsed": 967694, "serialpos": 5, "key_press": -1, "wordID": 428, "type": "PRES_VIS", "trial_index": 202}, "uniqueid": "MTK1863:3IQ1VMJRYURIDB771WFQECXBIHL9AV", "dateTime": 1516481033490}, {"current_trial": 203, "trialdata": {"rt": -1, "trial_type": "single-stim", "word": "portrait", "stimulus": "<p id=\"stim\">PORTRAIT</p>", "conditions": [12, 800, "v", 24000], "internal_node_id": "0.0-149.0", "trial": 5, "time_elapsed": 969399, "serialpos": 6, "key_press": -1, "wordID": 1110, "type": "PRES_VIS", "trial_index": 203}, "uniqueid": "MTK1863:3IQ1VMJRYURIDB771WFQECXBIHL9AV", "dateTime": 1516481035196}, {"current_trial": 204, "trialdata": {"rt": -1, "trial_type": "single-stim", "word": "burglar", "stimulus": "<p id=\"stim\">BURGLAR</p>", "conditions": [12, 800, "v", 24000], "internal_node_id": "0.0-150.0", "trial": 5, "time_elapsed": 971146, "serialpos": 7, "key_press": -1, "wordID": 199, "type": "PRES_VIS", "trial_index": 204}, "uniqueid": "MTK1863:3IQ1VMJRYURIDB771WFQECXBIHL9AV", "dateTime": 1516481036943}, {"current_trial": 205, "trialdata": {"rt": -1, "trial_type": "single-stim", "word": "preacher", "stimulus": "<p id=\"stim\">PREACHER</p>", "conditions": [12, 800, "v", 24000], "internal_node_id": "0.0-151.0", "trial": 5, "time_elapsed": 972976, "serialpos": 8, "key_press": -1, "wordID": 1118, "type": "PRES_VIS", "trial_index": 205}, "uniqueid": "MTK1863:3IQ1VMJRYURIDB771WFQECXBIHL9AV", "dateTime": 1516481038773}, {"current_trial": 206, "trialdata": {"rt": -1, "trial_type": "single-stim", "word": "pudding", "stimulus": "<p id=\"stim\">PUDDING</p>", "conditions": [12, 800, "v", 24000], "internal_node_id": "0.0-152.0", "trial": 5, "time_elapsed": 974700, "serialpos": 9, "key_press": -1, "wordID": 1138, "type": "PRES_VIS", "trial_index": 206}, "uniqueid": "MTK1863:3IQ1VMJRYURIDB771WFQECXBIHL9AV", "dateTime": 1516481040496}, {"current_trial": 207, "trialdata": {"rt": -1, "trial_type": "single-stim", "word": "scallop", "stimulus": "<p id=\"stim\">SCALLOP</p>", "conditions": [12, 800, "v", 24000], "internal_node_id": "0.0-153.0", "trial": 5, "time_elapsed": 976612, "serialpos": 10, "key_press": -1, "wordID": 1241, "type": "PRES_VIS", "trial_index": 207}, "uniqueid": "MTK1863:3IQ1VMJRYURIDB771WFQECXBIHL9AV", "dateTime": 1516481042408}, {"current_trial": 208, "trialdata": {"rt": -1, "trial_type": "single-stim", "word": "cod", "stimulus": "<p id=\"stim\">COD</p>", "conditions": [12, 800, "v", 24000], "internal_node_id": "0.0-154.0", "trial": 5, "time_elapsed": 978387, "serialpos": 11, "key_press": -1, "wordID": 339, "type": "PRES_VIS", "trial_index": 208}, "uniqueid": "MTK1863:3IQ1VMJRYURIDB771WFQECXBIHL9AV", "dateTime": 1516481044183}, {"current_trial": 209, "trialdata": {"rt": -1, "trial_type": "single-stim", "stimulus": "", "internal_node_id": "0.0-155.0-0.0", "time_elapsed": 980678, "key_press": -1, "type": "PRE_RECALL_DELAY", "trial_index": 209}, "uniqueid": "MTK1863:3IQ1VMJRYURIDB771WFQECXBIHL9AV", "dateTime": 1516481046474}, {"current_trial": 210, "trialdata": {"rt": -1000, "trial_type": "single-audio", "stimulus": "/static/audio/400Hz.wav", "internal_node_id": "0.0-156.0", "time_elapsed": 981180, "key_press": -1, "type": "PRE_RECALL_ALERT", "trial_index": 210}, "uniqueid": "MTK1863:3IQ1VMJRYURIDB771WFQECXBIHL9AV", "dateTime": 1516481046976}, {"current_trial": 211, "trialdata": {"rt": [6205, 11284, 15241, 20505, 25398, 32919, 35715, 47847], "recwords": ["summer", "hornet", "nomad", "scallop", "portrait", "custard", "flower", "lion"], "key_times": [4206, 4554, 4902, 5061, 5378, 5484, 6205, 8251, 8671, 9008, 9329, 9620, 9759, 11284, 12256, 12597, 13253, 13790, 14054, 15241, 16875, 17123, 17405, 17780, 17923, 18317, 19071, 20505, 21733, 21908, 22388, 22485, 22992, 23974, 24412, 24595, 25398, 28253, 28604, 29391, 29580, 30413, 30572, 31351, 31608, 31820, 31920, 32195, 32919, 33868, 34146, 34355, 34994, 35078, 35320, 35715, 46448, 46662, 46841, 47484, 47847], "trial_type": "free-recall", "conditions": [12, 800, "v", 24000], "internal_node_id": "0.0-157.0-0.0", "key_presses": [83, 85, 77, 77, 69, 82, 13, 72, 79, 82, 78, 69, 84, 13, 78, 79, 77, 65, 68, 13, 83, 67, 65, 76, 76, 79, 80, 13, 80, 79, 82, 84, 82, 65, 73, 84, 13, 67, 85, 65, 82, 8, 8, 83, 84, 65, 82, 68, 13, 70, 76, 79, 87, 69, 82, 13, 76, 73, 79, 78, 13], "trial": 5, "time_elapsed": 1041138, "type": "FREE_RECALL", "trial_index": 211}, "uniqueid": "MTK1863:3IQ1VMJRYURIDB771WFQECXBIHL9AV", "dateTime": 1516481106947}, {"current_trial": 212, "trialdata": {"rt": 1936, "trial_type": "text", "internal_node_id": "0.0-158.0", "time_elapsed": 1045093, "key_press": 13, "type": "INSTRUCTIONS", "trial_index": 212}, "uniqueid": "MTK1863:3IQ1VMJRYURIDB771WFQECXBIHL9AV", "dateTime": 1516481110890}, {"current_trial": 213, "trialdata": {"rt": [5069, 8327, 12109, 14217, 19612, 22090], "trial_type": "math-distractor", "key_times": [4040, 4404, 5069, 7462, 7973, 8327, 11299, 11375, 12109, 13868, 14217, 18541, 18888, 19612, 21543, 21660, 22090], "responses": ["14", "15", "12", "7", "15", "13"], "num2": [5, 1, 2, 1, 4, 5, 4], "num3": [6, 9, 2, 1, 7, 3, 5], "conditions": [12, 1600, "v", 24000], "internal_node_id": "0.0-159.0", "key_presses": [49, 52, 13, 49, 53, 13, 49, 50, 13, 55, 13, 49, 53, 13, 49, 51, 13], "trial": 6, "time_elapsed": 1071101, "type": "DISTRACTOR", "trial_index": 213, "num1": [3, 5, 8, 5, 4, 5, 8]}, "uniqueid": "MTK1863:3IQ1VMJRYURIDB771WFQECXBIHL9AV", "dateTime": 1516481136897}, {"current_trial": 214, "trialdata": {"rt": -1, "trial_type": "single-stim", "stimulus": "<p id=\"stim\">10</p>", "internal_node_id": "0.0-160.0-0.0", "time_elapsed": 1074104, "key_press": -1, "trial_index": 214}, "uniqueid": "MTK1863:3IQ1VMJRYURIDB771WFQECXBIHL9AV", "dateTime": 1516481139900}, {"current_trial": 215, "trialdata": {"rt": -1, "trial_type": "single-stim", "stimulus": "<p id=\"stim\">9</p>", "internal_node_id": "0.0-160.0-1.0", "time_elapsed": 1075106, "key_press": -1, "trial_index": 215}, "uniqueid": "MTK1863:3IQ1VMJRYURIDB771WFQECXBIHL9AV", "dateTime": 1516481140902}, {"current_trial": 216, "trialdata": {"rt": -1, "trial_type": "single-stim", "stimulus": "<p id=\"stim\">8</p>", "internal_node_id": "0.0-160.0-2.0", "time_elapsed": 1076108, "key_press": -1, "trial_index": 216}, "uniqueid": "MTK1863:3IQ1VMJRYURIDB771WFQECXBIHL9AV", "dateTime": 1516481141904}, {"current_trial": 217, "trialdata": {"rt": -1, "trial_type": "single-stim", "stimulus": "<p id=\"stim\">7</p>", "internal_node_id": "0.0-160.0-3.0", "time_elapsed": 1077110, "key_press": -1, "trial_index": 217}, "uniqueid": "MTK1863:3IQ1VMJRYURIDB771WFQECXBIHL9AV", "dateTime": 1516481142906}, {"current_trial": 218, "trialdata": {"rt": -1, "trial_type": "single-stim", "stimulus": "<p id=\"stim\">6</p>", "internal_node_id": "0.0-160.0-4.0", "time_elapsed": 1078112, "key_press": -1, "trial_index": 218}, "uniqueid": "MTK1863:3IQ1VMJRYURIDB771WFQECXBIHL9AV", "dateTime": 1516481143908}, {"current_trial": 219, "trialdata": {"rt": -1, "trial_type": "single-stim", "stimulus": "<p id=\"stim\">5</p>", "internal_node_id": "0.0-160.0-5.0", "time_elapsed": 1079114, "key_press": -1, "trial_index": 219}, "uniqueid": "MTK1863:3IQ1VMJRYURIDB771WFQECXBIHL9AV", "dateTime": 1516481144910}, {"current_trial": 220, "trialdata": {"rt": -1, "trial_type": "single-stim", "stimulus": "<p id=\"stim\">4</p>", "internal_node_id": "0.0-160.0-6.0", "time_elapsed": 1080116, "key_press": -1, "trial_index": 220}, "uniqueid": "MTK1863:3IQ1VMJRYURIDB771WFQECXBIHL9AV", "dateTime": 1516481145912}, {"current_trial": 221, "trialdata": {"rt": -1, "trial_type": "single-stim", "stimulus": "<p id=\"stim\">3</p>", "internal_node_id": "0.0-160.0-7.0", "time_elapsed": 1081129, "key_press": -1, "trial_index": 221}, "uniqueid": "MTK1863:3IQ1VMJRYURIDB771WFQECXBIHL9AV", "dateTime": 1516481146925}, {"current_trial": 222, "trialdata": {"rt": -1, "trial_type": "single-stim", "stimulus": "<p id=\"stim\">2</p>", "internal_node_id": "0.0-160.0-8.0", "time_elapsed": 1082131, "key_press": -1, "trial_index": 222}, "uniqueid": "MTK1863:3IQ1VMJRYURIDB771WFQECXBIHL9AV", "dateTime": 1516481147928}, {"current_trial": 223, "trialdata": {"rt": -1, "trial_type": "single-stim", "stimulus": "<p id=\"stim\">1</p>", "internal_node_id": "0.0-160.0-9.0", "time_elapsed": 1083134, "key_press": -1, "trial_index": 223}, "uniqueid": "MTK1863:3IQ1VMJRYURIDB771WFQECXBIHL9AV", "dateTime": 1516481148930}, {"current_trial": 224, "trialdata": {"rt": -1, "trial_type": "single-stim", "stimulus": "<p id=\"stim\">+</p>", "internal_node_id": "0.0-161.0-0.0", "time_elapsed": 1084636, "key_press": -1, "type": "FIXATION", "trial_index": 224}, "uniqueid": "MTK1863:3IQ1VMJRYURIDB771WFQECXBIHL9AV", "dateTime": 1516481150434}, {"current_trial": 225, "trialdata": {"rt": -1, "trial_type": "single-stim", "word": "notebook", "stimulus": "<p id=\"stim\">NOTEBOOK</p>", "conditions": [12, 1600, "v", 24000], "internal_node_id": "0.0-162.0", "trial": 6, "time_elapsed": 1086240, "serialpos": 0, "key_press": -1, "wordID": 958, "type": "PRES_VIS", "trial_index": 225}, "uniqueid": "MTK1863:3IQ1VMJRYURIDB771WFQECXBIHL9AV", "dateTime": 1516481152037}, {"current_trial": 226, "trialdata": {"rt": -1, "trial_type": "single-stim", "word": "apron", "stimulus": "<p id=\"stim\">APRON</p>", "conditions": [12, 1600, "v", 24000], "internal_node_id": "0.0-163.0", "trial": 6, "time_elapsed": 1088791, "serialpos": 1, "key_press": -1, "wordID": 34, "type": "PRES_VIS", "trial_index": 226}, "uniqueid": "MTK1863:3IQ1VMJRYURIDB771WFQECXBIHL9AV", "dateTime": 1516481154588}, {"current_trial": 227, "trialdata": {"rt": -1, "trial_type": "single-stim", "word": "girl", "stimulus": "<p id=\"stim\">GIRL</p>", "conditions": [12, 1600, "v", 24000], "internal_node_id": "0.0-164.0", "trial": 6, "time_elapsed": 1091430, "serialpos": 2, "key_press": -1, "wordID": 636, "type": "PRES_VIS", "trial_index": 227}, "uniqueid": "MTK1863:3IQ1VMJRYURIDB771WFQECXBIHL9AV", "dateTime": 1516481157226}, {"current_trial": 228, "trialdata": {"rt": -1, "trial_type": "single-stim", "word": "necklace", "stimulus": "<p id=\"stim\">NECKLACE</p>", "conditions": [12, 1600, "v", 24000], "internal_node_id": "0.0-165.0", "trial": 6, "time_elapsed": 1094029, "serialpos": 3, "key_press": -1, "wordID": 939, "type": "PRES_VIS", "trial_index": 228}, "uniqueid": "MTK1863:3IQ1VMJRYURIDB771WFQECXBIHL9AV", "dateTime": 1516481159825}, {"current_trial": 229, "trialdata": {"rt": -1, "trial_type": "single-stim", "word": "box", "stimulus": "<p id=\"stim\">BOX</p>", "conditions": [12, 1600, "v", 24000], "internal_node_id": "0.0-166.0", "trial": 6, "time_elapsed": 1096520, "serialpos": 4, "key_press": -1, "wordID": 158, "type": "PRES_VIS", "trial_index": 229}, "uniqueid": "MTK1863:3IQ1VMJRYURIDB771WFQECXBIHL9AV", "dateTime": 1516481162317}, {"current_trial": 230, "trialdata": {"rt": -1, "trial_type": "single-stim", "word": "crutch", "stimulus": "<p id=\"stim\">CRUTCH</p>", "conditions": [12, 1600, "v", 24000], "internal_node_id": "0.0-167.0", "trial": 6, "time_elapsed": 1099288, "serialpos": 5, "key_press": -1, "wordID": 416, "type": "PRES_VIS", "trial_index": 230}, "uniqueid": "MTK1863:3IQ1VMJRYURIDB771WFQECXBIHL9AV", "dateTime": 1516481165084}, {"current_trial": 231, "trialdata": {"rt": -1, "trial_type": "single-stim", "word": "knife", "stimulus": "<p id=\"stim\">KNIFE</p>", "conditions": [12, 1600, "v", 24000], "internal_node_id": "0.0-168.0", "trial": 6, "time_elapsed": 1101940, "serialpos": 6, "key_press": -1, "wordID": 784, "type": "PRES_VIS", "trial_index": 231}, "uniqueid": "MTK1863:3IQ1VMJRYURIDB771WFQECXBIHL9AV", "dateTime": 1516481167736}, {"current_trial": 232, "trialdata": {"rt": -1, "trial_type": "single-stim", "word": "bunny", "stimulus": "<p id=\"stim\">BUNNY</p>", "conditions": [12, 1600, "v", 24000], "internal_node_id": "0.0-169.0", "trial": 6, "time_elapsed": 1104628, "serialpos": 7, "key_press": -1, "wordID": 197, "type": "PRES_VIS", "trial_index": 232}, "uniqueid": "MTK1863:3IQ1VMJRYURIDB771WFQECXBIHL9AV", "dateTime": 1516481170424}, {"current_trial": 233, "trialdata": {"rt": -1, "trial_type": "single-stim", "word": "diner", "stimulus": "<p id=\"stim\">DINER</p>", "conditions": [12, 1600, "v", 24000], "internal_node_id": "0.0-170.0", "trial": 6, "time_elapsed": 1107219, "serialpos": 8, "key_press": -1, "wordID": 466, "type": "PRES_VIS", "trial_index": 233}, "uniqueid": "MTK1863:3IQ1VMJRYURIDB771WFQECXBIHL9AV", "dateTime": 1516481173015}, {"current_trial": 234, "trialdata": {"rt": -1, "trial_type": "single-stim", "word": "pistol", "stimulus": "<p id=\"stim\">PISTOL</p>", "conditions": [12, 1600, "v", 24000], "internal_node_id": "0.0-171.0", "trial": 6, "time_elapsed": 1110007, "serialpos": 9, "key_press": -1, "wordID": 1074, "type": "PRES_VIS", "trial_index": 234}, "uniqueid": "MTK1863:3IQ1VMJRYURIDB771WFQECXBIHL9AV", "dateTime": 1516481175803}, {"current_trial": 235, "trialdata": {"rt": -1, "trial_type": "single-stim", "word": "salmon", "stimulus": "<p id=\"stim\">SALMON</p>", "conditions": [12, 1600, "v", 24000], "internal_node_id": "0.0-172.0", "trial": 6, "time_elapsed": 1112702, "serialpos": 10, "key_press": -1, "wordID": 1226, "type": "PRES_VIS", "trial_index": 235}, "uniqueid": "MTK1863:3IQ1VMJRYURIDB771WFQECXBIHL9AV", "dateTime": 1516481178498}, {"current_trial": 236, "trialdata": {"rt": -1, "trial_type": "single-stim", "word": "crab", "stimulus": "<p id=\"stim\">CRAB</p>", "conditions": [12, 1600, "v", 24000], "internal_node_id": "0.0-173.0", "trial": 6, "time_elapsed": 1115236, "serialpos": 11, "key_press": -1, "wordID": 396, "type": "PRES_VIS", "trial_index": 236}, "uniqueid": "MTK1863:3IQ1VMJRYURIDB771WFQECXBIHL9AV", "dateTime": 1516481181032}, {"current_trial": 237, "trialdata": {"rt": -1, "trial_type": "single-stim", "stimulus": "", "internal_node_id": "0.0-174.0-0.0", "time_elapsed": 1117513, "key_press": -1, "type": "PRE_RECALL_DELAY", "trial_index": 237}, "uniqueid": "MTK1863:3IQ1VMJRYURIDB771WFQECXBIHL9AV", "dateTime": 1516481183309}, {"current_trial": 238, "trialdata": {"rt": -1000, "trial_type": "single-audio", "stimulus": "/static/audio/400Hz.wav", "internal_node_id": "0.0-175.0", "time_elapsed": 1118015, "key_press": -1, "type": "PRE_RECALL_ALERT", "trial_index": 238}, "uniqueid": "MTK1863:3IQ1VMJRYURIDB771WFQECXBIHL9AV", "dateTime": 1516481183811}, {"current_trial": 239, "trialdata": {"rt": [4560, 8699, 12573, 19317, 23307, 27281, 31494, 37050, 43722], "recwords": ["+", "crab", "diner", "notebook", "necklace", "box", "knife", "box", "necklace"], "key_times": [3740, 3961, 4560, 6548, 6896, 7156, 7392, 8699, 10523, 10842, 11105, 11409, 11508, 12573, 13532, 13864, 14154, 14545, 15069, 16240, 16948, 17313, 17451, 17684, 19317, 20530, 20852, 21284, 21709, 21914, 22260, 22542, 22795, 23307, 25039, 25334, 26331, 27281, 29556, 29785, 30054, 30347, 30573, 31494, 35615, 35954, 36637, 37050, 40285, 40610, 40903, 41226, 41537, 41895, 42152, 43341, 43722], "trial_type": "free-recall", "conditions": [12, 1600, "v", 24000], "internal_node_id": "0.0-176.0-0.0", "key_presses": [16, 187, 13, 67, 82, 65, 66, 13, 68, 73, 78, 69, 82, 13, 78, 79, 84, 69, 78, 8, 66, 79, 79, 75, 13, 78, 69, 67, 75, 76, 65, 67, 69, 13, 66, 79, 88, 13, 75, 78, 73, 70, 69, 13, 66, 79, 88, 13, 78, 69, 67, 75, 76, 65, 67, 69, 13], "trial": 6, "time_elapsed": 1177957, "type": "FREE_RECALL", "trial_index": 239}, "uniqueid": "MTK1863:3IQ1VMJRYURIDB771WFQECXBIHL9AV", "dateTime": 1516481243766}, {"current_trial": 240, "trialdata": {"rt": 1517, "trial_type": "text", "internal_node_id": "0.0-177.0", "time_elapsed": 1181490, "key_press": 13, "type": "INSTRUCTIONS", "trial_index": 240}, "uniqueid": "MTK1863:3IQ1VMJRYURIDB771WFQECXBIHL9AV", "dateTime": 1516481247286}, {"current_trial": 241, "trialdata": {"rt": [5642, 11008], "trial_type": "math-distractor", "key_times": [4841, 4938, 5642, 10335, 10737, 11008], "responses": ["24", "20"], "num2": [8, 6, 9], "num3": [7, 5, 8], "conditions": [24, 1600, "v", 12000], "internal_node_id": "0.0-178.0", "key_presses": [50, 52, 13, 50, 48, 13], "trial": 7, "time_elapsed": 1195497, "type": "DISTRACTOR", "trial_index": 241, "num1": [8, 9, 2]}, "uniqueid": "MTK1863:3IQ1VMJRYURIDB771WFQECXBIHL9AV", "dateTime": 1516481261295}, {"current_trial": 242, "trialdata": {"rt": -1, "trial_type": "single-stim", "stimulus": "<p id=\"stim\">10</p>", "internal_node_id": "0.0-179.0-0.0", "time_elapsed": 1198502, "key_press": -1, "trial_index": 242}, "uniqueid": "MTK1863:3IQ1VMJRYURIDB771WFQECXBIHL9AV", "dateTime": 1516481264298}, {"current_trial": 243, "trialdata": {"rt": -1, "trial_type": "single-stim", "stimulus": "<p id=\"stim\">9</p>", "internal_node_id": "0.0-179.0-1.0", "time_elapsed": 1199504, "key_press": -1, "trial_index": 243}, "uniqueid": "MTK1863:3IQ1VMJRYURIDB771WFQECXBIHL9AV", "dateTime": 1516481265300}, {"current_trial": 244, "trialdata": {"rt": -1, "trial_type": "single-stim", "stimulus": "<p id=\"stim\">8</p>", "internal_node_id": "0.0-179.0-2.0", "time_elapsed": 1200506, "key_press": -1, "trial_index": 244}, "uniqueid": "MTK1863:3IQ1VMJRYURIDB771WFQECXBIHL9AV", "dateTime": 1516481266302}, {"current_trial": 245, "trialdata": {"rt": -1, "trial_type": "single-stim", "stimulus": "<p id=\"stim\">7</p>", "internal_node_id": "0.0-179.0-3.0", "time_elapsed": 1201508, "key_press": -1, "trial_index": 245}, "uniqueid": "MTK1863:3IQ1VMJRYURIDB771WFQECXBIHL9AV", "dateTime": 1516481267305}, {"current_trial": 246, "trialdata": {"rt": -1, "trial_type": "single-stim", "stimulus": "<p id=\"stim\">6</p>", "internal_node_id": "0.0-179.0-4.0", "time_elapsed": 1202511, "key_press": -1, "trial_index": 246}, "uniqueid": "MTK1863:3IQ1VMJRYURIDB771WFQECXBIHL9AV", "dateTime": 1516481268307}, {"current_trial": 247, "trialdata": {"rt": -1, "trial_type": "single-stim", "stimulus": "<p id=\"stim\">5</p>", "internal_node_id": "0.0-179.0-5.0", "time_elapsed": 1203513, "key_press": -1, "trial_index": 247}, "uniqueid": "MTK1863:3IQ1VMJRYURIDB771WFQECXBIHL9AV", "dateTime": 1516481269309}, {"current_trial": 248, "trialdata": {"rt": -1, "trial_type": "single-stim", "stimulus": "<p id=\"stim\">4</p>", "internal_node_id": "0.0-179.0-6.0", "time_elapsed": 1204515, "key_press": -1, "trial_index": 248}, "uniqueid": "MTK1863:3IQ1VMJRYURIDB771WFQECXBIHL9AV", "dateTime": 1516481270311}, {"current_trial": 249, "trialdata": {"rt": -1, "trial_type": "single-stim", "stimulus": "<p id=\"stim\">3</p>", "internal_node_id": "0.0-179.0-7.0", "time_elapsed": 1205517, "key_press": -1, "trial_index": 249}, "uniqueid": "MTK1863:3IQ1VMJRYURIDB771WFQECXBIHL9AV", "dateTime": 1516481271313}, {"current_trial": 250, "trialdata": {"rt": -1, "trial_type": "single-stim", "stimulus": "<p id=\"stim\">2</p>", "internal_node_id": "0.0-179.0-8.0", "time_elapsed": 1206519, "key_press": -1, "trial_index": 250}, "uniqueid": "MTK1863:3IQ1VMJRYURIDB771WFQECXBIHL9AV", "dateTime": 1516481272315}, {"current_trial": 251, "trialdata": {"rt": -1, "trial_type": "single-stim", "stimulus": "<p id=\"stim\">1</p>", "internal_node_id": "0.0-179.0-9.0", "time_elapsed": 1207521, "key_press": -1, "trial_index": 251}, "uniqueid": "MTK1863:3IQ1VMJRYURIDB771WFQECXBIHL9AV", "dateTime": 1516481273317}, {"current_trial": 252, "trialdata": {"rt": -1, "trial_type": "single-stim", "stimulus": "<p id=\"stim\">+</p>", "internal_node_id": "0.0-180.0-0.0", "time_elapsed": 1209023, "key_press": -1, "type": "FIXATION", "trial_index": 252}, "uniqueid": "MTK1863:3IQ1VMJRYURIDB771WFQECXBIHL9AV", "dateTime": 1516481274819}, {"current_trial": 253, "trialdata": {"rt": -1, "trial_type": "single-stim", "word": "kidney", "stimulus": "<p id=\"stim\">KIDNEY</p>", "conditions": [24, 1600, "v", 12000], "internal_node_id": "0.0-181.0", "trial": 7, "time_elapsed": 1210562, "serialpos": 0, "key_press": -1, "wordID": 775, "type": "PRES_VIS", "trial_index": 253}, "uniqueid": "MTK1863:3IQ1VMJRYURIDB771WFQECXBIHL9AV", "dateTime": 1516481276358}, {"current_trial": 254, "trialdata": {"rt": -1, "trial_type": "single-stim", "word": "contract", "stimulus": "<p id=\"stim\">CONTRACT</p>", "conditions": [24, 1600, "v", 12000], "internal_node_id": "0.0-182.0", "trial": 7, "time_elapsed": 1213064, "serialpos": 1, "key_press": -1, "wordID": 367, "type": "PRES_VIS", "trial_index": 254}, "uniqueid": "MTK1863:3IQ1VMJRYURIDB771WFQECXBIHL9AV", "dateTime": 1516481278860}, {"current_trial": 255, "trialdata": {"rt": -1, "trial_type": "single-stim", "word": "fungus", "stimulus": "<p id=\"stim\">FUNGUS</p>", "conditions": [24, 1600, "v", 12000], "internal_node_id": "0.0-183.0", "trial": 7, "time_elapsed": 1215639, "serialpos": 2, "key_press": -1, "wordID": 613, "type": "PRES_VIS", "trial_index": 255}, "uniqueid": "MTK1863