{"condition": 0, "counterbalance": 1736, "assignmentId": "386CSBG1O0TNI8CQSL90K2LES7TQ6G", "workerId": "MTK1171", "hitId": "36MUZ9VAE69VJU363FHC77A8BCIDER", "currenttrial": 627, "bonus": 0, "data": [{"uniqueid": "MTK1171:386CSBG1O0TNI8CQSL90K2LES7TQ6G", "current_trial": 0, "dateTime": 1513267767875, "trialdata": {"rt": 11832, "key_press": 32, "type": "INSTRUCTIONS", "trial_type": "text", "trial_index": 0, "time_elapsed": 11839, "internal_node_id": "0.0-0.0"}}, {"uniqueid": "MTK1171:386CSBG1O0TNI8CQSL90K2LES7TQ6G", "current_trial": 1, "dateTime": 1513267867807, "trialdata": {"rt": 99930, "key_press": 32, "type": "INSTRUCTIONS", "trial_type": "text", "trial_index": 1, "time_elapsed": 111774, "internal_node_id": "0.0-1.0"}}, {"uniqueid": "MTK1171:386CSBG1O0TNI8CQSL90K2LES7TQ6G", "current_trial": 2, "dateTime": 1513267884609, "trialdata": {"rt": [16743], "responses": ["ocean"], "type": "AUDIO_TEST", "trial_type": "audio-test", "trial_index": 2, "time_elapsed": 128576, "internal_node_id": "0.0-2.0"}}, {"uniqueid": "MTK1171:386CSBG1O0TNI8CQSL90K2LES7TQ6G", "current_trial": 3, "dateTime": 1513267901771, "trialdata": {"rt": [17148], "responses": ["crystal"], "type": "AUDIO_TEST", "trial_type": "audio-test", "trial_index": 3, "time_elapsed": 145738, "internal_node_id": "0.0-3.0"}}, {"uniqueid": "MTK1171:386CSBG1O0TNI8CQSL90K2LES7TQ6G", "current_trial": 4, "dateTime": 1513267909870, "trialdata": {"rt": [8089], "responses": ["spice"], "type": "AUDIO_TEST", "trial_type": "audio-test", "trial_index": 4, "time_elapsed": 153837, "internal_node_id": "0.0-4.0"}}, {"uniqueid": "MTK1171:386CSBG1O0TNI8CQSL90K2LES7TQ6G", "current_trial": 5, "dateTime": 1513267946058, "trialdata": {"rt": 35432, "responses": "{\"Q0\":\"10:00\\n10:pm\",\"Q1\":\"6:00 am\",\"Q2\":\"5\"}", "type": "SLEEP_SURVEY", "trial_type": "survey-text", "trial_index": 5, "time_elapsed": 190025, "internal_node_id": "0.0-5.0"}}, {"uniqueid": "MTK1171:386CSBG1O0TNI8CQSL90K2LES7TQ6G", "current_trial": 6, "dateTime": 1513268125019, "trialdata": {"rt": 177956, "key_press": 40, "type": "INSTRUCTIONS", "trial_type": "text", "trial_index": 6, "time_elapsed": 368984, "internal_node_id": "0.0-6.0"}}, {"uniqueid": "MTK1171:386CSBG1O0TNI8CQSL90K2LES7TQ6G", "current_trial": 7, "dateTime": 1513268140718, "trialdata": {"rt": 15193, "key_press": 32, "type": "INSTRUCTIONS", "trial_type": "text", "trial_index": 7, "time_elapsed": 384685, "internal_node_id": "0.0-7.0"}}, {"uniqueid": "MTK1171:386CSBG1O0TNI8CQSL90K2LES7TQ6G", "current_trial": 8, "dateTime": 1513268151653, "trialdata": {"rt": 10432, "key_press": 32, "type": "INSTRUCTIONS", "trial_type": "text", "trial_index": 8, "time_elapsed": 395620, "internal_node_id": "0.0-8.0"}}, {"uniqueid": "MTK1171:386CSBG1O0TNI8CQSL90K2LES7TQ6G", "current_trial": 9, "dateTime": 1513268170693, "trialdata": {"rt": [5268, 12521, 16405], "responses": ["9", "12", "15"], "num1": [2, 3, 2, 1], "num2": [2, 3, 5, 3], "num3": [5, 6, 8, 3], "type": "DISTRACTOR", "conditions": [18, 1200, "v", 18000], "trial": 0, "trial_type": "math-distractor", "trial_index": 9, "time_elapsed": 414659, "internal_node_id": "0.0-9.0"}}, {"uniqueid": "MTK1171:386CSBG1O0TNI8CQSL90K2LES7TQ6G", "current_trial": 10, "dateTime": 1513268173699, "trialdata": {"rt": -1, "stimulus": "<p id=\"stim\">10</p>", "key_press": -1, "trial_type": "single-stim", "trial_index": 10, "time_elapsed": 417666, "internal_node_id": "0.0-10.0-0.0"}}, {"uniqueid": "MTK1171:386CSBG1O0TNI8CQSL90K2LES7TQ6G", "current_trial": 11, "dateTime": 1513268174702, "trialdata": {"rt": -1, "stimulus": "<p id=\"stim\">9</p>", "key_press": -1, "trial_type": "single-stim", "trial_index": 11, "time_elapsed": 418668, "internal_node_id": "0.0-10.0-1.0"}}, {"uniqueid": "MTK1171:386CSBG1O0TNI8CQSL90K2LES7TQ6G", "current_trial": 12, "dateTime": 1513268175704, "trialdata": {"rt": -1, "stimulus": "<p id=\"stim\">8</p>", "key_press": -1, "trial_type": "single-stim", "trial_index": 12, "time_elapsed": 419670, "internal_node_id": "0.0-10.0-2.0"}}, {"uniqueid": "MTK1171:386CSBG1O0TNI8CQSL90K2LES7TQ6G", "current_trial": 13, "dateTime": 1513268176708, "trialdata": {"rt": -1, "stimulus": "<p id=\"stim\">7</p>", "key_press": -1, "trial_type": "single-stim", "trial_index": 13, "time_elapsed": 420674, "internal_node_id": "0.0-10.0-3.0"}}, {"uniqueid": "MTK1171:386CSBG1O0TNI8CQSL90K2LES7TQ6G", "current_trial": 14, "dateTime": 1513268177710, "trialdata": {"rt": -1, "stimulus": "<p id=\"stim\">6</p>", "key_press": -1, "trial_type": "single-stim", "trial_index": 14, "time_elapsed": 421677, "internal_node_id": "0.0-10.0-4.0"}}, {"uniqueid": "MTK1171:386CSBG1O0TNI8CQSL90K2LES7TQ6G", "current_trial": 15, "dateTime": 1513268178712, "trialdata": {"rt": -1, "stimulus": "<p id=\"stim\">5</p>", "key_press": -1, "trial_type": "single-stim", "trial_index": 15, "time_elapsed": 422679, "internal_node_id": "0.0-10.0-5.0"}}, {"uniqueid": "MTK1171:386CSBG1O0TNI8CQSL90K2LES7TQ6G", "current_trial": 16, "dateTime": 1513268179714, "trialdata": {"rt": -1, "stimulus": "<p id=\"stim\">4</p>", "key_press": -1, "trial_type": "single-stim", "trial_index": 16, "time_elapsed": 423681, "internal_node_id": "0.0-10.0-6.0"}}, {"uniqueid": "MTK1171:386CSBG1O0TNI8CQSL90K2LES7TQ6G", "current_trial": 17, "dateTime": 1513268180717, "trialdata": {"rt": -1, "stimulus": "<p id=\"stim\">3</p>", "key_press": -1, "trial_type": "single-stim", "trial_index": 17, "time_elapsed": 424684, "internal_node_id": "0.0-10.0-7.0"}}, {"uniqueid": "MTK1171:386CSBG1O0TNI8CQSL90K2LES7TQ6G", "current_trial": 18, "dateTime": 1513268181719, "trialdata": {"rt": -1, "stimulus": "<p id=\"stim\">2</p>", "key_press": -1, "trial_type": "single-stim", "trial_index": 18, "time_elapsed": 425686, "internal_node_id": "0.0-10.0-8.0"}}, {"uniqueid": "MTK1171:386CSBG1O0TNI8CQSL90K2LES7TQ6G", "current_trial": 19, "dateTime": 1513268182723, "trialdata": {"rt": -1, "stimulus": "<p id=\"stim\">1</p>", "key_press": -1, "trial_type": "single-stim", "trial_index": 19, "time_elapsed": 426689, "internal_node_id": "0.0-10.0-9.0"}}, {"uniqueid": "MTK1171:386CSBG1O0TNI8CQSL90K2LES7TQ6G", "current_trial": 20, "dateTime": 1513268184228, "trialdata": {"rt": -1, "stimulus": "<p id=\"stim\">+</p>", "key_press": -1, "type": "FIXATION", "trial_type": "single-stim", "trial_index": 20, "time_elapsed": 428195, "internal_node_id": "0.0-11.0-0.0"}}, {"uniqueid": "MTK1171:386CSBG1O0TNI8CQSL90K2LES7TQ6G", "current_trial": 21, "dateTime": 1513268185437, "trialdata": {"rt": -1, "stimulus": "<p id=\"stim\">MARKER</p>", "key_press": -1, "type": "PRES_VIS", "word": "marker", "wordID": 869, "conditions": [18, 1200, "v", 18000], "trial": 0, "serialpos": 0, "trial_type": "single-stim", "trial_index": 21, "time_elapsed": 429403, "internal_node_id": "0.0-12.0"}}, {"uniqueid": "MTK1171:386CSBG1O0TNI8CQSL90K2LES7TQ6G", "current_trial": 22, "dateTime": 1513268187764, "trialdata": {"rt": -1, "stimulus": "<p id=\"stim\">NAPKIN</p>", "key_press": -1, "type": "PRES_VIS", "word": "napkin", "wordID": 936, "conditions": [18, 1200, "v", 18000], "trial": 0, "serialpos": 1, "trial_type": "single-stim", "trial_index": 22, "time_elapsed": 431731, "internal_node_id": "0.0-13.0"}}, {"uniqueid": "MTK1171:386CSBG1O0TNI8CQSL90K2LES7TQ6G", "current_trial": 23, "dateTime": 1513268189955, "trialdata": {"rt": -1, "stimulus": "<p id=\"stim\">BOX</p>", "key_press": -1, "type": "PRES_VIS", "word": "box", "wordID": 158, "conditions": [18, 1200, "v", 18000], "trial": 0, "serialpos": 2, "trial_type": "single-stim", "trial_index": 23, "time_elapsed": 433922, "internal_node_id": "0.0-14.0"}}, {"uniqueid": "MTK1171:386CSBG1O0TNI8CQSL90K2LES7TQ6G", "current_trial": 24, "dateTime": 1513268192240, "trialdata": {"rt": -1, "stimulus": "<p id=\"stim\">VENUS</p>", "key_press": -1, "type": "PRES_VIS", "word": "venus", "wordID": 1556, "conditions": [18, 1200, "v", 18000], "trial": 0, "serialpos": 3, "trial_type": "single-stim", "trial_index": 24, "time_elapsed": 436207, "internal_node_id": "0.0-15.0"}}, {"uniqueid": "MTK1171:386CSBG1O0TNI8CQSL90K2LES7TQ6G", "current_trial": 25, "dateTime": 1513268194334, "trialdata": {"rt": -1, "stimulus": "<p id=\"stim\">COMPASS</p>", "key_press": -1, "type": "PRES_VIS", "word": "compass", "wordID": 357, "conditions": [18, 1200, "v", 18000], "trial": 0, "serialpos": 4, "trial_type": "single-stim", "trial_index": 25, "time_elapsed": 438301, "internal_node_id": "0.0-16.0"}}, {"uniqueid": "MTK1171:386CSBG1O0TNI8CQSL90K2LES7TQ6G", "current_trial": 26, "dateTime": 1513268196588, "trialdata": {"rt": -1, "stimulus": "<p id=\"stim\">BLENDER</p>", "key_press": -1, "type": "PRES_VIS", "word": "blender", "wordID": 135, "conditions": [18, 1200, "v", 18000], "trial": 0, "serialpos": 5, "trial_type": "single-stim", "trial_index": 26, "time_elapsed": 440554, "internal_node_id": "0.0-17.0"}}, {"uniqueid": "MTK1171:386CSBG1O0TNI8CQSL90K2LES7TQ6G", "current_trial": 27, "dateTime": 1513268198614, "trialdata": {"rt": -1, "stimulus": "<p id=\"stim\">BATHTUB</p>", "key_press": -1, "type": "PRES_VIS", "word": "bathtub", "wordID": 99, "conditions": [18, 1200, "v", 18000], "trial": 0, "serialpos": 6, "trial_type": "single-stim", "trial_index": 27, "time_elapsed": 442581, "internal_node_id": "0.0-18.0"}}, {"uniqueid": "MTK1171:386CSBG1O0TNI8CQSL90K2LES7TQ6G", "current_trial": 28, "dateTime": 1513268200969, "trialdata": {"rt": -1, "stimulus": "<p id=\"stim\">UNCLE</p>", "key_press": -1, "type": "PRES_VIS", "word": "uncle", "wordID": 1535, "conditions": [18, 1200, "v", 18000], "trial": 0, "serialpos": 7, "trial_type": "single-stim", "trial_index": 28, "time_elapsed": 444935, "internal_node_id": "0.0-19.0"}}, {"uniqueid": "MTK1171:386CSBG1O0TNI8CQSL90K2LES7TQ6G", "current_trial": 29, "dateTime": 1513268203351, "trialdata": {"rt": -1, "stimulus": "<p id=\"stim\">UMPIRE</p>", "key_press": -1, "type": "PRES_VIS", "word": "umpire", "wordID": 1534, "conditions": [18, 1200, "v", 18000], "trial": 0, "serialpos": 8, "trial_type": "single-stim", "trial_index": 29, "time_elapsed": 447318, "internal_node_id": "0.0-20.0"}}, {"uniqueid": "MTK1171:386CSBG1O0TNI8CQSL90K2LES7TQ6G", "current_trial": 30, "dateTime": 1513268205372, "trialdata": {"rt": -1, "stimulus": "<p id=\"stim\">ULCER</p>", "key_press": -1, "type": "PRES_VIS", "word": "ulcer", "wordID": 1532, "conditions": [18, 1200, "v", 18000], "trial": 0, "serialpos": 9, "trial_type": "single-stim", "trial_index": 30, "time_elapsed": 449339, "internal_node_id": "0.0-21.0"}}, {"uniqueid": "MTK1171:386CSBG1O0TNI8CQSL90K2LES7TQ6G", "current_trial": 31, "dateTime": 1513268207585, "trialdata": {"rt": -1, "stimulus": "<p id=\"stim\">CAMEL</p>", "key_press": -1, "type": "PRES_VIS", "word": "camel", "wordID": 222, "conditions": [18, 1200, "v", 18000], "trial": 0, "serialpos": 10, "trial_type": "single-stim", "trial_index": 31, "time_elapsed": 451551, "internal_node_id": "0.0-22.0"}}, {"uniqueid": "MTK1171:386CSBG1O0TNI8CQSL90K2LES7TQ6G", "current_trial": 32, "dateTime": 1513268209888, "trialdata": {"rt": -1, "stimulus": "<p id=\"stim\">MARSH</p>", "key_press": -1, "type": "PRES_VIS", "word": "marsh", "wordID": 873, "conditions": [18, 1200, "v", 18000], "trial": 0, "serialpos": 11, "trial_type": "single-stim", "trial_index": 32, "time_elapsed": 453854, "internal_node_id": "0.0-23.0"}}, {"uniqueid": "MTK1171:386CSBG1O0TNI8CQSL90K2LES7TQ6G", "current_trial": 33, "dateTime": 1513268212211, "trialdata": {"rt": -1, "stimulus": "<p id=\"stim\">HAWK</p>", "key_press": -1, "type": "PRES_VIS", "word": "hawk", "wordID": 691, "conditions": [18, 1200, "v", 18000], "trial": 0, "serialpos": 12, "trial_type": "single-stim", "trial_index": 33, "time_elapsed": 456178, "internal_node_id": "0.0-24.0"}}, {"uniqueid": "MTK1171:386CSBG1O0TNI8CQSL90K2LES7TQ6G", "current_trial": 34, "dateTime": 1513268214373, "trialdata": {"rt": -1, "stimulus": "<p id=\"stim\">PECAN</p>", "key_press": -1, "type": "PRES_VIS", "word": "pecan", "wordID": 1035, "conditions": [18, 1200, "v", 18000], "trial": 0, "serialpos": 13, "trial_type": "single-stim", "trial_index": 34, "time_elapsed": 458340, "internal_node_id": "0.0-25.0"}}, {"uniqueid": "MTK1171:386CSBG1O0TNI8CQSL90K2LES7TQ6G", "current_trial": 35, "dateTime": 1513268216379, "trialdata": {"rt": -1, "stimulus": "<p id=\"stim\">CUSTARD</p>", "key_press": -1, "type": "PRES_VIS", "word": "custard", "wordID": 428, "conditions": [18, 1200, "v", 18000], "trial": 0, "serialpos": 14, "trial_type": "single-stim", "trial_index": 35, "time_elapsed": 460346, "internal_node_id": "0.0-26.0"}}, {"uniqueid": "MTK1171:386CSBG1O0TNI8CQSL90K2LES7TQ6G", "current_trial": 36, "dateTime": 1513268218657, "trialdata": {"rt": -1, "stimulus": "<p id=\"stim\">BUNNY</p>", "key_press": -1, "type": "PRES_VIS", "word": "bunny", "wordID": 197, "conditions": [18, 1200, "v", 18000], "trial": 0, "serialpos": 15, "trial_type": "single-stim", "trial_index": 36, "time_elapsed": 462624, "internal_node_id": "0.0-27.0"}}, {"uniqueid": "MTK1171:386CSBG1O0TNI8CQSL90K2LES7TQ6G", "current_trial": 37, "dateTime": 1513268220807, "trialdata": {"rt": -1, "stimulus": "<p id=\"stim\">LAKE</p>", "key_press": -1, "type": "PRES_VIS", "word": "lake", "wordID": 795, "conditions": [18, 1200, "v", 18000], "trial": 0, "serialpos": 16, "trial_type": "single-stim", "trial_index": 37, "time_elapsed": 464773, "internal_node_id": "0.0-28.0"}}, {"uniqueid": "MTK1171:386CSBG1O0TNI8CQSL90K2LES7TQ6G", "current_trial": 38, "dateTime": 1513268223087, "trialdata": {"rt": -1, "stimulus": "<p id=\"stim\">GRAPE</p>", "key_press": -1, "type": "PRES_VIS", "word": "grape", "wordID": 653, "conditions": [18, 1200, "v", 18000], "trial": 0, "serialpos": 17, "trial_type": "single-stim", "trial_index": 38, "time_elapsed": 467054, "internal_node_id": "0.0-29.0"}}, {"uniqueid": "MTK1171:386CSBG1O0TNI8CQSL90K2LES7TQ6G", "current_trial": 39, "dateTime": 1513268225578, "trialdata": {"rt": -1, "stimulus": "", "key_press": -1, "type": "PRE_RECALL_DELAY", "trial_type": "single-stim", "trial_index": 39, "time_elapsed": 469545, "internal_node_id": "0.0-30.0-0.0"}}, {"uniqueid": "MTK1171:386CSBG1O0TNI8CQSL90K2LES7TQ6G", "current_trial": 40, "dateTime": 1513268226083, "trialdata": {"rt": -1000, "stimulus": "/static/audio/400Hz.wav", "key_press": -1, "type": "PRE_RECALL_ALERT", "trial_type": "single-audio", "trial_index": 40, "time_elapsed": 470050, "internal_node_id": "0.0-31.0"}}, {"uniqueid": "MTK1171:386CSBG1O0TNI8CQSL90K2LES7TQ6G", "current_trial": 41, "dateTime": 1513268286112, "trialdata": {"rt": [5067, 6804, 10174, 13990, 16549, 30917, 33275, 37232, 40165, 43563, 50067], "recwords": ["grape", "lake", "custard", "marsh", "box", "napkin", "ulcer", "uncle", "umpire", "camel", "box"], "type": "FREE_RECALL", "conditions": [18, 1200, "v", 18000], "trial": 0, "trial_type": "free-recall", "trial_index": 41, "time_elapsed": 530059, "internal_node_id": "0.0-32.0-0.0"}}, {"uniqueid": "MTK1171:386CSBG1O0TNI8CQSL90K2LES7TQ6G", "current_trial": 42, "dateTime": 1513268290589, "trialdata": {"rt": 2474, "key_press": 32, "type": "INSTRUCTIONS", "trial_type": "text", "trial_index": 42, "time_elapsed": 534556, "internal_node_id": "0.0-33.0"}}, {"uniqueid": "MTK1171:386CSBG1O0TNI8CQSL90K2LES7TQ6G", "current_trial": 43, "dateTime": 1513268310595, "trialdata": {"rt": [2259, 8656, 12325, 17291], "responses": ["8", "18", "16", "16"], "num1": [5, 7, 1, 5, 2], "num2": [2, 6, 9, 4, 7], "num3": [1, 5, 6, 7, 1], "type": "DISTRACTOR", "conditions": [18, 1200, "a", 18000], "trial": 1, "trial_type": "math-distractor", "trial_index": 43, "time_elapsed": 554562, "internal_node_id": "0.0-34.0"}}, {"uniqueid": "MTK1171:386CSBG1O0TNI8CQSL90K2LES7TQ6G", "current_trial": 44, "dateTime": 1513268313598, "trialdata": {"rt": -1, "stimulus": "<p id=\"stim\">10</p>", "key_press": -1, "trial_type": "single-stim", "trial_index": 44, "time_elapsed": 557565, "internal_node_id": "0.0-35.0-0.0"}}, {"uniqueid": "MTK1171:386CSBG1O0TNI8CQSL90K2LES7TQ6G", "current_trial": 45, "dateTime": 1513268314600, "trialdata": {"rt": -1, "stimulus": "<p id=\"stim\">9</p>", "key_press": -1, "trial_type": "single-stim", "trial_index": 45, "time_elapsed": 558567, "internal_node_id": "0.0-35.0-1.0"}}, {"uniqueid": "MTK1171:386CSBG1O0TNI8CQSL90K2LES7TQ6G", "current_trial": 46, "dateTime": 1513268315603, "trialdata": {"rt": -1, "stimulus": "<p id=\"stim\">8</p>", "key_press": -1, "trial_type": "single-stim", "trial_index": 46, "time_elapsed": 559569, "internal_node_id": "0.0-35.0-2.0"}}, {"uniqueid": "MTK1171:386CSBG1O0TNI8CQSL90K2LES7TQ6G", "current_trial": 47, "dateTime": 1513268316618, "trialdata": {"rt": -1, "stimulus": "<p id=\"stim\">7</p>", "key_press": -1, "trial_type": "single-stim", "trial_index": 47, "time_elapsed": 560584, "internal_node_id": "0.0-35.0-3.0"}}, {"uniqueid": "MTK1171:386CSBG1O0TNI8CQSL90K2LES7TQ6G", "current_trial": 48, "dateTime": 1513268317620, "trialdata": {"rt": -1, "stimulus": "<p id=\"stim\">6</p>", "key_press": -1, "trial_type": "single-stim", "trial_index": 48, "time_elapsed": 561587, "internal_node_id": "0.0-35.0-4.0"}}, {"uniqueid": "MTK1171:386CSBG1O0TNI8CQSL90K2LES7TQ6G", "current_trial": 49, "dateTime": 1513268318622, "trialdata": {"rt": -1, "stimulus": "<p id=\"stim\">5</p>", "key_press": -1, "trial_type": "single-stim", "trial_index": 49, "time_elapsed": 562589, "internal_node_id": "0.0-35.0-5.0"}}, {"uniqueid": "MTK1171:386CSBG1O0TNI8CQSL90K2LES7TQ6G", "current_trial": 50, "dateTime": 1513268319625, "trialdata": {"rt": -1, "stimulus": "<p id=\"stim\">4</p>", "key_press": -1, "trial_type": "single-stim", "trial_index": 50, "time_elapsed": 563591, "internal_node_id": "0.0-35.0-6.0"}}, {"uniqueid": "MTK1171:386CSBG1O0TNI8CQSL90K2LES7TQ6G", "current_trial": 51, "dateTime": 1513268320629, "trialdata": {"rt": -1, "stimulus": "<p id=\"stim\">3</p>", "key_press": -1, "trial_type": "single-stim", "trial_index": 51, "time_elapsed": 564594, "internal_node_id": "0.0-35.0-7.0"}}, {"uniqueid": "MTK1171:386CSBG1O0TNI8CQSL90K2LES7TQ6G", "current_trial": 52, "dateTime": 1513268321633, "trialdata": {"rt": -1, "stimulus": "<p id=\"stim\">2</p>", "key_press": -1, "trial_type": "single-stim", "trial_index": 52, "time_elapsed": 565599, "internal_node_id": "0.0-35.0-8.0"}}, {"uniqueid": "MTK1171:386CSBG1O0TNI8CQSL90K2LES7TQ6G", "current_trial": 53, "dateTime": 1513268322636, "trialdata": {"rt": -1, "stimulus": "<p id=\"stim\">1</p>", "key_press": -1, "trial_type": "single-stim", "trial_index": 53, "time_elapsed": 566603, "internal_node_id": "0.0-35.0-9.0"}}, {"uniqueid": "MTK1171:386CSBG1O0TNI8CQSL90K2LES7TQ6G", "current_trial": 54, "dateTime": 1513268324141, "trialdata": {"rt": -1, "stimulus": "<p id=\"stim\">+</p>", "key_press": -1, "type": "FIXATION", "trial_type": "single-stim", "trial_index": 54, "time_elapsed": 568106, "internal_node_id": "0.0-36.0-0.0"}}, {"uniqueid": "MTK1171:386CSBG1O0TNI8CQSL90K2LES7TQ6G", "current_trial": 55, "dateTime": 1513268326359, "trialdata": {"rt": -1000, "stimulus": "/static/audio/wordpool/PATIENT.wav", "key_press": -1, "type": "PRES_AUD", "word": "patient", "wordID": 1023, "conditions": [18, 1200, "a", 18000], "trial": 1, "serialpos": 0, "trial_type": "single-audio", "trial_index": 55, "time_elapsed": 570325, "internal_node_id": "0.0-37.0"}}, {"uniqueid": "MTK1171:386CSBG1O0TNI8CQSL90K2LES7TQ6G", "current_trial": 56, "dateTime": 1513268328686, "trialdata": {"rt": -1000, "stimulus": "/static/audio/wordpool/DRESSER.wav", "key_press": -1, "type": "PRES_AUD", "word": "dresser", "wordID": 495, "conditions": [18, 1200, "a", 18000], "trial": 1, "serialpos": 1, "trial_type": "single-audio", "trial_index": 56, "time_elapsed": 572652, "internal_node_id": "0.0-38.0"}}, {"uniqueid": "MTK1171:386CSBG1O0TNI8CQSL90K2LES7TQ6G", "current_trial": 57, "dateTime": 1513268330800, "trialdata": {"rt": -1000, "stimulus": "/static/audio/wordpool/SCALPEL.wav", "key_press": -1, "type": "PRES_AUD", "word": "scalpel", "wordID": 1242, "conditions": [18, 1200, "a", 18000], "trial": 1, "serialpos": 2, "trial_type": "single-audio", "trial_index": 57, "time_elapsed": 574767, "internal_node_id": "0.0-39.0"}}, {"uniqueid": "MTK1171:386CSBG1O0TNI8CQSL90K2LES7TQ6G", "current_trial": 58, "dateTime": 1513268332825, "trialdata": {"rt": -1000, "stimulus": "/static/audio/wordpool/TERMITE.wav", "key_press": -1, "type": "PRES_AUD", "word": "termite", "wordID": 1450, "conditions": [18, 1200, "a", 18000], "trial": 1, "serialpos": 3, "trial_type": "single-audio", "trial_index": 58, "time_elapsed": 576792, "internal_node_id": "0.0-40.0"}}, {"uniqueid": "MTK1171:386CSBG1O0TNI8CQSL90K2LES7TQ6G", "current_trial": 59, "dateTime": 1513268335069, "trialdata": {"rt": -1000, "stimulus": "/static/audio/wordpool/FRAME.wav", "key_press": -1, "type": "PRES_AUD", "word": "frame", "wordID": 599, "conditions": [18, 1200, "a", 18000], "trial": 1, "serialpos": 4, "trial_type": "single-audio", "trial_index": 59, "time_elapsed": 579036, "internal_node_id": "0.0-41.0"}}, {"uniqueid": "MTK1171:386CSBG1O0TNI8CQSL90K2LES7TQ6G", "current_trial": 60, "dateTime": 1513268337227, "trialdata": {"rt": -1000, "stimulus": "/static/audio/wordpool/CRATER.wav", "key_press": -1, "type": "PRES_AUD", "word": "crater", "wordID": 399, "conditions": [18, 1200, "a", 18000], "trial": 1, "serialpos": 5, "trial_type": "single-audio", "trial_index": 60, "time_elapsed": 581193, "internal_node_id": "0.0-42.0"}}, {"uniqueid": "MTK1171:386CSBG1O0TNI8CQSL90K2LES7TQ6G", "current_trial": 61, "dateTime": 1513268339373, "trialdata": {"rt": -1000, "stimulus": "/static/audio/wordpool/BANK.wav", "key_press": -1, "type": "PRES_AUD", "word": "bank", "wordID": 82, "conditions": [18, 1200, "a", 18000], "trial": 1, "serialpos": 6, "trial_type": "single-audio", "trial_index": 61, "time_elapsed": 583339, "internal_node_id": "0.0-43.0"}}, {"uniqueid": "MTK1171:386CSBG1O0TNI8CQSL90K2LES7TQ6G", "current_trial": 62, "dateTime": 1513268341563, "trialdata": {"rt": -1000, "stimulus": "/static/audio/wordpool/DIME.wav", "key_press": -1, "type": "PRES_AUD", "word": "dime", "wordID": 465, "conditions": [18, 1200, "a", 18000], "trial": 1, "serialpos": 7, "trial_type": "single-audio", "trial_index": 62, "time_elapsed": 585529, "internal_node_id": "0.0-44.0"}}, {"uniqueid": "MTK1171:386CSBG1O0TNI8CQSL90K2LES7TQ6G", "current_trial": 63, "dateTime": 1513268343877, "trialdata": {"rt": -1000, "stimulus": "/static/audio/wordpool/HIKER.wav", "key_press": -1, "type": "PRES_AUD", "word": "hiker", "wordID": 707, "conditions": [18, 1200, "a", 18000], "trial": 1, "serialpos": 8, "trial_type": "single-audio", "trial_index": 63, "time_elapsed": 587843, "internal_node_id": "0.0-45.0"}}, {"uniqueid": "MTK1171:386CSBG1O0TNI8CQSL90K2LES7TQ6G", "current_trial": 64, "dateTime": 1513268346253, "trialdata": {"rt": -1000, "stimulus": "/static/audio/wordpool/POWDER.wav", "key_press": -1, "type": "PRES_AUD", "word": "powder", "wordID": 1116, "conditions": [18, 1200, "a", 18000], "trial": 1, "serialpos": 9, "trial_type": "single-audio", "trial_index": 64, "time_elapsed": 590220, "internal_node_id": "0.0-46.0"}}, {"uniqueid": "MTK1171:386CSBG1O0TNI8CQSL90K2LES7TQ6G", "current_trial": 65, "dateTime": 1513268348336, "trialdata": {"rt": -1000, "stimulus": "/static/audio/wordpool/SNAIL.wav", "key_press": -1, "type": "PRES_AUD", "word": "snail", "wordID": 1331, "conditions": [18, 1200, "a", 18000], "trial": 1, "serialpos": 10, "trial_type": "single-audio", "trial_index": 65, "time_elapsed": 592302, "internal_node_id": "0.0-47.0"}}, {"uniqueid": "MTK1171:386CSBG1O0TNI8CQSL90K2LES7TQ6G", "current_trial": 66, "dateTime": 1513268350568, "trialdata": {"rt": -1000, "stimulus": "/static/audio/wordpool/FOOTBALL.wav", "key_press": -1, "type": "PRES_AUD", "word": "football", "wordID": 590, "conditions": [18, 1200, "a", 18000], "trial": 1, "serialpos": 11, "trial_type": "single-audio", "trial_index": 66, "time_elapsed": 594535, "internal_node_id": "0.0-48.0"}}, {"uniqueid": "MTK1171:386CSBG1O0TNI8CQSL90K2LES7TQ6G", "current_trial": 67, "dateTime": 1513268352596, "trialdata": {"rt": -1000, "stimulus": "/static/audio/wordpool/BABY.wav", "key_press": -1, "type": "PRES_AUD", "word": "baby", "wordID": 63, "conditions": [18, 1200, "a", 18000], "trial": 1, "serialpos": 12, "trial_type": "single-audio", "trial_index": 67, "time_elapsed": 596563, "internal_node_id": "0.0-49.0"}}, {"uniqueid": "MTK1171:386CSBG1O0TNI8CQSL90K2LES7TQ6G", "current_trial": 68, "dateTime": 1513268354806, "trialdata": {"rt": -1000, "stimulus": "/static/audio/wordpool/OYSTER.wav", "key_press": -1, "type": "PRES_AUD", "word": "oyster", "wordID": 994, "conditions": [18, 1200, "a", 18000], "trial": 1, "serialpos": 13, "trial_type": "single-audio", "trial_index": 68, "time_elapsed": 598773, "internal_node_id": "0.0-50.0"}}, {"uniqueid": "MTK1171:386CSBG1O0TNI8CQSL90K2LES7TQ6G", "current_trial": 69, "dateTime": 1513268357188, "trialdata": {"rt": -1000, "stimulus": "/static/audio/wordpool/FILM.wav", "key_press": -1, "type": "PRES_AUD", "word": "film", "wordID": 564, "conditions": [18, 1200, "a", 18000], "trial": 1, "serialpos": 14, "trial_type": "single-audio", "trial_index": 69, "time_elapsed": 601155, "internal_node_id": "0.0-51.0"}}, {"uniqueid": "MTK1171:386CSBG1O0TNI8CQSL90K2LES7TQ6G", "current_trial": 70, "dateTime": 1513268359293, "trialdata": {"rt": -1000, "stimulus": "/static/audio/wordpool/ELBOW.wav", "key_press": -1, "type": "PRES_AUD", "word": "elbow", "wordID": 519, "conditions": [18, 1200, "a", 18000], "trial": 1, "serialpos": 15, "trial_type": "single-audio", "trial_index": 70, "time_elapsed": 603260, "internal_node_id": "0.0-52.0"}}, {"uniqueid": "MTK1171:386CSBG1O0TNI8CQSL90K2LES7TQ6G", "current_trial": 71, "dateTime": 1513268361695, "trialdata": {"rt": -1000, "stimulus": "/static/audio/wordpool/PIZZA.wav", "key_press": -1, "type": "PRES_AUD", "word": "pizza", "wordID": 1078, "conditions": [18, 1200, "a", 18000], "trial": 1, "serialpos": 16, "trial_type": "single-audio", "trial_index": 71, "time_elapsed": 605662, "internal_node_id": "0.0-53.0"}}, {"uniqueid": "MTK1171:386CSBG1O0TNI8CQSL90K2LES7TQ6G", "current_trial": 72, "dateTime": 1513268363833, "trialdata": {"rt": -1000, "stimulus": "/static/audio/wordpool/POPCORN.wav", "key_press": -1, "type": "PRES_AUD", "word": "popcorn", "wordID": 1103, "conditions": [18, 1200, "a", 18000], "trial": 1, "serialpos": 17, "trial_type": "single-audio", "trial_index": 72, "time_elapsed": 607799, "internal_node_id": "0.0-54.0"}}, {"uniqueid": "MTK1171:386CSBG1O0TNI8CQSL90K2LES7TQ6G", "current_trial": 73, "dateTime": 1513268365037, "trialdata": {"rt": -1, "stimulus": "", "key_press": -1, "type": "PRE_RECALL_DELAY", "trial_type": "single-stim", "trial_index": 73, "time_elapsed": 609004, "internal_node_id": "0.0-55.0-0.0"}}, {"uniqueid": "MTK1171:386CSBG1O0TNI8CQSL90K2LES7TQ6G", "current_trial": 74, "dateTime": 1513268365540, "trialdata": {"rt": -1000, "stimulus": "/static/audio/400Hz.wav", "key_press": -1, "type": "PRE_RECALL_ALERT", "trial_type": "single-audio", "trial_index": 74, "time_elapsed": 609506, "internal_node_id": "0.0-56.0"}}, {"uniqueid": "MTK1171:386CSBG1O0TNI8CQSL90K2LES7TQ6G", "current_trial": 75, "dateTime": 1513268425551, "trialdata": {"rt": [2624, 5234, 7055, 9025, 12183, 15979, 30227], "recwords": ["pizza", "popcorn", "baby", "snail", "scapel", "elbow", "doctor"], "type": "FREE_RECALL", "conditions": [18, 1200, "a", 18000], "trial": 1, "trial_type": "free-recall", "trial_index": 75, "time_elapsed": 669513, "internal_node_id": "0.0-57.0-0.0"}}, {"uniqueid": "MTK1171:386CSBG1O0TNI8CQSL90K2LES7TQ6G", "current_trial": 76, "dateTime": 1513268429018, "trialdata": {"rt": 1458, "key_press": 32, "type": "INSTRUCTIONS", "trial_type": "text", "trial_index": 76, "time_elapsed": 672977, "internal_node_id": "0.0-58.0"}}, {"uniqueid": "MTK1171:386CSBG1O0TNI8CQSL90K2LES7TQ6G", "current_trial": 77, "dateTime": 1513268454023, "trialdata": {"rt": [5205, 8936, 12778, 16180, 19397, 22197], "responses": ["21", "15", "19", "11", "15", "13"], "num1": [7, 4, 4, 7, 6, 6, 9], "num2": [5, 4, 6, 1, 7, 2, 9], "num3": [9, 7, 9, 3, 2, 5, 9], "type": "DISTRACTOR", "conditions": [24, 1600, "v", 24000], "trial": 2, "trial_type": "math-distractor", "trial_index": 77, "time_elapsed": 697990, "internal_node_id": "0.0-59.0"}}, {"uniqueid": "MTK1171:386CSBG1O0TNI8CQSL90K2LES7TQ6G", "current_trial": 78, "dateTime": 1513268457027, "trialdata": {"rt": -1, "stimulus": "<p id=\"stim\">10</p>", "key_press": -1, "trial_type": "single-stim", "trial_index": 78, "time_elapsed": 700994, "internal_node_id": "0.0-60.0-0.0"}}, {"uniqueid": "MTK1171:386CSBG1O0TNI8CQSL90K2LES7TQ6G", "current_trial": 79, "dateTime": 1513268458029, "trialdata": {"rt": -1, "stimulus": "<p id=\"stim\">9</p>", "key_press": -1, "trial_type": "single-stim", "trial_index": 79, "time_elapsed": 701996, "internal_node_id": "0.0-60.0-1.0"}}, {"uniqueid": "MTK1171:386CSBG1O0TNI8CQSL90K2LES7TQ6G", "current_trial": 80, "dateTime": 1513268459033, "trialdata": {"rt": -1, "stimulus": "<p id=\"stim\">8</p>", "key_press": -1, "trial_type": "single-stim", "trial_index": 80, "time_elapsed": 702999, "internal_node_id": "0.0-60.0-2.0"}}, {"uniqueid": "MTK1171:386CSBG1O0TNI8CQSL90K2LES7TQ6G", "current_trial": 81, "dateTime": 1513268460037, "trialdata": {"rt": -1, "stimulus": "<p id=\"stim\">7</p>", "key_press": -1, "trial_type": "single-stim", "trial_index": 81, "time_elapsed": 704003, "internal_node_id": "0.0-60.0-3.0"}}, {"uniqueid": "MTK1171:386CSBG1O0TNI8CQSL90K2LES7TQ6G", "current_trial": 82, "dateTime": 1513268461040, "trialdata": {"rt": -1, "stimulus": "<p id=\"stim\">6</p>", "key_press": -1, "trial_type": "single-stim", "trial_index": 82, "time_elapsed": 705007, "internal_node_id": "0.0-60.0-4.0"}}, {"uniqueid": "MTK1171:386CSBG1O0TNI8CQSL90K2LES7TQ6G", "current_trial": 83, "dateTime": 1513268462044, "trialdata": {"rt": -1, "stimulus": "<p id=\"stim\">5</p>", "key_press": -1, "trial_type": "single-stim", "trial_index": 83, "time_elapsed": 706010, "internal_node_id": "0.0-60.0-5.0"}}, {"uniqueid": "MTK1171:386CSBG1O0TNI8CQSL90K2LES7TQ6G", "current_trial": 84, "dateTime": 1513268463046, "trialdata": {"rt": -1, "stimulus": "<p id=\"stim\">4</p>", "key_press": -1, "trial_type": "single-stim", "trial_index": 84, "time_elapsed": 707012, "internal_node_id": "0.0-60.0-6.0"}}, {"uniqueid": "MTK1171:386CSBG1O0TNI8CQSL90K2LES7TQ6G", "current_trial": 85, "dateTime": 1513268464048, "trialdata": {"rt": -1, "stimulus": "<p id=\"stim\">3</p>", "key_press": -1, "trial_type": "single-stim", "trial_index": 85, "time_elapsed": 708015, "internal_node_id": "0.0-60.0-7.0"}}, {"uniqueid": "MTK1171:386CSBG1O0TNI8CQSL90K2LES7TQ6G", "current_trial": 86, "dateTime": 1513268465052, "trialdata": {"rt": -1, "stimulus": "<p id=\"stim\">2</p>", "key_press": -1, "trial_type": "single-stim", "trial_index": 86, "time_elapsed": 709018, "internal_node_id": "0.0-60.0-8.0"}}, {"uniqueid": "MTK1171:386CSBG1O0TNI8CQSL90K2LES7TQ6G", "current_trial": 87, "dateTime": 1513268466054, "trialdata": {"rt": -1, "stimulus": "<p id=\"stim\">1</p>", "key_press": -1, "trial_type": "single-stim", "trial_index": 87, "time_elapsed": 710021, "internal_node_id": "0.0-60.0-9.0"}}, {"uniqueid": "MTK1171:386CSBG1O0TNI8CQSL90K2LES7TQ6G", "current_trial": 88, "dateTime": 1513268467613, "trialdata": {"rt": -1, "stimulus": "<p id=\"stim\">+</p>", "key_press": -1, "type": "FIXATION", "trial_type": "single-stim", "trial_index": 88, "time_elapsed": 711580, "internal_node_id": "0.0-61.0-0.0"}}, {"uniqueid": "MTK1171:386CSBG1O0TNI8CQSL90K2LES7TQ6G", "current_trial": 89, "dateTime": 1513268469216, "trialdata": {"rt": -1, "stimulus": "<p id=\"stim\">GARLIC</p>", "key_press": -1, "type": "PRES_VIS", "word": "garlic", "wordID": 623, "conditions": [24, 1600, "v", 24000], "trial": 2, "serialpos": 0, "trial_type": "single-stim", "trial_index": 89, "time_elapsed": 713182, "internal_node_id": "0.0-62.0"}}, {"uniqueid": "MTK1171:386CSBG1O0TNI8CQSL90K2LES7TQ6G", "current_trial": 90, "dateTime": 1513268471864, "trialdata": {"rt": -1, "stimulus": "<p id=\"stim\">VAGRANT</p>", "key_press": -1, "type": "PRES_VIS", "word": "vagrant", "wordID": 1543, "conditions": [24, 1600, "v", 24000], "trial": 2, "serialpos": 1, "trial_type": "single-stim", "trial_index": 90, "time_elapsed": 715831, "internal_node_id": "0.0-63.0"}}, {"uniqueid": "MTK1171:386CSBG1O0TNI8CQSL90K2LES7TQ6G", "current_trial": 91, "dateTime": 1513268474604, "trialdata": {"rt": -1, "stimulus": "<p id=\"stim\">FRAGRANCE</p>", "key_press": -1, "type": "PRES_VIS", "word": "fragrance", "wordID": 598, "conditions": [24, 1600, "v", 24000], "trial": 2, "serialpos": 2, "trial_type": "single-stim", "trial_index": 91, "time_elapsed": 718571, "internal_node_id": "0.0-64.0"}}, {"uniqueid": "MTK1171:386CSBG1O0TNI8CQSL90K2LES7TQ6G", "current_trial": 92, "dateTime": 1513268477355, "trialdata": {"rt": -1, "stimulus": "<p id=\"stim\">BEAKER</p>", "key_press": -1, "type": "PRES_VIS", "word": "beaker", "wordID": 103, "conditions": [24, 1600, "v", 24000], "trial": 2, "serialpos": 3, "trial_type": "single-stim", "trial_index": 92, "time_elapsed": 721321, "internal_node_id": "0.0-65.0"}}, {"uniqueid": "MTK1171:386CSBG1O0TNI8CQSL90K2LES7TQ6G", "current_trial": 93, "dateTime": 1513268479885, "trialdata": {"rt": -1, "stimulus": "<p id=\"stim\">COCKTAIL</p>", "key_press": -1, "type": "PRES_VIS", "word": "cocktail", "wordID": 337, "conditions": [24, 1600, "v", 24000], "trial": 2, "serialpos": 4, "trial_type": "single-stim", "trial_index": 93, "time_elapsed": 723852, "internal_node_id": "0.0-66.0"}}, {"uniqueid": "MTK1171:386CSBG1O0TNI8CQSL90K2LES7TQ6G", "current_trial": 94, "dateTime": 1513268482579, "trialdata": {"rt": -1, "stimulus": "<p id=\"stim\">TART</p>", "key_press": -1, "type": "PRES_VIS", "word": "tart", "wordID": 1435, "conditions": [24, 1600, "v", 24000], "trial": 2, "serialpos": 5, "trial_type": "single-stim", "trial_index": 94, "time_elapsed": 726546, "internal_node_id": "0.0-67.0"}}, {"uniqueid": "MTK1171:386CSBG1O0TNI8CQSL90K2LES7TQ6G", "current_trial": 95, "dateTime": 1513268485151, "trialdata": {"rt": -1, "stimulus": "<p id=\"stim\">INFANT</p>", "key_press": -1, "type": "PRES_VIS", "word": "infant", "wordID": 736, "conditions": [24, 1600, "v", 24000], "trial": 2, "serialpos": 6, "trial_type": "single-stim", "trial_index": 95, "time_elapsed": 729118, "internal_node_id": "0.0-68.0"}}, {"uniqueid": "MTK1171:386CSBG1O0TNI8CQSL90K2LES7TQ6G", "current_trial": 96, "dateTime": 1513268487841, "trialdata": {"rt": -1, "stimulus": "<p id=\"stim\">PERFUME</p>", "key_press": -1, "type": "PRES_VIS", "word": "perfume", "wordID": 1048, "conditions": [24, 1600, "v", 24000], "trial": 2, "serialpos": 7, "trial_type": "single-stim", "trial_index": 96, "time_elapsed": 731808, "internal_node_id": "0.0-69.0"}}, {"uniqueid": "MTK1171:386CSBG1O0TNI8CQSL90K2LES7TQ6G", "current_trial": 97, "dateTime": 1513268490402, "trialdata": {"rt": -1, "stimulus": "<p id=\"stim\">RIVER</p>", "key_press": -1, "type": "PRES_VIS", "word": "river", "wordID": 1193, "conditions": [24, 1600, "v", 24000], "trial": 2, "serialpos": 8, "trial_type": "single-stim", "trial_index": 97, "time_elapsed": 734369, "internal_node_id": "0.0-70.0"}}, {"uniqueid": "MTK1171:386CSBG1O0TNI8CQSL90K2LES7TQ6G", "current_trial": 98, "dateTime": 1513268492934, "trialdata": {"rt": -1, "stimulus": "<p id=\"stim\">CANAL</p>", "key_press": -1, "type": "PRES_VIS", "word": "canal", "wordID": 225, "conditions": [24, 1600, "v", 24000], "trial": 2, "serialpos": 9, "trial_type": "single-stim", "trial_index": 98, "time_elapsed": 736901, "internal_node_id": "0.0-71.0"}}, {"uniqueid": "MTK1171:386CSBG1O0TNI8CQSL90K2LES7TQ6G", "current_trial": 99, "dateTime": 1513268495703, "trialdata": {"rt": -1, "stimulus": "<p id=\"stim\">TURNIP</p>", "key_press": -1, "type": "PRES_VIS", "word": "turnip", "wordID": 1520, "conditions": [24, 1600, "v", 24000], "trial": 2, "serialpos": 10, "trial_type": "single-stim", "trial_index": 99, "time_elapsed": 739670, "internal_node_id": "0.0-72.0"}}, {"uniqueid": "MTK1171:386CSBG1O0TNI8CQSL90K2LES7TQ6G", "current_trial": 100, "dateTime": 1513268498314, "trialdata": {"rt": -1, "stimulus": "<p id=\"stim\">CRAYON</p>", "key_press": -1, "type": "PRES_VIS", "word": "crayon", "wordID": 400, "conditions": [24, 1600, "v", 24000], "trial": 2, "serialpos": 11, "trial_type": "single-stim", "trial_index": 100, "time_elapsed": 742281, "internal_node_id": "0.0-73.0"}}, {"uniqueid": "MTK1171:386CSBG1O0TNI8CQSL90K2LES7TQ6G", "current_trial": 101, "dateTime": 1513268501085, "trialdata": {"rt": -1, "stimulus": "<p id=\"stim\">SURVEY</p>", "key_press": -1, "type": "PRES_VIS", "word": "survey", "wordID": 1413, "conditions": [24, 1600, "v", 24000], "trial": 2, "serialpos": 12, "trial_type": "single-stim", "trial_index": 101, "time_elapsed": 745052, "internal_node_id": "0.0-74.0"}}, {"uniqueid": "MTK1171:386CSBG1O0TNI8CQSL90K2LES7TQ6G", "current_trial": 102, "dateTime": 1513268503786, "trialdata": {"rt": -1, "stimulus": "<p id=\"stim\">PRIMATE</p>", "key_press": -1, "type": "PRES_VIS", "word": "primate", "wordID": 1122, "conditions": [24, 1600, "v", 24000], "trial": 2, "serialpos": 13, "trial_type": "single-stim", "trial_index": 102, "time_elapsed": 747752, "internal_node_id": "0.0-75.0"}}, {"uniqueid": "MTK1171:386CSBG1O0TNI8CQSL90K2LES7TQ6G", "current_trial": 103, "dateTime": 1513268506207, "trialdata": {"rt": -1, "stimulus": "<p id=\"stim\">SCISSORS</p>", "key_press": -1, "type": "PRES_VIS", "word": "scissors", "wordID": 1249, "conditions": [24, 1600, "v", 24000], "trial": 2, "serialpos": 14, "trial_type": "single-stim", "trial_index": 103, "time_elapsed": 750173, "internal_node_id": "0.0-76.0"}}, {"uniqueid": "MTK1171:386CSBG1O0TNI8CQSL90K2LES7TQ6G", "current_trial": 104, "dateTime": 1513268508714, "trialdata": {"rt": -1, "stimulus": "<p id=\"stim\">RAZOR</p>", "key_press": -1, "type": "PRES_VIS", "word": "razor", "wordID": 1170, "conditions": [24, 1600, "v", 24000], "trial": 2, "serialpos": 15, "trial_type": "single-stim", "trial_index": 104, "time_elapsed": 752680, "internal_node_id": "0.0-77.0"}}, {"uniqueid": "MTK1171:386CSBG1O0TNI8CQSL90K2LES7TQ6G", "current_trial": 105, "dateTime": 1513268511160, "trialdata": {"rt": -1, "stimulus": "<p id=\"stim\">CLOCK</p>", "key_press": -1, "type": "PRES_VIS", "word": "clock", "wordID": 324, "conditions": [24, 1600, "v", 24000], "trial": 2, "serialpos": 16, "trial_type": "single-stim", "trial_index": 105, "time_elapsed": 755126, "internal_node_id": "0.0-78.0"}}, {"uniqueid": "MTK1171:386CSBG1O0TNI8CQSL90K2LES7TQ6G", "current_trial": 106, "dateTime": 1513268513607, "trialdata": {"rt": -1, "stimulus": "<p id=\"stim\">WHISTLE</p>", "key_press": -1, "type": "PRES_VIS", "word": "whistle", "wordID": 1605, "conditions": [24, 1600, "v", 24000], "trial": 2, "serialpos": 17, "trial_type": "single-stim", "trial_index": 106, "time_elapsed": 757574, "internal_node_id": "0.0-79.0"}}, {"uniqueid": "MTK1171:386CSBG1O0TNI8CQSL90K2LES7TQ6G", "current_trial": 107, "dateTime": 1513268516136, "trialdata": {"rt": -1, "stimulus": "<p id=\"stim\">FRECKLE</p>", "key_press": -1, "type": "PRES_VIS", "word": "freckle", "wordID": 601, "conditions": [24, 1600, "v", 24000], "trial": 2, "serialpos": 18, "trial_type": "single-stim", "trial_index": 107, "time_elapsed": 760103, "internal_node_id": "0.0-80.0"}}, {"uniqueid": "MTK1171:386CSBG1O0TNI8CQSL90K2LES7TQ6G", "current_trial": 108, "dateTime": 1513268518587, "trialdata": {"rt": -1, "stimulus": "<p id=\"stim\">TRANSPLANT</p>", "key_press": -1, "type": "PRES_VIS", "word": "transplant", "wordID": 1495, "conditions": [24, 1600, "v", 24000], "trial": 2, "serialpos": 19, "trial_type": "single-stim", "trial_index": 108, "time_elapsed": 762553, "internal_node_id": "0.0-81.0"}}, {"uniqueid": "MTK1171:386CSBG1O0TNI8CQSL90K2LES7TQ6G", "current_trial": 109, "dateTime": 1513268521354, "trialdata": {"rt": -1, "stimulus": "<p id=\"stim\">REPORT</p>", "key_press": -1, "type": "PRES_VIS", "word": "report", "wordID": 1183, "conditions": [24, 1600, "v", 24000], "trial": 2, "serialpos": 20, "trial_type": "single-stim", "trial_index": 109, "time_elapsed": 765320, "internal_node_id": "0.0-82.0"}}, {"uniqueid": "MTK1171:386CSBG1O0TNI8CQSL90K2LES7TQ6G", "current_trial": 110, "dateTime": 1513268524123, "trialdata": {"rt": -1, "stimulus": "<p id=\"stim\">DRAGON</p>", "key_press": -1, "type": "PRES_VIS", "word": "dragon", "wordID": 491, "conditions": [24, 1600, "v", 24000], "trial": 2, "serialpos": 21, "trial_type": "single-stim", "trial_index": 110, "time_elapsed": 768089, "internal_node_id": "0.0-83.0"}}, {"uniqueid": "MTK1171:386CSBG1O0TNI8CQSL90K2LES7TQ6G", "current_trial": 111, "dateTime": 1513268526528, "trialdata": {"rt": -1, "stimulus": "<p id=\"stim\">SWORD</p>", "key_press": -1, "type": "PRES_VIS", "word": "sword", "wordID": 1422, "conditions": [24, 1600, "v", 24000], "trial": 2, "serialpos": 22, "trial_type": "single-stim", "trial_index": 111, "time_elapsed": 770495, "internal_node_id": "0.0-84.0"}}, {"uniqueid": "MTK1171:386CSBG1O0TNI8CQSL90K2LES7TQ6G", "current_trial": 112, "dateTime": 1513268528997, "trialdata": {"rt": -1, "stimulus": "<p id=\"stim\">STAPLE</p>", "key_press": -1, "type": "PRES_VIS", "word": "staple", "wordID": 1370, "conditions": [24, 1600, "v", 24000], "trial": 2, "serialpos": 23, "trial_type": "single-stim", "trial_index": 112, "time_elapsed": 772963, "internal_node_id": "0.0-85.0"}}, {"uniqueid": "MTK1171:386CSBG1O0TNI8CQSL90K2LES7TQ6G", "current_trial": 113, "dateTime": 1513268531427, "trialdata": {"rt": -1, "stimulus": "", "key_press": -1, "type": "PRE_RECALL_DELAY", "trial_type": "single-stim", "trial_index": 113, "time_elapsed": 775394, "internal_node_id": "0.0-86.0-0.0"}}, {"uniqueid": "MTK1171:386CSBG1O0TNI8CQSL90K2LES7TQ6G", "current_trial": 114, "dateTime": 1513268531930, "trialdata": {"rt": -1000, "stimulus": "/static/audio/400Hz.wav", "key_press": -1, "type": "PRE_RECALL_ALERT", "trial_type": "single-audio", "trial_index": 114, "time_elapsed": 775897, "internal_node_id": "0.0-87.0"}}, {"uniqueid": "MTK1171:386CSBG1O0TNI8CQSL90K2LES7TQ6G", "current_trial": 115, "dateTime": 1513268591941, "trialdata": {"rt": [2549, 9648, 13423, 17166, 25743, 27445, 32070, 39805, 44993, 50254], "recwords": ["staple", "scissors", "crayons", "staple", "garlic", "tart", "fragrance", "perfume", "onions", "beaker"], "type": "FREE_RECALL", "conditions": [24, 1600, "v", 24000], "trial": 2, "trial_type": "free-recall", "trial_index": 115, "time_elapsed": 835902, "internal_node_id": "0.0-88.0-0.0"}}, {"uniqueid": "MTK1171:386CSBG1O0TNI8CQSL90K2LES7TQ6G", "current_trial": 116, "dateTime": 1513268595169, "trialdata": {"rt": 1225, "key_press": 32, "type": "INSTRUCTIONS", "trial_type": "text", "trial_index": 116, "time_elapsed": 839135, "internal_node_id": "0.0-89.0"}}, {"uniqueid": "MTK1171:386CSBG1O0TNI8CQSL90K2LES7TQ6G", "current_trial": 117, "dateTime": 1513268609178, "trialdata": {"rt": [2600, 6674], "responses": ["17", "19"], "num1": [5, 5, 8], "num2": [5, 8, 7], "num3": [7, 6, 9], "type": "DISTRACTOR", "conditions": [12, 800, "a", 12000], "trial": 3, "trial_type": "math-distractor", "trial_index": 117, "time_elapsed": 853145, "internal_node_id": "0.0-90.0"}}, {"uniqueid": "MTK1171:386CSBG1O0TNI8CQSL90K2LES7TQ6G", "current_trial": 118, "dateTime": 1513268612184, "trialdata": {"rt": -1, "stimulus": "<p id=\"stim\">10</p>", "key_press": -1, "trial_type": "single-stim", "trial_index": 118, "time_elapsed": 856150, "internal_node_id": "0.0-91.0-0.0"}}, {"uniqueid": "MTK1171:386CSBG1O0TNI8CQSL90K2LES7TQ6G", "current_trial": 119, "dateTime": 1513268613186, "trialdata": {"rt": -1, "stimulus": "<p id=\"stim\">9</p>", "key_press": -1, "trial_type": "single-stim", "trial_index": 119, "time_elapsed": 857153, "internal_node_id": "0.0-91.0-1.0"}}, {"uniqueid": "MTK1171:386CSBG1O0TNI8CQSL90K2LES7TQ6G", "current_trial": 120, "dateTime": 1513268614189, "trialdata": {"rt": -1, "stimulus": "<p id=\"stim\">8</p>", "key_press": -1, "trial_type": "single-stim", "trial_index": 120, "time_elapsed": 858156, "internal_node_id": "0.0-91.0-2.0"}}, {"uniqueid": "MTK1171:386CSBG1O0TNI8CQSL90K2LES7TQ6G", "current_trial": 121, "dateTime": 1513268615191, "trialdata": {"rt": -1, "stimulus": "<p id=\"stim\">7</p>", "key_press": -1, "trial_type": "single-stim", "trial_index": 121, "time_elapsed": 859158, "internal_node_id": "0.0-91.0-3.0"}}, {"uniqueid": "MTK1171:386CSBG1O0TNI8CQSL90K2LES7TQ6G", "current_trial": 122, "dateTime": 1513268616195, "trialdata": {"rt": -1, "stimulus": "<p id=\"stim\">6</p>", "key_press": -1, "trial_type": "single-stim", "trial_index": 122, "time_elapsed": 860161, "internal_node_id": "0.0-91.0-4.0"}}, {"uniqueid": "MTK1171:386CSBG1O0TNI8CQSL90K2LES7TQ6G", "current_trial": 123, "dateTime": 1513268617197, "trialdata": {"rt": -1, "stimulus": "<p id=\"stim\">5</p>", "key_press": -1, "trial_type": "single-stim", "trial_index": 123, "time_elapsed": 861164, "internal_node_id": "0.0-91.0-5.0"}}, {"uniqueid": "MTK1171:386CSBG1O0TNI8CQSL90K2LES7TQ6G", "current_trial": 124, "dateTime": 1513268618199, "trialdata": {"rt": -1, "stimulus": "<p id=\"stim\">4</p>", "key_press": -1, "trial_type": "single-stim", "trial_index": 124, "time_elapsed": 862166, "internal_node_id": "0.0-91.0-6.0"}}, {"uniqueid": "MTK1171:386CSBG1O0TNI8CQSL90K2LES7TQ6G", "current_trial": 125, "dateTime": 1513268619202, "trialdata": {"rt": -1, "stimulus": "<p id=\"stim\">3</p>", "key_press": -1, "trial_type": "single-stim", "trial_index": 125, "time_elapsed": 863168, "internal_node_id": "0.0-91.0-7.0"}}, {"uniqueid": "MTK1171:386CSBG1O0TNI8CQSL90K2LES7TQ6G", "current_trial": 126, "dateTime": 1513268620204, "trialdata": {"rt": -1, "stimulus": "<p id=\"stim\">2</p>", "key_press": -1, "trial_type": "single-stim", "trial_index": 126, "time_elapsed": 864171, "internal_node_id": "0.0-91.0-8.0"}}, {"uniqueid": "MTK1171:386CSBG1O0TNI8CQSL90K2LES7TQ6G", "current_trial": 127, "dateTime": 1513268621209, "trialdata": {"rt": -1, "stimulus": "<p id=\"stim\">1</p>", "key_press": -1, "trial_type": "single-stim", "trial_index": 127, "time_elapsed": 865175, "internal_node_id": "0.0-91.0-9.0"}}, {"uniqueid": "MTK1171:386CSBG1O0TNI8CQSL90K2LES7TQ6G", "current_trial": 128, "dateTime": 1513268622712, "trialdata": {"rt": -1, "stimulus": "<p id=\"stim\">+</p>", "key_press": -1, "type": "FIXATION", "trial_type": "single-stim", "trial_index": 128, "time_elapsed": 866678, "internal_node_id": "0.0-92.0-0.0"}}, {"uniqueid": "MTK1171:386CSBG1O0TNI8CQSL90K2LES7TQ6G", "current_trial": 129, "dateTime": 1513268624419, "trialdata": {"rt": -1000, "stimulus": "/static/audio/wordpool/PLIERS.wav", "key_press": -1, "type": "PRES_AUD", "word": "pliers", "wordID": 1088, "conditions": [12, 800, "a", 12000], "trial": 3, "serialpos": 0, "trial_type": "single-audio", "trial_index": 129, "time_elapsed": 868385, "internal_node_id": "0.0-93.0"}}, {"uniqueid": "MTK1171:386CSBG1O0TNI8CQSL90K2LES7TQ6G", "current_trial": 130, "dateTime": 1513268626229, "trialdata": {"rt": -1000, "stimulus": "/static/audio/wordpool/LAGOON.wav", "key_press": -1, "type": "PRES_AUD", "word": "lagoon", "wordID": 794, "conditions": [12, 800, "a", 12000], "trial": 3, "serialpos": 1, "trial_type": "single-audio", "trial_index": 130, "time_elapsed": 870196, "internal_node_id": "0.0-94.0"}}, {"uniqueid": "MTK1171:386CSBG1O0TNI8CQSL90K2LES7TQ6G", "current_trial": 131, "dateTime": 1513268628221, "trialdata": {"rt": -1000, "stimulus": "/static/audio/wordpool/BODY.wav", "key_press": -1, "type": "PRES_AUD", "word": "body", "wordID": 144, "conditions": [12, 800, "a", 12000], "trial": 3, "serialpos": 2, "trial_type": "single-audio", "trial_index": 131, "time_elapsed": 872187, "internal_node_id": "0.0-95.0"}}, {"uniqueid": "MTK1171:386CSBG1O0TNI8CQSL90K2LES7TQ6G", "current_trial": 132, "dateTime": 1513268630146, "trialdata": {"rt": -1000, "stimulus": "/static/audio/wordpool/BUTCHER.wav", "key_press": -1, "type": "PRES_AUD", "word": "butcher", "wordID": 202, "conditions": [12, 800, "a", 12000], "trial": 3, "serialpos": 3, "trial_type": "single-audio", "trial_index": 132, "time_elapsed": 874113, "internal_node_id": "0.0-96.0"}}, {"uniqueid": "MTK1171:386CSBG1O0TNI8CQSL90K2LES7TQ6G", "current_trial": 133, "dateTime": 1513268631869, "trialdata": {"rt": -1000, "stimulus": "/static/audio/wordpool/WIDOW.wav", "key_press": -1, "type": "PRES_AUD", "word": "widow", "wordID": 1607, "conditions": [12, 800, "a", 12000], "trial": 3, "serialpos": 4, "trial_type": "single-audio", "trial_index": 133, "time_elapsed": 875836, "internal_node_id": "0.0-97.0"}}, {"uniqueid": "MTK1171:386CSBG1O0TNI8CQSL90K2LES7TQ6G", "current_trial": 134, "dateTime": 1513268633531, "trialdata": {"rt": -1000, "stimulus": "/static/audio/wordpool/COUCH.wav", "key_press": -1, "type": "PRES_AUD", "word": "couch", "wordID": 385, "conditions": [12, 800, "a", 12000], "trial": 3, "serialpos": 5, "trial_type": "single-audio", "trial_index": 134, "time_elapsed": 877498, "internal_node_id": "0.0-98.0"}}, {"uniqueid": "MTK1171:386CSBG1O0TNI8CQSL90K2LES7TQ6G", "current_trial": 135, "dateTime": 1513268635300, "trialdata": {"rt": -1000, "stimulus": "/static/audio/wordpool/MATTRESS.wav", "key_press": -1, "type": "PRES_AUD", "word": "mattress", "wordID": 878, "conditions": [12, 800, "a", 12000], "trial": 3, "serialpos": 6, "trial_type": "single-audio", "trial_index": 135, "time_elapsed": 879267, "internal_node_id": "0.0-99.0"}}, {"uniqueid": "MTK1171:386CSBG1O0TNI8CQSL90K2LES7TQ6G", "current_trial": 136, "dateTime": 1513268637276, "trialdata": {"rt": -1000, "stimulus": "/static/audio/wordpool/CONTRACT.wav", "key_press": -1, "type": "PRES_AUD", "word": "contract", "wordID": 367, "conditions": [12, 800, "a", 12000], "trial": 3, "serialpos": 7, "trial_type": "single-audio", "trial_index": 136, "time_elapsed": 881242, "internal_node_id": "0.0-100.0"}}, {"uniqueid": "MTK1171:386CSBG1O0TNI8CQSL90K2LES7TQ6G", "current_trial": 137, "dateTime": 1513268639061, "trialdata": {"rt": -1000, "stimulus": "/static/audio/wordpool/MAILBOX.wav", "key_press": -1, "type": "PRES_AUD", "word": "mailbox", "wordID": 856, "conditions": [12, 800, "a", 12000], "trial": 3, "serialpos": 8, "trial_type": "single-audio", "trial_index": 137, "time_elapsed": 883025, "internal_node_id": "0.0-101.0"}}, {"uniqueid": "MTK1171:386CSBG1O0TNI8CQSL90K2LES7TQ6G", "current_trial": 138, "dateTime": 1513268641053, "trialdata": {"rt": -1000, "stimulus": "/static/audio/wordpool/RAFT.wav", "key_press": -1, "type": "PRES_AUD", "word": "raft", "wordID": 1158, "conditions": [12, 800, "a", 12000], "trial": 3, "serialpos": 9, "trial_type": "single-audio", "trial_index": 138, "time_elapsed": 885020, "internal_node_id": "0.0-102.0"}}, {"uniqueid": "MTK1171:386CSBG1O0TNI8CQSL90K2LES7TQ6G", "current_trial": 139, "dateTime": 1513268642771, "trialdata": {"rt": -1000, "stimulus": "/static/audio/wordpool/TWEEZERS.wav", "key_press": -1, "type": "PRES_AUD", "word": "tweezers", "wordID": 1525, "conditions": [12, 800, "a", 12000], "trial": 3, "serialpos": 10, "trial_type": "single-audio", "trial_index": 139, "time_elapsed": 886737, "internal_node_id": "0.0-103.0"}}, {"uniqueid": "MTK1171:386CSBG1O0TNI8CQSL90K2LES7TQ6G", "current_trial": 140, "dateTime": 1513268644740, "trialdata": {"rt": -1000, "stimulus": "/static/audio/wordpool/LABEL.wav", "key_press": -1, "type": "PRES_AUD", "word": "label", "wordID": 789, "conditions": [12, 800, "a", 12000], "trial": 3, "serialpos": 11, "trial_type": "single-audio", "trial_index": 140, "time_elapsed": 888707, "internal_node_id": "0.0-104.0"}}, {"uniqueid": "MTK1171:386CSBG1O0TNI8CQSL90K2LES7TQ6G", "current_trial": 141, "dateTime": 1513268646077, "trialdata": {"rt": -1, "stimulus": "", "key_press": -1, "type": "PRE_RECALL_DELAY", "trial_type": "single-stim", "trial_index": 141, "time_elapsed": 890044, "internal_node_id": "0.0-105.0-0.0"}}, {"uniqueid": "MTK1171:386CSBG1O0TNI8CQSL90K2LES7TQ6G", "current_trial": 142, "dateTime": 1513268646580, "trialdata": {"rt": -1000, "stimulus": "/static/audio/400Hz.wav", "key_press": -1, "type": "PRE_RECALL_ALERT", "trial_type": "single-audio", "trial_index": 142, "time_elapsed": 890546, "internal_node_id": "0.0-106.0"}}, {"uniqueid": "MTK1171:386CSBG1O0TNI8CQSL90K2LES7TQ6G", "current_trial": 143, "dateTime": 1513268706591, "trialdata": {"rt": [4256, 8483, 11831, 14376, 28175, 30544, 39523], "recwords": ["tweezers", "matress", "contract", "table", "mailbox", "grass", "couch"], "type": "FREE_RECALL", "conditions": [12, 800, "a", 12000], "trial": 3, "trial_type": "free-recall", "trial_index": 143, "time_elapsed": 950552, "internal_node_id": "0.0-107.0-0.0"}}, {"uniqueid": "MTK1171:386CSBG1O0TNI8CQSL90K2LES7TQ6G", "current_trial": 144, "dateTime": 1513268710077, "trialdata": {"rt": 1483, "key_press": 32, "type": "INSTRUCTIONS", "trial_type": "text", "trial_index": 144, "time_elapsed": 954044, "internal_node_id": "0.0-108.0"}}, {"uniqueid": "MTK1171:386CSBG1O0TNI8CQSL90K2LES7TQ6G", "current_trial": 145, "dateTime": 1513268736085, "trialdata": {"rt": [5454, 10030, 17594, 21731], "responses": ["15", "18", "21", "12"], "num1": [6, 6, 6, 4, 6], "num2": [3, 8, 7, 3, 5], "num3": [6, 4, 8, 5, 1], "type": "DISTRACTOR", "conditions": [24, 800, "a", 24000], "trial": 4, "trial_type": "math-distractor", "trial_index": 145, "time_elapsed": 980051, "internal_node_id": "0.0-109.0"}}, {"uniqueid": "MTK1171:386CSBG1O0TNI8CQSL90K2LES7TQ6G", "current_trial": 146, "dateTime": 1513268739088, "trialdata": {"rt": -1, "stimulus": "<p id=\"stim\">10</p>", "key_press": -1, "trial_type": "single-stim", "trial_index": 146, "time_elapsed": 983055, "internal_node_id": "0.0-110.0-0.0"}}, {"uniqueid": "MTK1171:386CSBG1O0TNI8CQSL90K2LES7TQ6G", "current_trial": 147, "dateTime": 1513268740091, "trialdata": {"rt": -1, "stimulus": "<p id=\"stim\">9</p>", "key_press": -1, "trial_type": "single-stim", "trial_index": 147, "time_elapsed": 984058, "internal_node_id": "0.0-110.0-1.0"}}, {"uniqueid": "MTK1171:386CSBG1O0TNI8CQSL90K2LES7TQ6G", "current_trial": 148, "dateTime": 1513268741093, "trialdata": {"rt": -1, "stimulus": "<p id=\"stim\">8</p>", "key_press": -1, "trial_type": "single-stim", "trial_index": 148, "time_elapsed": 985060, "internal_node_id": "0.0-110.0-2.0"}}, {"uniqueid": "MTK1171:386CSBG1O0TNI8CQSL90K2LES7TQ6G", "current_trial": 149, "dateTime": 1513268742096, "trialdata": {"rt": -1, "stimulus": "<p id=\"stim\">7</p>", "key_press": -1, "trial_type": "single-stim", "trial_index": 149, "time_elapsed": 986063, "internal_node_id": "0.0-110.0-3.0"}}, {"uniqueid": "MTK1171:386CSBG1O0TNI8CQSL90K2LES7TQ6G", "current_trial": 150, "dateTime": 1513268743098, "trialdata": {"rt": -1, "stimulus": "<p id=\"stim\">6</p>", "key_press": -1, "trial_type": "single-stim", "trial_index": 150, "time_elapsed": 987065, "internal_node_id": "0.0-110.0-4.0"}}, {"uniqueid": "MTK1171:386CSBG1O0TNI8CQSL90K2LES7TQ6G", "current_trial": 151, "dateTime": 1513268744102, "trialdata": {"rt": -1, "stimulus": "<p id=\"stim\">5</p>", "key_press": -1, "trial_type": "single-stim", "trial_index": 151, "time_elapsed": 988069, "internal_node_id": "0.0-110.0-5.0"}}, {"uniqueid": "MTK1171:386CSBG1O0TNI8CQSL90K2LES7TQ6G", "current_trial": 152, "dateTime": 1513268745106, "trialdata": {"rt": -1, "stimulus": "<p id=\"stim\">4</p>", "key_press": -1, "trial_type": "single-stim", "trial_index": 152, "time_elapsed": 989072, "internal_node_id": "0.0-110.0-6.0"}}, {"uniqueid": "MTK1171:386CSBG1O0TNI8CQSL90K2LES7TQ6G", "current_trial": 153, "dateTime": 1513268746111, "trialdata": {"rt": -1, "stimulus": "<p id=\"stim\">3</p>", "key_press": -1, "trial_type": "single-stim", "trial_index": 153, "time_elapsed": 990077, "internal_node_id": "0.0-110.0-7.0"}}, {"uniqueid": "MTK1171:386CSBG1O0TNI8CQSL90K2LES7TQ6G", "current_trial": 154, "dateTime": 1513268747115, "trialdata": {"rt": -1, "stimulus": "<p id=\"stim\">2</p>", "key_press": -1, "trial_type": "single-stim", "trial_index": 154, "time_elapsed": 991081, "internal_node_id": "0.0-110.0-8.0"}}, {"uniqueid": "MTK1171:386CSBG1O0TNI8CQSL90K2LES7TQ6G", "current_trial": 155, "dateTime": 1513268748120, "trialdata": {"rt": -1, "stimulus": "<p id=\"stim\">1</p>", "key_press": -1, "trial_type": "single-stim", "trial_index": 155, "time_elapsed": 992086, "internal_node_id": "0.0-110.0-9.0"}}, {"uniqueid": "MTK1171:386CSBG1O0TNI8CQSL90K2LES7TQ6G", "current_trial": 156, "dateTime": 1513268749624, "trialdata": {"rt": -1, "stimulus": "<p id=\"stim\">+</p>", "key_press": -1, "type": "FIXATION", "trial_type": "single-stim", "trial_index": 156, "time_elapsed": 993591, "internal_node_id": "0.0-111.0-0.0"}}, {"uniqueid": "MTK1171:386CSBG1O0TNI8CQSL90K2LES7TQ6G", "current_trial": 157, "dateTime": 1513268751421, "trialdata": {"rt": -1000, "stimulus": "/static/audio/wordpool/THIEF.wav", "key_press": -1, "type": "PRES_AUD", "word": "thief", "wordID": 1455, "conditions": [24, 800, "a", 24000], "trial": 4, "serialpos": 0, "trial_type": "single-audio", "trial_index": 157, "time_elapsed": 995387, "internal_node_id": "0.0-112.0"}}, {"uniqueid": "MTK1171:386CSBG1O0TNI8CQSL90K2LES7TQ6G", "current_trial": 158, "dateTime": 1513268753042, "trialdata": {"rt": -1000, "stimulus": "/static/audio/wordpool/GYMNAST.wav", "key_press": -1, "type": "PRES_AUD", "word": "gymnast", "wordID": 674, "conditions": [24, 800, "a", 24000], "trial": 4, "serialpos": 1, "trial_type": "single-audio", "trial_index": 158, "time_elapsed": 997009, "internal_node_id": "0.0-113.0"}}, {"uniqueid": "MTK1171:386CSBG1O0TNI8CQSL90K2LES7TQ6G", "current_trial": 159, "dateTime": 1513268755034, "trialdata": {"rt": -1000, "stimulus": "/static/audio/wordpool/DANCER.wav", "key_press": -1, "type": "PRES_AUD", "word": "dancer", "wordID": 436, "conditions": [24, 800, "a", 24000], "trial": 4, "serialpos": 2, "trial_type": "single-audio", "trial_index": 159, "time_elapsed": 999000, "internal_node_id": "0.0-114.0"}}, {"uniqueid": "MTK1171:386CSBG1O0TNI8CQSL90K2LES7TQ6G", "current_trial": 160, "dateTime": 1513268756679, "trialdata": {"rt": -1000, "stimulus": "/static/audio/wordpool/SISTER.wav", "key_press": -1, "type": "PRES_AUD", "word": "sister", "wordID": 1311, "conditions": [24, 800, "a", 24000], "trial": 4, "serialpos": 3, "trial_type": "single-audio", "trial_index": 160, "time_elapsed": 1000645, "internal_node_id": "0.0-115.0"}}, {"uniqueid": "MTK1171:386CSBG1O0TNI8CQSL90K2LES7TQ6G", "current_trial": 161, "dateTime": 1513268758506, "trialdata": {"rt": -1000, "stimulus": "/static/audio/wordpool/MUSTARD.wav", "key_press": -1, "type": "PRES_AUD", "word": "mustard", "wordID": 934, "conditions": [24, 800, "a", 24000], "trial": 4, "serialpos": 4, "trial_type": "single-audio", "trial_index": 161, "time_elapsed": 1002473, "internal_node_id": "0.0-116.0"}}, {"uniqueid": "MTK1171:386CSBG1O0TNI8CQSL90K2LES7TQ6G", "current_trial": 162, "dateTime": 1513268760284, "trialdata": {"rt": -1000, "stimulus": "/static/audio/wordpool/GAZELLE.wav", "key_press": -1, "type": "PRES_AUD", "word": "gazelle", "wordID": 627, "conditions": [24, 800, "a", 24000], "trial": 4, "serialpos": 5, "trial_type": "single-audio", "trial_index": 162, "time_elapsed": 1004251, "internal_node_id": "0.0-117.0"}}, {"uniqueid": "MTK1171:386CSBG1O0TNI8CQSL90K2LES7TQ6G", "current_trial": 163, "dateTime": 1513268762085, "trialdata": {"rt": -1000, "stimulus": "/static/audio/wordpool/BURGLAR.wav", "key_press": -1, "type": "PRES_AUD", "word": "burglar", "wordID": 199, "conditions": [24, 800, "a", 24000], "trial": 4, "serialpos": 6, "trial_type": "single-audio", "trial_index": 163, "time_elapsed": 1006051, "internal_node_id": "0.0-118.0"}}, {"uniqueid": "MTK1171:386CSBG1O0TNI8CQSL90K2LES7TQ6G", "current_trial": 164, "dateTime": 1513268763798, "trialdata": {"rt": -1000, "stimulus": "/static/audio/wordpool/CAPTIVE.wav", "key_press": -1, "type": "PRES_AUD", "word": "captive", "wordID": 239, "conditions": [24, 800, "a", 24000], "trial": 4, "serialpos": 7, "trial_type": "single-audio", "trial_index": 164, "time_elapsed": 1007765, "internal_node_id": "0.0-119.0"}}, {"uniqueid": "MTK1171:386CSBG1O0TNI8CQSL90K2LES7TQ6G", "current_trial": 165, "dateTime": 1513268765419, "trialdata": {"rt": -1000, "stimulus": "/static/audio/wordpool/PARENT.wav", "key_press": -1, "type": "PRES_AUD", "word": "parent", "wordID": 1012, "conditions": [24, 800, "a", 24000], "trial": 4, "serialpos": 8, "trial_type": "single-audio", "trial_index": 165, "time_elapsed": 1009386, "internal_node_id": "0.0-120.0"}}, {"uniqueid": "MTK1171:386CSBG1O0TNI8CQSL90K2LES7TQ6G", "current_trial": 166, "dateTime": 1513268767079, "trialdata": {"rt": -1000, "stimulus": "/static/audio/wordpool/OX.wav", "key_press": -1, "type": "PRES_AUD", "word": "ox", "wordID": 993, "conditions": [24, 800, "a", 24000], "trial": 4, "serialpos": 9, "trial_type": "single-audio", "trial_index": 166, "time_elapsed": 1011045, "internal_node_id": "0.0-121.0"}}, {"uniqueid": "MTK1171:386CSBG1O0TNI8CQSL90K2LES7TQ6G", "current_trial": 167, "dateTime": 1513268768710, "trialdata": {"rt": -1000, "stimulus": "/static/audio/wordpool/COBRA.wav", "key_press": -1, "type": "PRES_AUD", "word": "cobra", "wordID": 335, "conditions": [24, 800, "a", 24000], "trial": 4, "serialpos": 10, "trial_type": "single-audio", "trial_index": 167, "time_elapsed": 1012677, "internal_node_id": "0.0-122.0"}}, {"uniqueid": "MTK1171:386CSBG1O0TNI8CQSL90K2LES7TQ6G", "current_trial": 168, "dateTime": 1513268770654, "trialdata": {"rt": -1000, "stimulus": "/static/audio/wordpool/HONEY.wav", "key_press": -1, "type": "PRES_AUD", "word": "honey", "wordID": 712, "conditions": [24, 800, "a", 24000], "trial": 4, "serialpos": 11, "trial_type": "single-audio", "trial_index": 168, "time_elapsed": 1014620, "internal_node_id": "0.0-123.0"}}, {"uniqueid": "MTK1171:386CSBG1O0TNI8CQSL90K2LES7TQ6G", "current_trial": 169, "dateTime": 1513268772384, "trialdata": {"rt": -1000, "stimulus": "/static/audio/wordpool/COUNTRY.wav", "key_press": -1, "type": "PRES_AUD", "word": "country", "wordID": 387, "conditions": [24, 800, "a", 24000], "trial": 4, "serialpos": 12, "trial_type": "single-audio", "trial_index": 169, "time_elapsed": 1016351, "internal_node_id": "0.0-124.0"}}, {"uniqueid": "MTK1171:386CSBG1O0TNI8CQSL90K2LES7TQ6G", "current_trial": 170, "dateTime": 1513268774340, "trialdata": {"rt": -1000, "stimulus": "/static/audio/wordpool/SEAGULL.wav", "key_press": -1, "type": "PRES_AUD", "word": "seagull", "wordID": 1260, "conditions": [24, 800, "a", 24000], "trial": 4, "serialpos": 13, "trial_type": "single-audio", "trial_index": 170, "time_elapsed": 1018306, "internal_node_id": "0.0-125.0"}}, {"uniqueid": "MTK1171:386CSBG1O0TNI8CQSL90K2LES7TQ6G", "current_trial": 171, "dateTime": 1513268776173, "trialdata": {"rt": -1000, "stimulus": "/static/audio/wordpool/SIBLING.wav", "key_press": -1, "type": "PRES_AUD", "word": "sibling", "wordID": 1300, "conditions": [24, 800, "a", 24000], "trial": 4, "serialpos": 14, "trial_type": "single-audio", "trial_index": 171, "time_elapsed": 1020139, "internal_node_id": "0.0-126.0"}}, {"uniqueid": "MTK1171:386CSBG1O0TNI8CQSL90K2LES7TQ6G", "current_trial": 172, "dateTime": 1513268777989, "trialdata": {"rt": -1000, "stimulus": "/static/audio/wordpool/RABBIT.wav", "key_press": -1, "type": "PRES_AUD", "word": "rabbit", "wordID": 1151, "conditions": [24, 800, "a", 24000], "trial": 4, "serialpos": 15, "trial_type": "single-audio", "trial_index": 172, "time_elapsed": 1021956, "internal_node_id": "0.0-127.0"}}, {"uniqueid": "MTK1171:386CSBG1O0TNI8CQSL90K2LES7TQ6G", "current_trial": 173, "dateTime": 1513268779726, "trialdata": {"rt": -1000, "stimulus": "/static/audio/wordpool/ROD.wav", "key_press": -1, "type": "PRES_AUD", "word": "rod", "wordID": 1202, "conditions": [24, 800, "a", 24000], "trial": 4, "serialpos": 16, "trial_type": "single-audio", "trial_index": 173, "time_elapsed": 1023692, "internal_node_id": "0.0-128.0"}}, {"uniqueid": "MTK1171:386CSBG1O0TNI8CQSL90K2LES7TQ6G", "current_trial": 174, "dateTime": 1513268781640, "trialdata": {"rt": -1000, "stimulus": "/static/audio/wordpool/TUTU.wav", "key_press": -1, "type": "PRES_AUD", "word": "tutu", "wordID": 1523, "conditions": [24, 800, "a", 24000], "trial": 4, "serialpos": 17, "trial_type": "single-audio", "trial_index": 174, "time_elapsed": 1025606, "internal_node_id": "0.0-129.0"}}, {"uniqueid": "MTK1171:386CSBG1O0TNI8CQSL90K2LES7TQ6G", "current_trial": 175, "dateTime": 1513268783517, "trialdata": {"rt": -1000, "stimulus": "/static/audio/wordpool/NECKLACE.wav", "key_press": -1, "type": "PRES_AUD", "word": "necklace", "wordID": 939, "conditions": [24, 800, "a", 24000], "trial": 4, "serialpos": 18, "trial_type": "single-audio", "trial_index": 175, "time_elapsed": 1027483, "internal_node_id": "0.0-130.0"}}, {"uniqueid": "MTK1171:386CSBG1O0TNI8CQSL90K2LES7TQ6G", "current_trial": 176, "dateTime": 1513268785270, "trialdata": {"rt": -1000, "stimulus": "/static/audio/wordpool/KETCHUP.wav", "key_press": -1, "type": "PRES_AUD", "word": "ketchup", "wordID": 770, "conditions": [24, 800, "a", 24000], "trial": 4, "serialpos": 19, "trial_type": "single-audio", "trial_index": 176, "time_elapsed": 1029237, "internal_node_id": "0.0-131.0"}}, {"uniqueid": "MTK1171:386CSBG1O0TNI8CQSL90K2LES7TQ6G", "current_trial": 177, "dateTime": 1513268787202, "trialdata": {"rt": -1000, "stimulus": "/static/audio/wordpool/BRIEFCASE.wav", "key_press": -1, "type": "PRES_AUD", "word": "briefcase", "wordID": 174, "conditions": [24, 800, "a", 24000], "trial": 4, "serialpos": 20, "trial_type": "single-audio", "trial_index": 177, "time_elapsed": 1031169, "internal_node_id": "0.0-132.0"}}, {"uniqueid": "MTK1171:386CSBG1O0TNI8CQSL90K2LES7TQ6G", "current_trial": 178, "dateTime": 1513268789145, "trialdata": {"rt": -1000, "stimulus": "/static/audio/wordpool/POCKET.wav", "key_press": -1, "type": "PRES_AUD", "word": "pocket", "wordID": 1092, "conditions": [24, 800, "a", 24000], "trial": 4, "serialpos": 21, "trial_type": "single-audio", "trial_index": 178, "time_elapsed": 1033111, "internal_node_id": "0.0-133.0"}}, {"uniqueid": "MTK1171:386CSBG1O0TNI8CQSL90K2LES7TQ6G", "current_trial": 179, "dateTime": 1513268790926, "trialdata": {"rt": -1000, "stimulus": "/static/audio/wordpool/COWBOY.wav", "key_press": -1, "type": "PRES_AUD", "word": "cowboy", "wordID": 394, "conditions": [24, 800, "a", 24000], "trial": 4, "serialpos": 22, "trial_type": "single-audio", "trial_index": 179, "time_elapsed": 1034893, "internal_node_id": "0.0-134.0"}}, {"uniqueid": "MTK1171:386CSBG1O0TNI8CQSL90K2LES7TQ6G", "current_trial": 180, "dateTime": 1513268792832, "trialdata": {"rt": -1000, "stimulus": "/static/audio/wordpool/WORLD.wav", "key_press": -1, "type": "PRES_AUD", "word": "world", "wordID": 1621, "conditions": [24, 800, "a", 24000], "trial": 4, "serialpos": 23, "trial_type": "single-audio", "trial_index": 180, "time_elapsed": 1036798, "internal_node_id": "0.0-135.0"}}, {"uniqueid": "MTK1171:386CSBG1O0TNI8CQSL90K2LES7TQ6G", "current_trial": 181, "dateTime": 1513268794207, "trialdata": {"rt": -1, "stimulus": "", "key_press": -1, "type": "PRE_RECALL_DELAY", "trial_type": "single-stim", "trial_index": 181, "time_elapsed": 1038173, "internal_node_id": "0.0-136.0-0.0"}}, {"uniqueid": "MTK1171:386CSBG1O0TNI8CQSL90K2LES7TQ6G", "current_trial": 182, "dateTime": 1513268794710, "trialdata": {"rt": -1000, "stimulus": "/static/audio/400Hz.wav", "key_press": -1, "type": "PRE_RECALL_ALERT", "trial_type": "single-audio", "trial_index": 182, "time_elapsed": 1038677, "internal_node_id": "0.0-137.0"}}, {"uniqueid": "MTK1171:386CSBG1O0TNI8CQSL90K2LES7TQ6G", "current_trial": 183, "dateTime": 1513268854727, "trialdata": {"rt": [1847, 5672, 8858, 15511, 18356, 24886, 31517, 33180, 35558, 41190, 42907, 45422, 47836, 56805], "recwords": ["world", "cowboy", "country", "thief", "robber", "gymnast", "sister", "tutu", "mustard", "ketchup", "ox", "gazelle", "cobra", "parent"], "type": "FREE_RECALL", "conditions": [24, 800, "a", 24000], "trial": 4, "trial_type": "free-recall", "trial_index": 183, "time_elapsed": 1098684, "internal_node_id": "0.0-138.0-0.0"}}, {"uniqueid": "MTK1171:386CSBG1O0TNI8CQSL90K2LES7TQ6G", "current_trial": 184, "dateTime": 1513268857986, "trialdata": {"rt": 1255, "key_press": 32, "type": "INSTRUCTIONS", "trial_type": "text", "trial_index": 184, "time_elapsed": 1101953, "internal_node_id": "0.0-139.0"}}, {"uniqueid": "MTK1171:386CSBG1O0TNI8CQSL90K2LES7TQ6G", "current_trial": 185, "dateTime": 1513268871992, "trialdata": {"rt": [3107, 5499, 7949, 11816], "responses": ["10", "13", "9", "20"], "num1": [1, 1, 2, 7, 6], "num2": [4, 6, 1, 8, 1], "num3": [5, 6, 6, 5, 6], "type": "DISTRACTOR", "conditions": [24, 800, "a", 12000], "trial": 5, "trial_type": "math-distractor", "trial_index": 185, "time_elapsed": 1115959, "internal_node_id": "0.0-140.0"}}, {"uniqueid": "MTK1171:386CSBG1O0TNI8CQSL90K2LES7TQ6G", "current_trial": 186, "dateTime": 1513268874996, "trialdata": {"rt": -1, "stimulus": "<p id=\"stim\">10</p>", "key_press": -1, "trial_type": "single-stim", "trial_index": 186, "time_elapsed": 1118962, "internal_node_id": "0.0-141.0-0.0"}}, {"uniqueid": "MTK1171:386CSBG1O0TNI8CQSL90K2LES7TQ6G", "current_trial": 187, "dateTime": 1513268875998, "trialdata": {"rt": -1, "stimulus": "<p id=\"stim\">9</p>", "key_press": -1, "trial_type": "single-stim", "trial_index": 187, "time_elapsed": 1119965, "internal_node_id": "0.0-141.0-1.0"}}, {"uniqueid": "MTK1171:386CSBG1O0TNI8CQSL90K2LES7TQ6G", "current_trial": 188, "dateTime": 1513268877000, "trialdata": {"rt": -1, "stimulus": "<p id=\"stim\">8</p>", "key_press": -1, "trial_type": "single-stim", "trial_index": 188, "time_elapsed": 1120967, "internal_node_id": "0.0-141.0-2.0"}}, {"uniqueid": "MTK1171:386CSBG1O0TNI8CQSL90K2LES7TQ6G", "current_trial": 189, "dateTime": 1513268878002, "trialdata": {"rt": -1, "stimulus": "<p id=\"stim\">7</p>", "key_press": -1, "trial_type": "single-stim", "trial_index": 189, "time_elapsed": 1121969, "internal_node_id": "0.0-141.0-3.0"}}, {"uniqueid": "MTK1171:386CSBG1O0TNI8CQSL90K2LES7TQ6G", "current_trial": 190, "dateTime": 1513268879006, "trialdata": {"rt": -1, "stimulus": "<p id=\"stim\">6</p>", "key_press": -1, "trial_type": "single-stim", "trial_index": 190, "time_elapsed": 1122972, "internal_node_id": "0.0-141.0-4.0"}}, {"uniqueid": "MTK1171:386CSBG1O0TNI8CQSL90K2LES7TQ6G", "current_trial": 191, "dateTime": 1513268880009, "trialdata": {"rt": -1, "stimulus": "<p id=\"stim\">5</p>", "key_press": -1, "trial_type": "single-stim", "trial_index": 191, "time_elapsed": 1123976, "internal_node_id": "0.0-141.0-5.0"}}, {"uniqueid": "MTK1171:386CSBG1O0TNI8CQSL90K2LES7TQ6G", "current_trial": 192, "dateTime": 1513268881011, "trialdata": {"rt": -1, "stimulus": "<p id=\"stim\">4</p>", "key_press": -1, "trial_type": "single-stim", "trial_index": 192, "time_elapsed": 1124978, "internal_node_id": "0.0-141.0-6.0"}}, {"uniqueid": "MTK1171:386CSBG1O0TNI8CQSL90K2LES7TQ6G", "current_trial": 193, "dateTime": 1513268882013, "trialdata": {"rt": -1, "stimulus": "<p id=\"stim\">3</p>", "key_press": -1, "trial_type": "single-stim", "trial_index": 193, "time_elapsed": 1125980, "internal_node_id": "0.0-141.0-7.0"}}, {"uniqueid": "MTK1171:386CSBG1O0TNI8CQSL90K2LES7TQ6G", "current_trial": 194, "dateTime": 1513268883016, "trialdata": {"rt": -1, "stimulus": "<p id=\"stim\">2</p>", "key_press": -1, "trial_type": "single-stim", "trial_index": 194, "time_elapsed": 1126982, "internal_node_id": "0.0-141.0-8.0"}}, {"uniqueid": "MTK1171:386CSBG1O0TNI8CQSL90K2LES7TQ6G", "current_trial": 195, "dateTime": 1513268884037, "trialdata": {"rt": -1, "stimulus": "<p id=\"stim\">1</p>", "key_press": -1, "trial_type": "single-stim", "trial_index": 195, "time_elapsed": 1128004, "internal_node_id": "0.0-141.0-9.0"}}, {"uniqueid": "MTK1171:386CSBG1O0TNI8CQSL90K2LES7TQ6G", "current_trial": 196, "dateTime": 1513268885540, "trialdata": {"rt": -1, "stimulus": "<p id=\"stim\">+</p>", "key_press": -1, "type": "FIXATION", "trial_type": "single-stim", "trial_index": 196, "time_elapsed": 1129507, "internal_node_id": "0.0-142.0-0.0"}}, {"uniqueid": "MTK1171:386CSBG1O0TNI8CQSL90K2LES7TQ6G", "current_trial": 197, "dateTime": 1513268887493, "trialdata": {"rt": -1000, "stimulus": "/static/audio/wordpool/FLUTE.wav", "key_press": -1, "type": "PRES_AUD", "word": "flute", "wordID": 584, "conditions": [24, 800, "a", 12000], "trial": 5, "serialpos": 0, "trial_type": "single-audio", "trial_index": 197, "time_elapsed": 1131459, "internal_node_id": "0.0-143.0"}}, {"uniqueid": "MTK1171:386CSBG1O0TNI8CQSL90K2LES7TQ6G", "current_trial": 198, "dateTime": 1513268889120, "trialdata": {"rt": -1000, "stimulus": "/static/audio/wordpool/RUG.wav", "key_press": -1, "type": "PRES_AUD", "word": "rug", "wordID": 1214, "conditions": [24, 800, "a", 12000], "trial": 5, "serialpos": 1, "trial_type": "single-audio", "trial_index": 198, "time_elapsed": 1133087, "internal_node_id": "0.0-144.0"}}, {"uniqueid": "MTK1171:386CSBG1O0TNI8CQSL90K2LES7TQ6G", "current_trial": 199, "dateTime": 1513268891114, "trialdata": {"rt": -1000, "stimulus": "/static/audio/wordpool/KLEENEX.wav", "key_press": -1, "type": "PRES_AUD", "word": "kleenex", "wordID": 781, "conditions": [24, 800, "a", 12000], "trial": 5, "serialpos": 2, "trial_type": "single-audio", "trial_index": 199, "time_elapsed": 1135081, "internal_node_id": "0.0-145.0"}}, {"uniqueid": "MTK1171:386CSBG1O0TNI8CQSL90K2LES7TQ6G", "current_trial": 200, "dateTime": 1513268893072, "trialdata": {"rt": -1000, "stimulus": "/static/audio/wordpool/QUARTER.wav", "key_press": -1, "type": "PRES_AUD", "word": "quarter", "wordID": 1147, "conditions": [24, 800, "a", 12000], "trial": 5, "serialpos": 3, "trial_type": "single-audio", "trial_index": 200, "time_elapsed": 1137039, "internal_node_id": "0.0-146.0"}}, {"uniqueid": "MTK1171:386CSBG1O0TNI8CQSL90K2LES7TQ6G", "current_trial": 201, "dateTime": 1513268894816, "trialdata": {"rt": -1000, "stimulus": "/static/audio/wordpool/LIVER.wav", "key_press": -1, "type": "PRES_AUD", "word": "liver", "wordID": 832, "conditions": [24, 800, "a", 12000], "trial": 5, "serialpos": 4, "trial_type": "single-audio", "trial_index": 201, "time_elapsed": 1138783, "internal_node_id": "0.0-147.0"}}, {"uniqueid": "MTK1171:386CSBG1O0TNI8CQSL90K2LES7TQ6G", "current_trial": 202, "dateTime": 1513268896648, "trialdata": {"rt": -1000, "stimulus": "/static/audio/wordpool/FLAG.wav", "key_press": -1, "type": "PRES_AUD", "word": "flag", "wordID": 572, "conditions": [24, 800, "a", 12000], "trial": 5, "serialpos": 5, "trial_type": "single-audio", "trial_index": 202, "time_elapsed": 1140614, "internal_node_id": "0.0-148.0"}}, {"uniqueid": "MTK1171:386CSBG1O0TNI8CQSL90K2LES7TQ6G", "current_trial": 203, "dateTime": 1513268898476, "trialdata": {"rt": -1000, "stimulus": "/static/audio/wordpool/BROTHER.wav", "key_press": -1, "type": "PRES_AUD", "word": "brother", "wordID": 178, "conditions": [24, 800, "a", 12000], "trial": 5, "serialpos": 6, "trial_type": "single-audio", "trial_index": 203, "time_elapsed": 1142443, "internal_node_id": "0.0-149.0"}}, {"uniqueid": "MTK1171:386CSBG1O0TNI8CQSL90K2LES7TQ6G", "current_trial": 204, "dateTime": 1513268900430, "trialdata": {"rt": -1000, "stimulus": "/static/audio/wordpool/VICTIM.wav", "key_press": -1, "type": "PRES_AUD", "word": "victim", "wordID": 1561, "conditions": [24, 800, "a", 12000], "trial": 5, "serialpos": 7, "trial_type": "single-audio", "trial_index": 204, "time_elapsed": 1144397, "internal_node_id": "0.0-150.0"}}, {"uniqueid": "MTK1171:386CSBG1O0TNI8CQSL90K2LES7TQ6G", "current_trial": 205, "dateTime": 1513268902294, "trialdata": {"rt": -1000, "stimulus": "/static/audio/wordpool/SUSPECT.wav", "key_press": -1, "type": "PRES_AUD", "word": "suspect", "wordID": 1414, "conditions": [24, 800, "a", 12000], "trial": 5, "serialpos": 8, "trial_type": "single-audio", "trial_index": 205, "time_elapsed": 1146260, "internal_node_id": "0.0-151.0"}}, {"uniqueid": "MTK1171:386CSBG1O0TNI8CQSL90K2LES7TQ6G", "current_trial": 206, "dateTime": 1513268904127, "trialdata": {"rt": -1000, "stimulus": "/static/audio/wordpool/MATCH.wav", "key_press": -1, "type": "PRES_AUD", "word": "match", "wordID": 877, "conditions": [24, 800, "a", 12000], "trial": 5, "serialpos": 9, "trial_type": "single-audio", "trial_index": 206, "time_elapsed": 1148093, "internal_node_id": "0.0-152.0"}}, {"uniqueid": "MTK1171:386CSBG1O0TNI8CQSL90K2LES7TQ6G", "current_trial": 207, "dateTime": 1513268905890, "trialdata": {"rt": -1000, "stimulus": "/static/audio/wordpool/GALLON.wav", "key_press": -1, "type": "PRES_AUD", "word": "gallon", "wordID": 617, "conditions": [24, 800, "a", 12000], "trial": 5, "serialpos": 10, "trial_type": "single-audio", "trial_index": 207, "time_elapsed": 1149857, "internal_node_id": "0.0-153.0"}}, {"uniqueid": "MTK1171:386CSBG1O0TNI8CQSL90K2LES7TQ6G", "current_trial": 208, "dateTime": 1513268907800, "trialdata": {"rt": -1000, "stimulus": "/static/audio/wordpool/COUSIN.wav", "key_press": -1, "type": "PRES_AUD", "word": "cousin", "wordID": 391, "conditions": [24, 800, "a", 12000], "trial": 5, "serialpos": 11, "trial_type": "single-audio", "trial_index": 208, "time_elapsed": 1151766, "internal_node_id": "0.0-154.0"}}, {"uniqueid": "MTK1171:386CSBG1O0TNI8CQSL90K2LES7TQ6G", "current_trial": 209, "dateTime": 1513268909749, "trialdata": {"rt": -1000, "stimulus": "/static/audio/wordpool/LIGHTNING.wav", "key_press": -1, "type": "PRES_AUD", "word": "lightning", "wordID": 819, "conditions": [24, 800, "a", 12000], "trial": 5, "serialpos": 12, "trial_type": "single-audio", "trial_index": 209, "time_elapsed": 1153715, "internal_node_id": "0.0-155.0"}}, {"uniqueid": "MTK1171:386CSBG1O0TNI8CQSL90K2LES7TQ6G", "current_trial": 210, "dateTime": 1513268911574, "trialdata": {"rt": -1000, "stimulus": "/static/audio/wordpool/PISTON.wav", "key_press": -1, "type": "PRES_AUD", "word": "piston", "wordID": 1075, "conditions": [24, 800, "a", 12000], "trial": 5, "serialpos": 13, "trial_type": "single-audio", "trial_index": 210, "time_elapsed": 1155541, "internal_node_id": "0.0-156.0"}}, {"uniqueid": "MTK1171:386CSBG1O0TNI8CQSL90K2LES7TQ6G", "current_trial": 211, "dateTime": 1513268913308, "trialdata": {"rt": -1000, "stimulus": "/static/audio/wordpool/CARRIAGE.wav", "key_press": -1, "type": "PRES_AUD", "word": "carriage", "wordID": 247, "conditions": [24, 800, "a", 12000], "trial": 5, "serialpos": 14, "trial_type": "single-audio", "trial_index": 211, "time_elapsed": 1157275, "internal_node_id": "0.0-157.0"}}, {"uniqueid": "MTK1171:386CSBG1O0TNI8CQSL90K2LES7TQ6G", "current_trial": 212, "dateTime": 1513268915051, "trialdata": {"rt": -1000, "stimulus": "/static/audio/wordpool/LACE.wav", "key_press": -1, "type": "PRES_AUD", "word": "lace", "wordID": 791, "conditions": [24, 800, "a", 12000], "trial": 5, "serialpos": 15, "trial_type": "single-audio", "trial_index": 212, "time_elapsed": 1159018, "internal_node_id": "0.0-158.0"}}, {"uniqueid": "MTK1171:386CSBG1O0TNI8CQSL90K2LES7TQ6G", "current_trial": 213, "dateTime": 1513268916921, "trialdata": {"rt": -1000, "stimulus": "/static/audio/wordpool/BLADE.wav", "key_press": -1, "type": "PRES_AUD", "word": "blade", "wordID": 133, "conditions": [24, 800, "a", 12000], "trial": 5, "serialpos": 16, "trial_type": "single-audio", "trial_index": 213, "time_elapsed": 1160887, "internal_node_id": "0.0-159.0"}}, {"uniqueid": "MTK1171:386CSBG1O0TNI8CQSL90K2LES7TQ6G", "current_trial": 214, "dateTime": 1513268918565, "trialdata": {"rt": -1000, "stimulus": "/static/audio/wordpool/VALVE.wav", "key_press": -1, "type": "PRES_AUD", "word": "valve", "wordID": 1545, "conditions": [24, 800, "a", 12000], "trial": 5, "serialpos": 17, "trial_type": "single-audio", "trial_index": 214, "time_elapsed": 1162532, "internal_node_id": "0.0-160.0"}}, {"uniqueid": "MTK1171:386CSBG1O0TNI8CQSL90K2LES7TQ6G", "current_trial": 215, "dateTime": 1513268920319, "trialdata": {"rt": -1000, "stimulus": "/static/audio/wordpool/SIDEWALK.wav", "key_press": -1, "type": "PRES_AUD", "word": "sidewalk", "wordID": 1302, "conditions": [24, 800, "a", 12000], "trial": 5, "serialpos": 18, "trial_type": "single-audio", "trial_index": 215, "time_elapsed": 1164286, "internal_node_id": "0.0-161.0"}}, {"uniqueid": "MTK1171:386CSBG1O0TNI8CQSL90K2LES7TQ6G", "current_trial": 216, "dateTime": 1513268922121, "trialdata": {"rt": -1000, "stimulus": "/static/audio/wordpool/CHEST.wav", "key_press": -1, "type": "PRES_AUD", "word": "chest", "wordID": 294, "conditions": [24, 800, "a", 12000], "trial": 5, "serialpos": 19, "trial_type": "single-audio", "trial_index": 216, "time_elapsed": 1166088, "internal_node_id": "0.0-162.0"}}, {"uniqueid": "MTK1171:386CSBG1O0TNI8CQSL90K2LES7TQ6G", "current_trial": 217, "dateTime": 1513268923915, "trialdata": {"rt": -1000, "stimulus": "/static/audio/wordpool/PLASTER.wav", "key_press": -1, "type": "PRES_AUD", "word": "plaster", "wordID": 1084, "conditions": [24, 800, "a", 12000], "trial": 5, "serialpos": 20, "trial_type": "single-audio", "trial_index": 217, "time_elapsed": 1167882, "internal_node_id": "0.0-163.0"}}, {"uniqueid": "MTK1171:386CSBG1O0TNI8CQSL90K2LES7TQ6G", "current_trial": 218, "dateTime": 1513268925771, "trialdata": {"rt": -1000, "stimulus": "/static/audio/wordpool/FRUIT.wav", "key_press": -1, "type": "PRES_AUD", "word": "fruit", "wordID": 609, "conditions": [24, 800, "a", 12000], "trial": 5, "serialpos": 21, "trial_type": "single-audio", "trial_index": 218, "time_elapsed": 1169738, "internal_node_id": "0.0-164.0"}}, {"uniqueid": "MTK1171:386CSBG1O0TNI8CQSL90K2LES7TQ6G", "current_trial": 219, "dateTime": 1513268927637, "trialdata": {"rt": -1000, "stimulus": "/static/audio/wordpool/APPLE.wav", "key_press": -1, "type": "PRES_AUD", "word": "apple", "wordID": 32, "conditions": [24, 800, "a", 12000], "trial": 5, "serialpos": 22, "trial_type": "single-audio", "trial_index": 219, "time_elapsed": 1171603, "internal_node_id": "0.0-165.0"}}, {"uniqueid": "MTK1171:386CSBG1O0TNI8CQSL90K2LES7TQ6G", "current_trial": 220, "dateTime": 1513268929602, "trialdata": {"rt": -1000, "stimulus": "/static/audio/wordpool/SPARROW.wav", "key_press": -1, "type": "PRES_AUD", "word": "sparrow", "wordID": 1346, "conditions": [24, 800, "a", 12000], "trial": 5, "serialpos": 23, "trial_type": "single-audio", "trial_index": 220, "time_elapsed": 1173567, "internal_node_id": "0.0-166.0"}}, {"uniqueid": "MTK1171:386CSBG1O0TNI8CQSL90K2LES7TQ6G", "current_trial": 221, "dateTime": 1513268930805, "trialdata": {"rt": -1, "stimulus": "", "key_press": -1, "type": "PRE_RECALL_DELAY", "trial_type": "single-stim", "trial_index": 221, "time_elapsed": 1174772, "internal_node_id": "0.0-167.0-0.0"}}, {"uniqueid": "MTK1171:386CSBG1O0TNI8CQSL90K2LES7TQ6G", "current_trial": 222, "dateTime": 1513268931307, "trialdata": {"rt": -1000, "stimulus": "/static/audio/400Hz.wav", "key_press": -1, "type": "PRE_RECALL_ALERT", "trial_type": "single-audio", "trial_index": 222, "time_elapsed": 1175274, "internal_node_id": "0.0-168.0"}}, {"uniqueid": "MTK1171:386CSBG1O0TNI8CQSL90K2LES7TQ6G", "current_trial": 223, "dateTime": 1513268991329, "trialdata": {"rt": [2503, 4845, 6818, 10311, 16911, 34898], "recwords": ["fruit", "apple", "sparrow", "carriage", "piston", "fruit"], "type": "FREE_RECALL", "conditions": [24, 800, "a", 12000], "trial": 5, "trial_type": "free-recall", "trial_index": 223, "time_elapsed": 1235280, "internal_node_id": "0.0-169.0-0.0"}}, {"uniqueid": "MTK1171:386CSBG1O0TNI8CQSL90K2LES7TQ6G", "current_trial": 224, "dateTime": 1513269057512, "trialdata": {"rt": 64180, "key_press": 32, "type": "INSTRUCTIONS", "trial_type": "text", "trial_index": 224, "time_elapsed": 1301478, "internal_node_id": "0.0-170.0"}}, {"uniqueid": "MTK1171:386CSBG1O0TNI8CQSL90K2LES7TQ6G", "current_trial": 225, "dateTime": 1513269071520, "trialdata": {"rt": [6416, 10251], "responses": ["22", "16"], "num1": [5, 4, 6], "num2": [9, 7, 3], "num3": [9, 5, 3], "type": "DISTRACTOR", "conditions": [24, 800, "v", 12000], "trial": 6, "trial_type": "math-distractor", "trial_index": 225, "time_elapsed": 1315487, "internal_node_id": "0.0-171.0"}}, {"uniqueid": "MTK1171:386CSBG1O0TNI8CQSL90K2LES7TQ6G", "current_trial": 226, "dateTime": 1513269074524, "trialdata": {"rt": -1, "stimulus": "<p id=\"stim\">10</p>", "key_press": -1, "trial_type": "single-stim", "trial_index": 226, "time_elapsed": 1318491, "internal_node_id": "0.0-172.0-0.0"}}, {"uniqueid": "MTK1171:386CSBG1O0TNI8CQSL90K2LES7TQ6G", "current_trial": 227, "dateTime": 1513269075528, "trialdata": {"rt": -1, "stimulus": "<p id=\"stim\">9</p>", "key_press": -1, "trial_type": "single-stim", "trial_index": 227, "time_elapsed": 1319495, "internal_node_id": "0.0-172.0-1.0"}}, {"uniqueid": "MTK1171:386CSBG1O0TNI8CQSL90K2LES7TQ6G", "current_trial": 228, "dateTime": 1513269076531, "trialdata": {"rt": -1, "stimulus": "<p id=\"stim\">8</p>", "key_press": -1, "trial_type": "single-stim", "trial_index": 228, "time_elapsed": 1320498, "internal_node_id": "0.0-172.0-2.0"}}, {"uniqueid": "MTK1171:386CSBG1O0TNI8CQSL90K2LES7TQ6G", "current_trial": 229, "dateTime": 1513269077534, "trialdata": {"rt": -1, "stimulus": "<p id=\"stim\">7</p>", "key_press": -1, "trial_type": "single-stim", "trial_index": 229, "time_elapsed": 1321501, "internal_node_id": "0.0-172.0-3.0"}}, {"uniqueid": "MTK1171:386CSBG1O0TNI8CQSL90K2LES7TQ6G", "current_trial": 230, "dateTime": 1513269078537, "trialdata": {"rt": -1, "stimulus": "<p id=\"stim\">6</p>", "key_press": -1, "trial_type": "single-stim", "trial_index": 230, "time_elapsed": 1322504, "internal_node_id": "0.0-172.0-4.0"}}, {"uniqueid": "MTK1171:386CSBG1O0TNI8CQSL90K2LES7TQ6G", "current_trial": 231, "dateTime": 1513269079540, "trialdata": {"rt": -1, "stimulus": "<p id=\"stim\">5</p>", "key_press": -1, "trial_type": "single-stim", "trial_index": 231, "time_elapsed": 1323507, "internal_node_id": "0.0-172.0-5.0"}}, {"uniqueid": "MTK1171:386CSBG1O0TNI8CQSL90K2LES7TQ6G", "current_trial": 232, "dateTime": 1513269080544, "trialdata": {"rt": -1, "stimulus": "<p id=\"stim\">4</p>", "key_press": -1, "trial_type": "single-stim", "trial_index": 232, "time_elapsed": 1324510, "internal_node_id": "0.0-172.0-6.0"}}, {"uniqueid": "MTK1171:386CSBG1O0TNI8CQSL90K2LES7TQ6G", "current_trial": 233, "dateTime": 1513269081548, "trialdata": {"rt": -1, "stimulus": "<p id=\"stim\">3</p>", "key_press": -1, "trial_type": "single-stim", "trial_index": 233, "time_elapsed": 1325515, "internal_node_id": "0.0-172.0-7.0"}}, {"uniqueid": "MTK1171:386CSBG1O0TNI8CQSL90K2LES7TQ6G", "current_trial": 234, "dateTime": 1513269082552, "trialdata": {"rt": -1, "stimulus": "<p id=\"stim\">2</p>", "key_press": -1, "trial_type": "single-stim", "trial_index": 234, "time_elapsed": 1326518, "internal_node_id": "0.0-172.0-8.0"}}, {"uniqueid": "MTK1171:386CSBG1O0TNI8CQSL90K2LES7TQ6G", "current_trial": 235, "dateTime": 1513269083555, "trialdata": {"rt": -1, "stimulus": "<p id=\"stim\">1</p>", "key_press": -1, "trial_type": "single-stim", "trial_index": 235, "time_elapsed": 1327521, "internal_node_id": "0.0-172.0-9.0"}}, {"uniqueid": "MTK1171:386CSBG1O0TNI8CQSL90K2LES7TQ6G", "current_trial": 236, "dateTime": 1513269085060, "trialdata": {"rt": -1, "stimulus": "<p id=\"stim\">+</p>", "key_press": -1, "type": "FIXATION", "trial_type": "single-stim", "trial_index": 236, "time_elapsed": 1329025, "internal_node_id": "0.0-173.0-0.0"}}, {"uniqueid": "MTK1171:386CSBG1O0TNI8CQSL90K2LES7TQ6G", "current_trial": 237, "dateTime": 1513269085863, "trialdata": {"rt": -1, "stimulus": "<p id=\"stim\">JURY</p>", "key_press": -1, "type": "PRES_VIS", "word": "jury", "wordID": 765, "conditions": [24, 800, "v", 12000], "trial": 6, "serialpos": 0, "trial_type": "single-stim", "trial_index": 237, "time_elapsed": 1329830, "internal_node_id": "0.0-174.0"}}, {"uniqueid": "MTK1171:386CSBG1O0TNI8CQSL90K2LES7TQ6G", "current_trial": 238, "dateTime": 1513269087693, "trialdata": {"rt": -1, "stimulus": "<p id=\"stim\">MAMMAL</p>", "key_press": -1, "type": "PRES_VIS", "word": "mammal", "wordID": 860, "conditions": [24, 800, "v", 12000], "trial": 6, "serialpos": 1, "trial_type": "single-stim", "trial_index": 238, "time_elapsed": 1331659, "internal_node_id": "0.0-175.0"}}, {"uniqueid": "MTK1171:386CSBG1O0TNI8CQSL90K2LES7TQ6G", "current_trial": 239, "dateTime": 1513269089476, "trialdata": {"rt": -1, "stimulus": "<p id=\"stim\">TRIBE</p>", "key_press": -1, "type": "PRES_VIS", "word": "tribe", "wordID": 1504, "conditions": [24, 800, "v", 12000], "trial": 6, "serialpos": 2, "trial_type": "single-stim", "trial_index": 239, "time_elapsed": 1333442, "internal_node_id": "0.0-176.0"}}, {"uniqueid": "MTK1171:386CSBG1O0TNI8CQSL90K2LES7TQ6G", "current_trial": 240, "dateTime": 1513269091229, "trialdata": {"rt": -1, "stimulus": "<p id=\"stim\">PORTRAIT</p>", "key_press": -1, "type": "PRES_VIS", "word": "portrait", "wordID": 1110, "conditions": [24, 800, "v", 12000], "trial": 6, "serialpos": 3, "trial_type": "single-stim", "trial_index": 240, "time_elapsed": 1335195, "internal_node_id": "0.0-177.0"}}, {"uniqueid": "MTK1171:386CSBG1O0TNI8CQSL90K2LES7TQ6G", "current_trial": 241, "dateTime": 1513269092962, "trialdata": {"rt": -1, "stimulus": "<p id=\"stim\">PICTURE</p>", "key_press": -1, "type": "PRES_VIS", "word": "picture", "wordID": 1060, "conditions": [24, 800, "v", 12000], "trial": 6, "serialpos": 4, "trial_type": "single-stim", "trial_index": 241, "time_elapsed": 1336928, "internal_node_id": "0.0-178.0"}}, {"uniqueid": "MTK1171:386CSBG1O0TNI8CQSL90K2LES7TQ6G", "current_trial": 242, "dateTime": 1513269094878, "trialdata": {"rt": -1, "stimulus": "<p id=\"stim\">PREACHER</p>", "key_press": -1, "type": "PRES_VIS", "word": "preacher", "wordID": 1118, "conditions": [24, 800, "v", 12000], "trial": 6, "serialpos": 5, "trial_type": "single-stim", "trial_index": 242, "time_elapsed": 1338844, "internal_node_id": "0.0-179.0"}}, {"uniqueid": "MTK1171:386CSBG1O0TNI8CQSL90K2LES7TQ6G", "current_trial": 243, "dateTime": 1513269096733, "trialdata": {"rt": -1, "stimulus": "<p id=\"stim\">CLIMBER</p>", "key_press": -1, "type": "PRES_VIS", "word": "climber", "wordID": 322, "conditions": [24, 800, "v", 12000], "trial": 6, "serialpos": 6, "trial_type": "single-stim", "trial_index": 243, "time_elapsed": 1340700, "internal_node_id": "0.0-180.0"}}, {"uniqueid": "MTK1171:386CSBG1O0TNI8CQSL90K2LES7TQ6G", "current_trial": 244, "dateTime": 1513269098700, "trialdata": {"rt": -1, "stimulus": "<p id=\"stim\">COMET</p>", "key_press": -1, "type": "PRES_VIS", "word": "comet", "wordID": 352, "conditions": [24, 800, "v", 12000], "trial": 6, "serialpos": 7, "trial_type": "single-stim", "trial_index": 244, "time_elapsed": 1342667, "internal_node_id": "0.0-181.0"}}, {"uniqueid": "MTK1171:386CSBG1O0TNI8CQSL90K2LES7TQ6G", "current_trial": 245, "dateTime": 1513269100477, "trialdata": {"rt": -1, "stimulus": "<p id=\"stim\">SHORTCAKE</p>", "key_press": -1, "type": "PRES_VIS", "word": "shortcake", "wordID": 1291, "conditions": [24, 800, "v", 12000], "trial": 6, "serialpos": 8, "trial_type": "single-stim", "trial_index": 245, "time_elapsed": 1344444, "internal_node_id": "0.0-182.0"}}, {"uniqueid": "MTK1171:386CSBG1O0TNI8CQSL90K2LES7TQ6G", "current_trial": 246, "dateTime": 1513269102108, "trialdata": {"rt": -1, "stimulus": "<p id=\"stim\">GUARD</p>", "key_press": -1, "type": "PRES_VIS", "word": "guard", "wordID": 666, "conditions": [24, 800, "v", 12000], "trial": 6, "serialpos": 9, "trial_type": "single-stim", "trial_index": 246, "time_elapsed": 1346075, "internal_node_id": "0.0-183.0"}}, {"uniqueid": "MTK1171:386CSBG1O0TNI8CQSL90K2LES7TQ6G", "current_trial": 247, "dateTime": 1513269104102, "trialdata": {"rt": -1, "stimulus": "<p id=\"stim\">JUDGE</p>", "key_press": -1, "type": "PRES_VIS", "word": "judge", "wordID": 760, "conditions": [24, 800, "v", 12000], "trial": 6, "serialpos": 10, "trial_type": "single-stim", "trial_index": 247, "time_elapsed": 1348068, "internal_node_id": "0.0-184.0"}}, {"uniqueid": "MTK1171:386CSBG1O0TNI8CQSL90K2LES7TQ6G", "current_trial": 248, "dateTime": 1513269105708, "trialdata": {"rt": -1, "stimulus": "<p id=\"stim\">PIGMENT</p>", "key_press": -1, "type": "PRES_VIS", "word": "pigment", "wordID": 1065, "conditions": [24, 800, "v", 12000], "trial": 6, "serialpos": 11, "trial_type": "single-stim", "trial_index": 248, "time_elapsed": 1349675, "internal_node_id": "0.0-185.0"}}, {"uniqueid": "MTK1171:386CSBG1O0TNI8CQSL90K2LES7TQ6G", "current_trial": 249, "dateTime": 1513269107431, "trialdata": {"rt": -1, "stimulus": "<p id=\"stim\">EYELASH</p>", "key_press": -1, "type": "PRES_VIS", "word": "eyelash", "wordID": 545, "conditions": [24, 800, "v", 12000], "trial": 6, "serialpos": 12, "trial_type": "single-stim", "trial_index": 249, "time_elapsed": 1351398, "internal_node_id": "0.0-186.0"}}, {"uniqueid": "MTK1171:386CSBG1O0TNI8CQSL90K2LES7TQ6G", "current_trial": 250, "dateTime": 1513269109321, "trialdata": {"rt": -1, "stimulus": "<p id=\"stim\">OMELET</p>", "key_press": -1, "type": "PRES_VIS", "word": "omelet", "wordID": 975, "conditions": [24, 800, "v", 12000], "trial": 6, "serialpos": 13, "trial_type": "single-stim", "trial_index": 250, "time_elapsed": 1353287, "internal_node_id": "0.0-187.0"}}, {"uniqueid": "MTK1171:386CSBG1O0TNI8CQSL90K2LES7TQ6G", "current_trial": 251, "dateTime": 1513269111281, "trialdata": {"rt": -1, "stimulus": "<p id=\"stim\">JAPAN</p>", "key_press": -1, "type": "PRES_VIS", "word": "japan", "wordID": 748, "conditions": [24, 800, "v", 12000], "trial": 6, "serialpos": 14, "trial_type": "single-stim", "trial_index": 251, "time_elapsed": 1355248, "internal_node_id": "0.0-188.0"}}, {"uniqueid": "MTK1171:386CSBG1O0TNI8CQSL90K2LES7TQ6G", "current_trial": 252, "dateTime": 1513269113031, "trialdata": {"rt": -1, "stimulus": "<p id=\"stim\">VIRUS</p>", "key_press": -1, "type": "PRES_VIS", "word": "virus", "wordID": 1571, "conditions": [24, 800, "v", 12000], "trial": 6, "serialpos": 15, "trial_type": "single-stim", "trial_index": 252, "time_elapsed": 1356998, "internal_node_id": "0.0-189.0"}}, {"uniqueid": "MTK1171:386CSBG1O0TNI8CQSL90K2LES7TQ6G", "current_trial": 253, "dateTime": 1513269115010, "trialdata": {"rt": -1, "stimulus": "<p id=\"stim\">BUG</p>", "key_press": -1, "type": "PRES_VIS", "word": "bug", "wordID": 186, "conditions": [24, 800, "v", 12000], "trial": 6, "serialpos": 16, "trial_type": "single-stim", "trial_index": 253, "time_elapsed": 1358977, "internal_node_id": "0.0-190.0"}}, {"uniqueid": "MTK1171:386CSBG1O0TNI8CQSL90K2LES7TQ6G", "current_trial": 254, "dateTime": 1513269116791, "trialdata": {"rt": -1, "stimulus": "<p id=\"stim\">LUNCH</p>", "key_press": -1, "type": "PRES_VIS", "word": "lunch", "wordID": 848, "conditions": [24, 800, "v", 12000], "trial": 6, "serialpos": 17, "trial_type": "single-stim", "trial_index": 254, "time_elapsed": 1360757, "internal_node_id": "0.0-191.0"}}, {"uniqueid": "MTK1171:386CSBG1O0TNI8CQSL90K2LES7TQ6G", "current_trial": 255, "dateTime": 1513269118669, "trialdata": {"rt": -1, "stimulus": "<p id=\"stim\">TURKEY</p>", "key_press": -1, "type": "PRES_VIS", "word": "turkey", "wordID": 1519, "conditions": [24, 800, "v", 12000], "trial": 6, "serialpos": 18, "trial_type": "single-stim", "trial_index": 255, "time_elapsed": 1362635, "internal_node_id": "0.0-192.0"}}, {"uniqueid": "MTK1171:386CSBG1O0TNI8CQSL90K2LES7TQ6G", "current_trial": 256, "dateTime": 1513269120380, "trialdata": {"rt": -1, "stimulus": "<p id=\"stim\">ASIA</p>", "key_press": -1, "type": "PRES_VIS", "word": "asia", "wordID": 45, "conditions": [24, 800, "v", 12000], "trial": 6, "serialpos": 19, "trial_type": "single-stim", "trial_index": 256, "time_elapsed": 1364346, "internal_node_id": "0.0-193.0"}}, {"uniqueid": "MTK1171:386CSBG1O0TNI8CQSL90K2LES7TQ6G", "current_trial": 257, "dateTime": 1513269122170, "trialdata": {"rt": -1, "stimulus": "<p id=\"stim\">LASER</p>", "key_press": -1, "type": "PRES_VIS", "word": "laser", "wordID": 800, "conditions": [24, 800, "v", 12000], "trial": 6, "serialpos": 20, "trial_type": "single-stim", "trial_index": 257, "time_elapsed": 1366137, "internal_node_id": "0.0-194.0"}}, {"uniqueid": "MTK1171:386CSBG1O0TNI8CQSL90K2LES7TQ6G", "current_trial": 258, "dateTime": 1513269124033, "trialdata": {"rt": -1, "stimulus": "<p id=\"stim\">SNAKE</p>", "key_press": -1, "type": "PRES_VIS", "word": "snake", "wordID": 1332, "conditions": [24, 800, "v", 12000], "trial": 6, "serialpos": 21, "trial_type": "single-stim", "trial_index": 258, "time_elapsed": 1368000, "internal_node_id": "0.0-195.0"}}, {"uniqueid": "MTK1171:386CSBG1O0TNI8CQSL90K2LES7TQ6G", "current_trial": 259, "dateTime": 1513269125708, "trialdata": {"rt": -1, "stimulus": "<p id=\"stim\">PALACE</p>", "key_press": -1, "type": "PRES_VIS", "word": "palace", "wordID": 1005, "conditions": [24, 800, "v", 12000], "trial": 6, "serialpos": 22, "trial_type": "single-stim", "trial_index": 259, "time_elapsed": 1369674, "internal_node_id": "0.0-196.0"}}, {"uniqueid": "MTK1171:386CSBG1O0TNI8CQSL90K2LES7TQ6G", "current_trial": 260, "dateTime": 1513269127552, "trialdata": {"rt": -1, "stimulus": "<p id=\"stim\">CAFE</p>", "key_press": -1, "type": "PRES_VIS", "word": "cafe", "wordID": 215, "conditions": [24, 800, "v", 12000], "trial": 6, "serialpos": 23, "trial_type": "single-stim", "trial_index": 260, "time_elapsed": 1371519, "internal_node_id": "0.0-197.0"}}, {"uniqueid": "MTK1171:386CSBG1O0TNI8CQSL90K2LES7TQ6G", "current_trial": 261, "dateTime": 1513269129590, "trialdata": {"rt": -1, "stimulus": "", "key_press": -1, "type": "PRE_RECALL_DELAY", "trial_type": "single-stim", "trial_index": 261, "time_elapsed": 1373556, "internal_node_id": "0.0-198.0-0.0"}}, {"uniqueid": "MTK1171:386CSBG1O0TNI8CQSL90K2LES7TQ6G", "current_trial": 262, "dateTime": 1513269130094, "trialdata": {"rt": -1000, "stimulus": "/static/audio/400Hz.wav", "key_press": -1, "type": "PRE_RECALL_ALERT", "trial_type": "single-audio", "trial_index": 262, "time_elapsed": 1374060, "internal_node_id": "0.0-199.0"}}, {"uniqueid": "MTK1171:386CSBG1O0TNI8CQSL90K2LES7TQ6G", "current_trial": 263, "dateTime": 1513269190112, "trialdata": {"rt": [2212, 8493, 10902, 13283, 16445, 19199, 21505, 24863, 27668, 32044, 42595, 45647, 47917, 53000, 58564], "recwords": ["cafe", "palace", "cafe", "lunch", "omlet", "climber", "jury", "laser", "pigment", "picture", "jury", "preacher", "guide", "asia", "lunch"], "type": "FREE_RECALL", "conditions": [24, 800, "v", 12000], "trial": 6, "trial_type": "free-recall", "trial_index": 263, "time_elapsed": 1434067, "internal_node_id": "0.0-200.0-0.0"}}, {"uniqueid": "MTK1171:386CSBG1O0TNI8CQSL90K2LES7TQ6G", "current_trial": 264, "dateTime": 1513269193753, "trialdata": {"rt": 1636, "key_press": 32, "type": "INSTRUCTIONS", "trial_type": "text", "trial_index": 264, "time_elapsed": 1437719, "internal_node_id": "0.0-201.0"}}, {"uniqueid": "MTK1171:386CSBG1O0TNI8CQSL90K2LES7TQ6G", "current_trial": 265, "dateTime": 1513269207763, "trialdata": {"rt": [6721, 9785], "responses": ["15", "10"], "num1": [3, 3, 5], "num2": [4, 1, 2], "num3": [8, 6, 6], "type": "DISTRACTOR", "conditions": [12, 1600, "v", 12000], "trial": 7, "trial_type": "math-distractor", "trial_index": 265, "time_elapsed": 1451729, "internal_node_id": "0.0-202.0"}}, {"uniqueid": "MTK1171:386CSBG1O0TNI8CQSL90K2LES7TQ6G", "current_trial": 266, "dateTime": 1513269210766, "trialdata": {"rt": -1, "stimulus": "<p id=\"stim\">10</p>", "key_press": -1, "trial_type": "single-stim", "trial_index": 266, "time_elapsed": 1454733, "internal_node_id": "0.0-203.0-0.0"}}, {"uniqueid": "MTK1171:386CSBG1O0TNI8CQSL90K2LES7TQ6G", "current_trial": 267, "dateTime": 1513269211769, "trialdata": {"rt": -1, "stimulus": "<p id=\"stim\">9</p>", "key_press": -1, "trial_type": "single-stim", "trial_index": 267, "time_elapsed": 1455735, "internal_node_id": "0.0-203.0-1.0"}}, {"uniqueid": "MTK1171:386CSBG1O0TNI8CQSL90K2LES7TQ6G", "current_trial": 268, "dateTime": 1513269212771, "trialdata": {"rt": -1, "stimulus": "<p id=\"stim\">8</p>", "key_press": -1, "trial_type": "single-stim", "trial_index": 268, "time_elapsed": 1456738, "internal_node_id": "0.0-203.0-2.0"}}, {"uniqueid": "MTK1171:386CSBG1O0TNI8CQSL90K2LES7TQ6G", "current_trial": 269, "dateTime": 1513269213776, "trialdata": {"rt": -1, "stimulus": "<p id=\"stim\">7</p>", "key_press": -1, "trial_type": "single-stim", "trial_index": 269, "time_elapsed": 1457743, "internal_node_id": "0.0-203.0-3.0"}}, {"uniq