{"condition": 0, "counterbalance": 223, "assignmentId": "373ERPL3YPFTW7221D6T02NX8XCRTR", "workerId": "MTK1107", "hitId": "3APP19WN71LUIZKIZNZM14LS65B6G7", "currenttrial": 630, "bonus": 0, "data": [{"uniqueid": "MTK1107:373ERPL3YPFTW7221D6T02NX8XCRTR", "current_trial": 0, "dateTime": 1513110391771, "trialdata": {"rt": 33472, "key_press": 79, "type": "INSTRUCTIONS", "trial_type": "text", "trial_index": 0, "time_elapsed": 33475, "internal_node_id": "0.0-0.0"}}, {"uniqueid": "MTK1107:373ERPL3YPFTW7221D6T02NX8XCRTR", "current_trial": 1, "dateTime": 1513110411681, "trialdata": {"rt": 19907, "key_press": 75, "type": "INSTRUCTIONS", "trial_type": "text", "trial_index": 1, "time_elapsed": 53387, "internal_node_id": "0.0-1.0"}}, {"uniqueid": "MTK1107:373ERPL3YPFTW7221D6T02NX8XCRTR", "current_trial": 2, "dateTime": 1513110448359, "trialdata": {"rt": [36663], "responses": ["ocean"], "type": "AUDIO_TEST", "trial_type": "audio-test", "trial_index": 2, "time_elapsed": 90064, "internal_node_id": "0.0-2.0"}}, {"uniqueid": "MTK1107:373ERPL3YPFTW7221D6T02NX8XCRTR", "current_trial": 3, "dateTime": 1513110496166, "trialdata": {"rt": [47806], "responses": ["crystal"], "type": "AUDIO_TEST", "trial_type": "audio-test", "trial_index": 3, "time_elapsed": 137872, "internal_node_id": "0.0-3.0"}}, {"uniqueid": "MTK1107:373ERPL3YPFTW7221D6T02NX8XCRTR", "current_trial": 4, "dateTime": 1513110523215, "trialdata": {"rt": [27046], "responses": ["spice"], "type": "AUDIO_TEST", "trial_type": "audio-test", "trial_index": 4, "time_elapsed": 164921, "internal_node_id": "0.0-4.0"}}, {"uniqueid": "MTK1107:373ERPL3YPFTW7221D6T02NX8XCRTR", "current_trial": 5, "dateTime": 1513110604462, "trialdata": {"rt": 80493, "responses": "{\"Q0\":\"4 am\",\"Q1\":\"12 pm\",\"Q2\":\"5\"}", "type": "SLEEP_SURVEY", "trial_type": "survey-text", "trial_index": 5, "time_elapsed": 246168, "internal_node_id": "0.0-5.0"}}, {"uniqueid": "MTK1107:373ERPL3YPFTW7221D6T02NX8XCRTR", "current_trial": 6, "dateTime": 1513110673695, "trialdata": {"rt": 68232, "key_press": 76, "type": "INSTRUCTIONS", "trial_type": "text", "trial_index": 6, "time_elapsed": 315401, "internal_node_id": "0.0-6.0"}}, {"uniqueid": "MTK1107:373ERPL3YPFTW7221D6T02NX8XCRTR", "current_trial": 7, "dateTime": 1513110694735, "trialdata": {"rt": 20538, "key_press": 75, "type": "INSTRUCTIONS", "trial_type": "text", "trial_index": 7, "time_elapsed": 336441, "internal_node_id": "0.0-7.0"}}, {"uniqueid": "MTK1107:373ERPL3YPFTW7221D6T02NX8XCRTR", "current_trial": 8, "dateTime": 1513110718695, "trialdata": {"rt": 23458, "key_press": 76, "type": "INSTRUCTIONS", "trial_type": "text", "trial_index": 8, "time_elapsed": 360401, "internal_node_id": "0.0-8.0"}}, {"uniqueid": "MTK1107:373ERPL3YPFTW7221D6T02NX8XCRTR", "current_trial": 9, "dateTime": 1513110737704, "trialdata": {"rt": [7967], "responses": ["19"], "num1": [7, 8], "num2": [5, 7], "num3": [7, 1], "type": "DISTRACTOR", "conditions": [18, 1200, "v", 18000], "trial": 0, "trial_type": "math-distractor", "trial_index": 9, "time_elapsed": 379410, "internal_node_id": "0.0-9.0"}}, {"uniqueid": "MTK1107:373ERPL3YPFTW7221D6T02NX8XCRTR", "current_trial": 10, "dateTime": 1513110740709, "trialdata": {"rt": -1, "stimulus": "<p id=\"stim\">10</p>", "key_press": -1, "trial_type": "single-stim", "trial_index": 10, "time_elapsed": 382415, "internal_node_id": "0.0-10.0-0.0"}}, {"uniqueid": "MTK1107:373ERPL3YPFTW7221D6T02NX8XCRTR", "current_trial": 11, "dateTime": 1513110741710, "trialdata": {"rt": -1, "stimulus": "<p id=\"stim\">9</p>", "key_press": -1, "trial_type": "single-stim", "trial_index": 11, "time_elapsed": 383416, "internal_node_id": "0.0-10.0-1.0"}}, {"uniqueid": "MTK1107:373ERPL3YPFTW7221D6T02NX8XCRTR", "current_trial": 12, "dateTime": 1513110742712, "trialdata": {"rt": -1, "stimulus": "<p id=\"stim\">8</p>", "key_press": -1, "trial_type": "single-stim", "trial_index": 12, "time_elapsed": 384418, "internal_node_id": "0.0-10.0-2.0"}}, {"uniqueid": "MTK1107:373ERPL3YPFTW7221D6T02NX8XCRTR", "current_trial": 13, "dateTime": 1513110743714, "trialdata": {"rt": -1, "stimulus": "<p id=\"stim\">7</p>", "key_press": -1, "trial_type": "single-stim", "trial_index": 13, "time_elapsed": 385420, "internal_node_id": "0.0-10.0-3.0"}}, {"uniqueid": "MTK1107:373ERPL3YPFTW7221D6T02NX8XCRTR", "current_trial": 14, "dateTime": 1513110744715, "trialdata": {"rt": -1, "stimulus": "<p id=\"stim\">6</p>", "key_press": -1, "trial_type": "single-stim", "trial_index": 14, "time_elapsed": 386421, "internal_node_id": "0.0-10.0-4.0"}}, {"uniqueid": "MTK1107:373ERPL3YPFTW7221D6T02NX8XCRTR", "current_trial": 15, "dateTime": 1513110745718, "trialdata": {"rt": -1, "stimulus": "<p id=\"stim\">5</p>", "key_press": -1, "trial_type": "single-stim", "trial_index": 15, "time_elapsed": 387423, "internal_node_id": "0.0-10.0-5.0"}}, {"uniqueid": "MTK1107:373ERPL3YPFTW7221D6T02NX8XCRTR", "current_trial": 16, "dateTime": 1513110746719, "trialdata": {"rt": -1, "stimulus": "<p id=\"stim\">4</p>", "key_press": -1, "trial_type": "single-stim", "trial_index": 16, "time_elapsed": 388425, "internal_node_id": "0.0-10.0-6.0"}}, {"uniqueid": "MTK1107:373ERPL3YPFTW7221D6T02NX8XCRTR", "current_trial": 17, "dateTime": 1513110747721, "trialdata": {"rt": -1, "stimulus": "<p id=\"stim\">3</p>", "key_press": -1, "trial_type": "single-stim", "trial_index": 17, "time_elapsed": 389427, "internal_node_id": "0.0-10.0-7.0"}}, {"uniqueid": "MTK1107:373ERPL3YPFTW7221D6T02NX8XCRTR", "current_trial": 18, "dateTime": 1513110748723, "trialdata": {"rt": -1, "stimulus": "<p id=\"stim\">2</p>", "key_press": -1, "trial_type": "single-stim", "trial_index": 18, "time_elapsed": 390429, "internal_node_id": "0.0-10.0-8.0"}}, {"uniqueid": "MTK1107:373ERPL3YPFTW7221D6T02NX8XCRTR", "current_trial": 19, "dateTime": 1513110749724, "trialdata": {"rt": -1, "stimulus": "<p id=\"stim\">1</p>", "key_press": -1, "trial_type": "single-stim", "trial_index": 19, "time_elapsed": 391430, "internal_node_id": "0.0-10.0-9.0"}}, {"uniqueid": "MTK1107:373ERPL3YPFTW7221D6T02NX8XCRTR", "current_trial": 20, "dateTime": 1513110751226, "trialdata": {"rt": -1, "stimulus": "<p id=\"stim\">+</p>", "key_press": -1, "type": "FIXATION", "trial_type": "single-stim", "trial_index": 20, "time_elapsed": 392932, "internal_node_id": "0.0-11.0-0.0"}}, {"uniqueid": "MTK1107:373ERPL3YPFTW7221D6T02NX8XCRTR", "current_trial": 21, "dateTime": 1513110752428, "trialdata": {"rt": -1, "stimulus": "<p id=\"stim\">CLOCK</p>", "key_press": -1, "type": "PRES_VIS", "word": "clock", "wordID": 324, "conditions": [18, 1200, "v", 18000], "trial": 0, "serialpos": 0, "trial_type": "single-stim", "trial_index": 21, "time_elapsed": 394134, "internal_node_id": "0.0-12.0"}}, {"uniqueid": "MTK1107:373ERPL3YPFTW7221D6T02NX8XCRTR", "current_trial": 22, "dateTime": 1513110754792, "trialdata": {"rt": -1, "stimulus": "<p id=\"stim\">BRANDY</p>", "key_press": -1, "type": "PRES_VIS", "word": "brandy", "wordID": 168, "conditions": [18, 1200, "v", 18000], "trial": 0, "serialpos": 1, "trial_type": "single-stim", "trial_index": 22, "time_elapsed": 396498, "internal_node_id": "0.0-13.0"}}, {"uniqueid": "MTK1107:373ERPL3YPFTW7221D6T02NX8XCRTR", "current_trial": 23, "dateTime": 1513110757138, "trialdata": {"rt": -1, "stimulus": "<p id=\"stim\">BLUEPRINT</p>", "key_press": -1, "type": "PRES_VIS", "word": "blueprint", "wordID": 141, "conditions": [18, 1200, "v", 18000], "trial": 0, "serialpos": 2, "trial_type": "single-stim", "trial_index": 23, "time_elapsed": 398844, "internal_node_id": "0.0-14.0"}}, {"uniqueid": "MTK1107:373ERPL3YPFTW7221D6T02NX8XCRTR", "current_trial": 24, "dateTime": 1513110759477, "trialdata": {"rt": -1, "stimulus": "<p id=\"stim\">BASEMENT</p>", "key_press": -1, "type": "PRES_VIS", "word": "basement", "wordID": 93, "conditions": [18, 1200, "v", 18000], "trial": 0, "serialpos": 3, "trial_type": "single-stim", "trial_index": 24, "time_elapsed": 401183, "internal_node_id": "0.0-15.0"}}, {"uniqueid": "MTK1107:373ERPL3YPFTW7221D6T02NX8XCRTR", "current_trial": 25, "dateTime": 1513110761646, "trialdata": {"rt": -1, "stimulus": "<p id=\"stim\">GIRL</p>", "key_press": -1, "type": "PRES_VIS", "word": "girl", "wordID": 636, "conditions": [18, 1200, "v", 18000], "trial": 0, "serialpos": 4, "trial_type": "single-stim", "trial_index": 25, "time_elapsed": 403352, "internal_node_id": "0.0-16.0"}}, {"uniqueid": "MTK1107:373ERPL3YPFTW7221D6T02NX8XCRTR", "current_trial": 26, "dateTime": 1513110763982, "trialdata": {"rt": -1, "stimulus": "<p id=\"stim\">SCARF</p>", "key_press": -1, "type": "PRES_VIS", "word": "scarf", "wordID": 1245, "conditions": [18, 1200, "v", 18000], "trial": 0, "serialpos": 5, "trial_type": "single-stim", "trial_index": 26, "time_elapsed": 405688, "internal_node_id": "0.0-17.0"}}, {"uniqueid": "MTK1107:373ERPL3YPFTW7221D6T02NX8XCRTR", "current_trial": 27, "dateTime": 1513110766306, "trialdata": {"rt": -1, "stimulus": "<p id=\"stim\">HERO</p>", "key_press": -1, "type": "PRES_VIS", "word": "hero", "wordID": 705, "conditions": [18, 1200, "v", 18000], "trial": 0, "serialpos": 6, "trial_type": "single-stim", "trial_index": 27, "time_elapsed": 408012, "internal_node_id": "0.0-18.0"}}, {"uniqueid": "MTK1107:373ERPL3YPFTW7221D6T02NX8XCRTR", "current_trial": 28, "dateTime": 1513110768670, "trialdata": {"rt": -1, "stimulus": "<p id=\"stim\">BISON</p>", "key_press": -1, "type": "PRES_VIS", "word": "bison", "wordID": 130, "conditions": [18, 1200, "v", 18000], "trial": 0, "serialpos": 7, "trial_type": "single-stim", "trial_index": 28, "time_elapsed": 410376, "internal_node_id": "0.0-19.0"}}, {"uniqueid": "MTK1107:373ERPL3YPFTW7221D6T02NX8XCRTR", "current_trial": 29, "dateTime": 1513110771072, "trialdata": {"rt": -1, "stimulus": "<p id=\"stim\">SLOPE</p>", "key_press": -1, "type": "PRES_VIS", "word": "slope", "wordID": 1327, "conditions": [18, 1200, "v", 18000], "trial": 0, "serialpos": 8, "trial_type": "single-stim", "trial_index": 29, "time_elapsed": 412777, "internal_node_id": "0.0-20.0"}}, {"uniqueid": "MTK1107:373ERPL3YPFTW7221D6T02NX8XCRTR", "current_trial": 30, "dateTime": 1513110773231, "trialdata": {"rt": -1, "stimulus": "<p id=\"stim\">SPONGE</p>", "key_press": -1, "type": "PRES_VIS", "word": "sponge", "wordID": 1354, "conditions": [18, 1200, "v", 18000], "trial": 0, "serialpos": 9, "trial_type": "single-stim", "trial_index": 30, "time_elapsed": 414937, "internal_node_id": "0.0-21.0"}}, {"uniqueid": "MTK1107:373ERPL3YPFTW7221D6T02NX8XCRTR", "current_trial": 31, "dateTime": 1513110775558, "trialdata": {"rt": -1, "stimulus": "<p id=\"stim\">PIGMENT</p>", "key_press": -1, "type": "PRES_VIS", "word": "pigment", "wordID": 1065, "conditions": [18, 1200, "v", 18000], "trial": 0, "serialpos": 10, "trial_type": "single-stim", "trial_index": 31, "time_elapsed": 417264, "internal_node_id": "0.0-22.0"}}, {"uniqueid": "MTK1107:373ERPL3YPFTW7221D6T02NX8XCRTR", "current_trial": 32, "dateTime": 1513110777857, "trialdata": {"rt": -1, "stimulus": "<p id=\"stim\">ISLAND</p>", "key_press": -1, "type": "PRES_VIS", "word": "island", "wordID": 744, "conditions": [18, 1200, "v", 18000], "trial": 0, "serialpos": 11, "trial_type": "single-stim", "trial_index": 32, "time_elapsed": 419563, "internal_node_id": "0.0-23.0"}}, {"uniqueid": "MTK1107:373ERPL3YPFTW7221D6T02NX8XCRTR", "current_trial": 33, "dateTime": 1513110779974, "trialdata": {"rt": -1, "stimulus": "<p id=\"stim\">SILK</p>", "key_press": -1, "type": "PRES_VIS", "word": "silk", "wordID": 1306, "conditions": [18, 1200, "v", 18000], "trial": 0, "serialpos": 12, "trial_type": "single-stim", "trial_index": 33, "time_elapsed": 421680, "internal_node_id": "0.0-24.0"}}, {"uniqueid": "MTK1107:373ERPL3YPFTW7221D6T02NX8XCRTR", "current_trial": 34, "dateTime": 1513110782109, "trialdata": {"rt": -1, "stimulus": "<p id=\"stim\">ZIPPER</p>", "key_press": -1, "type": "PRES_VIS", "word": "zipper", "wordID": 1635, "conditions": [18, 1200, "v", 18000], "trial": 0, "serialpos": 13, "trial_type": "single-stim", "trial_index": 34, "time_elapsed": 423815, "internal_node_id": "0.0-25.0"}}, {"uniqueid": "MTK1107:373ERPL3YPFTW7221D6T02NX8XCRTR", "current_trial": 35, "dateTime": 1513110784258, "trialdata": {"rt": -1, "stimulus": "<p id=\"stim\">DOLPHIN</p>", "key_press": -1, "type": "PRES_VIS", "word": "dolphin", "wordID": 482, "conditions": [18, 1200, "v", 18000], "trial": 0, "serialpos": 14, "trial_type": "single-stim", "trial_index": 35, "time_elapsed": 425964, "internal_node_id": "0.0-26.0"}}, {"uniqueid": "MTK1107:373ERPL3YPFTW7221D6T02NX8XCRTR", "current_trial": 36, "dateTime": 1513110786285, "trialdata": {"rt": -1, "stimulus": "<p id=\"stim\">MASK</p>", "key_press": -1, "type": "PRES_VIS", "word": "mask", "wordID": 875, "conditions": [18, 1200, "v", 18000], "trial": 0, "serialpos": 15, "trial_type": "single-stim", "trial_index": 36, "time_elapsed": 427991, "internal_node_id": "0.0-27.0"}}, {"uniqueid": "MTK1107:373ERPL3YPFTW7221D6T02NX8XCRTR", "current_trial": 37, "dateTime": 1513110788510, "trialdata": {"rt": -1, "stimulus": "<p id=\"stim\">BUREAU</p>", "key_press": -1, "type": "PRES_VIS", "word": "bureau", "wordID": 198, "conditions": [18, 1200, "v", 18000], "trial": 0, "serialpos": 16, "trial_type": "single-stim", "trial_index": 37, "time_elapsed": 430216, "internal_node_id": "0.0-28.0"}}, {"uniqueid": "MTK1107:373ERPL3YPFTW7221D6T02NX8XCRTR", "current_trial": 38, "dateTime": 1513110790910, "trialdata": {"rt": -1, "stimulus": "<p id=\"stim\">SODA</p>", "key_press": -1, "type": "PRES_VIS", "word": "soda", "wordID": 1340, "conditions": [18, 1200, "v", 18000], "trial": 0, "serialpos": 17, "trial_type": "single-stim", "trial_index": 38, "time_elapsed": 432616, "internal_node_id": "0.0-29.0"}}, {"uniqueid": "MTK1107:373ERPL3YPFTW7221D6T02NX8XCRTR", "current_trial": 39, "dateTime": 1513110793357, "trialdata": {"rt": -1, "stimulus": "", "key_press": -1, "type": "PRE_RECALL_DELAY", "trial_type": "single-stim", "trial_index": 39, "time_elapsed": 435063, "internal_node_id": "0.0-30.0-0.0"}}, {"uniqueid": "MTK1107:373ERPL3YPFTW7221D6T02NX8XCRTR", "current_trial": 40, "dateTime": 1513110793861, "trialdata": {"rt": -1000, "stimulus": "/static/audio/400Hz.wav", "key_press": -1, "type": "PRE_RECALL_ALERT", "trial_type": "single-audio", "trial_index": 40, "time_elapsed": 435566, "internal_node_id": "0.0-31.0"}}, {"uniqueid": "MTK1107:373ERPL3YPFTW7221D6T02NX8XCRTR", "current_trial": 41, "dateTime": 1513110853868, "trialdata": {"rt": [10672, 33847, 53310], "recwords": ["silk", "dolphin", "basement"], "type": "FREE_RECALL", "conditions": [18, 1200, "v", 18000], "trial": 0, "trial_type": "free-recall", "trial_index": 41, "time_elapsed": 495570, "internal_node_id": "0.0-32.0-0.0"}}, {"uniqueid": "MTK1107:373ERPL3YPFTW7221D6T02NX8XCRTR", "current_trial": 42, "dateTime": 1513110858310, "trialdata": {"rt": 2440, "key_press": 70, "type": "INSTRUCTIONS", "trial_type": "text", "trial_index": 42, "time_elapsed": 500016, "internal_node_id": "0.0-33.0"}}, {"uniqueid": "MTK1107:373ERPL3YPFTW7221D6T02NX8XCRTR", "current_trial": 43, "dateTime": 1513110878315, "trialdata": {"rt": [16085], "responses": ["14"], "num1": [8, 3], "num2": [3, 2], "num3": [3, 6], "type": "DISTRACTOR", "conditions": [18, 1200, "a", 18000], "trial": 1, "trial_type": "math-distractor", "trial_index": 43, "time_elapsed": 520021, "internal_node_id": "0.0-34.0"}}, {"uniqueid": "MTK1107:373ERPL3YPFTW7221D6T02NX8XCRTR", "current_trial": 44, "dateTime": 1513110881317, "trialdata": {"rt": -1, "stimulus": "<p id=\"stim\">10</p>", "key_press": -1, "trial_type": "single-stim", "trial_index": 44, "time_elapsed": 523023, "internal_node_id": "0.0-35.0-0.0"}}, {"uniqueid": "MTK1107:373ERPL3YPFTW7221D6T02NX8XCRTR", "current_trial": 45, "dateTime": 1513110882318, "trialdata": {"rt": -1, "stimulus": "<p id=\"stim\">9</p>", "key_press": -1, "trial_type": "single-stim", "trial_index": 45, "time_elapsed": 524024, "internal_node_id": "0.0-35.0-1.0"}}, {"uniqueid": "MTK1107:373ERPL3YPFTW7221D6T02NX8XCRTR", "current_trial": 46, "dateTime": 1513110883319, "trialdata": {"rt": -1, "stimulus": "<p id=\"stim\">8</p>", "key_press": -1, "trial_type": "single-stim", "trial_index": 46, "time_elapsed": 525025, "internal_node_id": "0.0-35.0-2.0"}}, {"uniqueid": "MTK1107:373ERPL3YPFTW7221D6T02NX8XCRTR", "current_trial": 47, "dateTime": 1513110884321, "trialdata": {"rt": -1, "stimulus": "<p id=\"stim\">7</p>", "key_press": -1, "trial_type": "single-stim", "trial_index": 47, "time_elapsed": 526027, "internal_node_id": "0.0-35.0-3.0"}}, {"uniqueid": "MTK1107:373ERPL3YPFTW7221D6T02NX8XCRTR", "current_trial": 48, "dateTime": 1513110885322, "trialdata": {"rt": -1, "stimulus": "<p id=\"stim\">6</p>", "key_press": -1, "trial_type": "single-stim", "trial_index": 48, "time_elapsed": 527028, "internal_node_id": "0.0-35.0-4.0"}}, {"uniqueid": "MTK1107:373ERPL3YPFTW7221D6T02NX8XCRTR", "current_trial": 49, "dateTime": 1513110886324, "trialdata": {"rt": -1, "stimulus": "<p id=\"stim\">5</p>", "key_press": -1, "trial_type": "single-stim", "trial_index": 49, "time_elapsed": 528030, "internal_node_id": "0.0-35.0-5.0"}}, {"uniqueid": "MTK1107:373ERPL3YPFTW7221D6T02NX8XCRTR", "current_trial": 50, "dateTime": 1513110887325, "trialdata": {"rt": -1, "stimulus": "<p id=\"stim\">4</p>", "key_press": -1, "trial_type": "single-stim", "trial_index": 50, "time_elapsed": 529031, "internal_node_id": "0.0-35.0-6.0"}}, {"uniqueid": "MTK1107:373ERPL3YPFTW7221D6T02NX8XCRTR", "current_trial": 51, "dateTime": 1513110888327, "trialdata": {"rt": -1, "stimulus": "<p id=\"stim\">3</p>", "key_press": -1, "trial_type": "single-stim", "trial_index": 51, "time_elapsed": 530033, "internal_node_id": "0.0-35.0-7.0"}}, {"uniqueid": "MTK1107:373ERPL3YPFTW7221D6T02NX8XCRTR", "current_trial": 52, "dateTime": 1513110889328, "trialdata": {"rt": -1, "stimulus": "<p id=\"stim\">2</p>", "key_press": -1, "trial_type": "single-stim", "trial_index": 52, "time_elapsed": 531034, "internal_node_id": "0.0-35.0-8.0"}}, {"uniqueid": "MTK1107:373ERPL3YPFTW7221D6T02NX8XCRTR", "current_trial": 53, "dateTime": 1513110890330, "trialdata": {"rt": -1, "stimulus": "<p id=\"stim\">1</p>", "key_press": -1, "trial_type": "single-stim", "trial_index": 53, "time_elapsed": 532036, "internal_node_id": "0.0-35.0-9.0"}}, {"uniqueid": "MTK1107:373ERPL3YPFTW7221D6T02NX8XCRTR", "current_trial": 54, "dateTime": 1513110891832, "trialdata": {"rt": -1, "stimulus": "<p id=\"stim\">+</p>", "key_press": -1, "type": "FIXATION", "trial_type": "single-stim", "trial_index": 54, "time_elapsed": 533538, "internal_node_id": "0.0-36.0-0.0"}}, {"uniqueid": "MTK1107:373ERPL3YPFTW7221D6T02NX8XCRTR", "current_trial": 55, "dateTime": 1513110893866, "trialdata": {"rt": -1000, "stimulus": "/static/audio/wordpool/FRIEND.wav", "key_press": -1, "type": "PRES_AUD", "word": "friend", "wordID": 605, "conditions": [18, 1200, "a", 18000], "trial": 1, "serialpos": 0, "trial_type": "single-audio", "trial_index": 55, "time_elapsed": 535572, "internal_node_id": "0.0-37.0"}}, {"uniqueid": "MTK1107:373ERPL3YPFTW7221D6T02NX8XCRTR", "current_trial": 56, "dateTime": 1513110896172, "trialdata": {"rt": -1000, "stimulus": "/static/audio/wordpool/WHISTLE.wav", "key_press": -1, "type": "PRES_AUD", "word": "whistle", "wordID": 1605, "conditions": [18, 1200, "a", 18000], "trial": 1, "serialpos": 1, "trial_type": "single-audio", "trial_index": 56, "time_elapsed": 537878, "internal_node_id": "0.0-38.0"}}, {"uniqueid": "MTK1107:373ERPL3YPFTW7221D6T02NX8XCRTR", "current_trial": 57, "dateTime": 1513110898344, "trialdata": {"rt": -1000, "stimulus": "/static/audio/wordpool/LASER.wav", "key_press": -1, "type": "PRES_AUD", "word": "laser", "wordID": 800, "conditions": [18, 1200, "a", 18000], "trial": 1, "serialpos": 2, "trial_type": "single-audio", "trial_index": 57, "time_elapsed": 540049, "internal_node_id": "0.0-39.0"}}, {"uniqueid": "MTK1107:373ERPL3YPFTW7221D6T02NX8XCRTR", "current_trial": 58, "dateTime": 1513110900480, "trialdata": {"rt": -1000, "stimulus": "/static/audio/wordpool/HOOK.wav", "key_press": -1, "type": "PRES_AUD", "word": "hook", "wordID": 714, "conditions": [18, 1200, "a", 18000], "trial": 1, "serialpos": 3, "trial_type": "single-audio", "trial_index": 58, "time_elapsed": 542186, "internal_node_id": "0.0-40.0"}}, {"uniqueid": "MTK1107:373ERPL3YPFTW7221D6T02NX8XCRTR", "current_trial": 59, "dateTime": 1513110902704, "trialdata": {"rt": -1000, "stimulus": "/static/audio/wordpool/PORK.wav", "key_press": -1, "type": "PRES_AUD", "word": "pork", "wordID": 1107, "conditions": [18, 1200, "a", 18000], "trial": 1, "serialpos": 4, "trial_type": "single-audio", "trial_index": 59, "time_elapsed": 544409, "internal_node_id": "0.0-41.0"}}, {"uniqueid": "MTK1107:373ERPL3YPFTW7221D6T02NX8XCRTR", "current_trial": 60, "dateTime": 1513110904990, "trialdata": {"rt": -1000, "stimulus": "/static/audio/wordpool/HORNET.wav", "key_press": -1, "type": "PRES_AUD", "word": "hornet", "wordID": 717, "conditions": [18, 1200, "a", 18000], "trial": 1, "serialpos": 5, "trial_type": "single-audio", "trial_index": 60, "time_elapsed": 546696, "internal_node_id": "0.0-42.0"}}, {"uniqueid": "MTK1107:373ERPL3YPFTW7221D6T02NX8XCRTR", "current_trial": 61, "dateTime": 1513110907388, "trialdata": {"rt": -1000, "stimulus": "/static/audio/wordpool/BLENDER.wav", "key_press": -1, "type": "PRES_AUD", "word": "blender", "wordID": 135, "conditions": [18, 1200, "a", 18000], "trial": 1, "serialpos": 6, "trial_type": "single-audio", "trial_index": 61, "time_elapsed": 549092, "internal_node_id": "0.0-43.0"}}, {"uniqueid": "MTK1107:373ERPL3YPFTW7221D6T02NX8XCRTR", "current_trial": 62, "dateTime": 1513110909628, "trialdata": {"rt": -1000, "stimulus": "/static/audio/wordpool/DRIVER.wav", "key_press": -1, "type": "PRES_AUD", "word": "driver", "wordID": 498, "conditions": [18, 1200, "a", 18000], "trial": 1, "serialpos": 7, "trial_type": "single-audio", "trial_index": 62, "time_elapsed": 551334, "internal_node_id": "0.0-44.0"}}, {"uniqueid": "MTK1107:373ERPL3YPFTW7221D6T02NX8XCRTR", "current_trial": 63, "dateTime": 1513110911630, "trialdata": {"rt": -1000, "stimulus": "/static/audio/wordpool/OINTMENT.wav", "key_press": -1, "type": "PRES_AUD", "word": "ointment", "wordID": 973, "conditions": [18, 1200, "a", 18000], "trial": 1, "serialpos": 8, "trial_type": "single-audio", "trial_index": 63, "time_elapsed": 553336, "internal_node_id": "0.0-45.0"}}, {"uniqueid": "MTK1107:373ERPL3YPFTW7221D6T02NX8XCRTR", "current_trial": 64, "dateTime": 1513110913935, "trialdata": {"rt": -1000, "stimulus": "/static/audio/wordpool/GROUND.wav", "key_press": -1, "type": "PRES_AUD", "word": "ground", "wordID": 665, "conditions": [18, 1200, "a", 18000], "trial": 1, "serialpos": 9, "trial_type": "single-audio", "trial_index": 64, "time_elapsed": 555640, "internal_node_id": "0.0-46.0"}}, {"uniqueid": "MTK1107:373ERPL3YPFTW7221D6T02NX8XCRTR", "current_trial": 65, "dateTime": 1513110915995, "trialdata": {"rt": -1000, "stimulus": "/static/audio/wordpool/DENTIST.wav", "key_press": -1, "type": "PRES_AUD", "word": "dentist", "wordID": 446, "conditions": [18, 1200, "a", 18000], "trial": 1, "serialpos": 10, "trial_type": "single-audio", "trial_index": 65, "time_elapsed": 557701, "internal_node_id": "0.0-47.0"}}, {"uniqueid": "MTK1107:373ERPL3YPFTW7221D6T02NX8XCRTR", "current_trial": 66, "dateTime": 1513110918383, "trialdata": {"rt": -1000, "stimulus": "/static/audio/wordpool/BROOK.wav", "key_press": -1, "type": "PRES_AUD", "word": "brook", "wordID": 176, "conditions": [18, 1200, "a", 18000], "trial": 1, "serialpos": 11, "trial_type": "single-audio", "trial_index": 66, "time_elapsed": 560089, "internal_node_id": "0.0-48.0"}}, {"uniqueid": "MTK1107:373ERPL3YPFTW7221D6T02NX8XCRTR", "current_trial": 67, "dateTime": 1513110920503, "trialdata": {"rt": -1000, "stimulus": "/static/audio/wordpool/TUNNEL.wav", "key_press": -1, "type": "PRES_AUD", "word": "tunnel", "wordID": 1518, "conditions": [18, 1200, "a", 18000], "trial": 1, "serialpos": 12, "trial_type": "single-audio", "trial_index": 67, "time_elapsed": 562209, "internal_node_id": "0.0-49.0"}}, {"uniqueid": "MTK1107:373ERPL3YPFTW7221D6T02NX8XCRTR", "current_trial": 68, "dateTime": 1513110922733, "trialdata": {"rt": -1000, "stimulus": "/static/audio/wordpool/BEAVER.wav", "key_press": -1, "type": "PRES_AUD", "word": "beaver", "wordID": 108, "conditions": [18, 1200, "a", 18000], "trial": 1, "serialpos": 13, "trial_type": "single-audio", "trial_index": 68, "time_elapsed": 564435, "internal_node_id": "0.0-50.0"}}, {"uniqueid": "MTK1107:373ERPL3YPFTW7221D6T02NX8XCRTR", "current_trial": 69, "dateTime": 1513110924956, "trialdata": {"rt": -1000, "stimulus": "/static/audio/wordpool/SWITCH.wav", "key_press": -1, "type": "PRES_AUD", "word": "switch", "wordID": 1421, "conditions": [18, 1200, "a", 18000], "trial": 1, "serialpos": 14, "trial_type": "single-audio", "trial_index": 69, "time_elapsed": 566662, "internal_node_id": "0.0-51.0"}}, {"uniqueid": "MTK1107:373ERPL3YPFTW7221D6T02NX8XCRTR", "current_trial": 70, "dateTime": 1513110927152, "trialdata": {"rt": -1000, "stimulus": "/static/audio/wordpool/DIVER.wav", "key_press": -1, "type": "PRES_AUD", "word": "diver", "wordID": 475, "conditions": [18, 1200, "a", 18000], "trial": 1, "serialpos": 15, "trial_type": "single-audio", "trial_index": 70, "time_elapsed": 568858, "internal_node_id": "0.0-52.0"}}, {"uniqueid": "MTK1107:373ERPL3YPFTW7221D6T02NX8XCRTR", "current_trial": 71, "dateTime": 1513110929444, "trialdata": {"rt": -1000, "stimulus": "/static/audio/wordpool/WOMAN.wav", "key_press": -1, "type": "PRES_AUD", "word": "woman", "wordID": 1619, "conditions": [18, 1200, "a", 18000], "trial": 1, "serialpos": 16, "trial_type": "single-audio", "trial_index": 71, "time_elapsed": 571149, "internal_node_id": "0.0-53.0"}}, {"uniqueid": "MTK1107:373ERPL3YPFTW7221D6T02NX8XCRTR", "current_trial": 72, "dateTime": 1513110931604, "trialdata": {"rt": -1000, "stimulus": "/static/audio/wordpool/SUITCASE.wav", "key_press": -1, "type": "PRES_AUD", "word": "suitcase", "wordID": 1402, "conditions": [18, 1200, "a", 18000], "trial": 1, "serialpos": 17, "trial_type": "single-audio", "trial_index": 72, "time_elapsed": 573309, "internal_node_id": "0.0-54.0"}}, {"uniqueid": "MTK1107:373ERPL3YPFTW7221D6T02NX8XCRTR", "current_trial": 73, "dateTime": 1513110932987, "trialdata": {"rt": -1, "stimulus": "", "key_press": -1, "type": "PRE_RECALL_DELAY", "trial_type": "single-stim", "trial_index": 73, "time_elapsed": 574693, "internal_node_id": "0.0-55.0-0.0"}}, {"uniqueid": "MTK1107:373ERPL3YPFTW7221D6T02NX8XCRTR", "current_trial": 74, "dateTime": 1513110933489, "trialdata": {"rt": -1000, "stimulus": "/static/audio/400Hz.wav", "key_press": -1, "type": "PRE_RECALL_ALERT", "trial_type": "single-audio", "trial_index": 74, "time_elapsed": 575195, "internal_node_id": "0.0-56.0"}}, {"uniqueid": "MTK1107:373ERPL3YPFTW7221D6T02NX8XCRTR", "current_trial": 75, "dateTime": 1513110993497, "trialdata": {"rt": [15450, 38179, 43779, 49827], "recwords": ["woman", "suitcase", "diver", "book"], "type": "FREE_RECALL", "conditions": [18, 1200, "a", 18000], "trial": 1, "trial_type": "free-recall", "trial_index": 75, "time_elapsed": 635200, "internal_node_id": "0.0-57.0-0.0"}}, {"uniqueid": "MTK1107:373ERPL3YPFTW7221D6T02NX8XCRTR", "current_trial": 76, "dateTime": 1513110995797, "trialdata": {"rt": 293, "key_press": 79, "type": "INSTRUCTIONS", "trial_type": "text", "trial_index": 76, "time_elapsed": 637497, "internal_node_id": "0.0-58.0"}}, {"uniqueid": "MTK1107:373ERPL3YPFTW7221D6T02NX8XCRTR", "current_trial": 77, "dateTime": 1513111020800, "trialdata": {"rt": [3783, 7335], "responses": ["11", "13"], "num1": [1, 1, 4], "num2": [4, 4, 3], "num3": [6, 8, 8], "type": "DISTRACTOR", "conditions": [12, 800, "v", 24000], "trial": 2, "trial_type": "math-distractor", "trial_index": 77, "time_elapsed": 662506, "internal_node_id": "0.0-59.0"}}, {"uniqueid": "MTK1107:373ERPL3YPFTW7221D6T02NX8XCRTR", "current_trial": 78, "dateTime": 1513111023803, "trialdata": {"rt": -1, "stimulus": "<p id=\"stim\">10</p>", "key_press": -1, "trial_type": "single-stim", "trial_index": 78, "time_elapsed": 665509, "internal_node_id": "0.0-60.0-0.0"}}, {"uniqueid": "MTK1107:373ERPL3YPFTW7221D6T02NX8XCRTR", "current_trial": 79, "dateTime": 1513111024804, "trialdata": {"rt": -1, "stimulus": "<p id=\"stim\">9</p>", "key_press": -1, "trial_type": "single-stim", "trial_index": 79, "time_elapsed": 666510, "internal_node_id": "0.0-60.0-1.0"}}, {"uniqueid": "MTK1107:373ERPL3YPFTW7221D6T02NX8XCRTR", "current_trial": 80, "dateTime": 1513111025805, "trialdata": {"rt": -1, "stimulus": "<p id=\"stim\">8</p>", "key_press": -1, "trial_type": "single-stim", "trial_index": 80, "time_elapsed": 667511, "internal_node_id": "0.0-60.0-2.0"}}, {"uniqueid": "MTK1107:373ERPL3YPFTW7221D6T02NX8XCRTR", "current_trial": 81, "dateTime": 1513111026807, "trialdata": {"rt": -1, "stimulus": "<p id=\"stim\">7</p>", "key_press": -1, "trial_type": "single-stim", "trial_index": 81, "time_elapsed": 668513, "internal_node_id": "0.0-60.0-3.0"}}, {"uniqueid": "MTK1107:373ERPL3YPFTW7221D6T02NX8XCRTR", "current_trial": 82, "dateTime": 1513111027809, "trialdata": {"rt": -1, "stimulus": "<p id=\"stim\">6</p>", "key_press": -1, "trial_type": "single-stim", "trial_index": 82, "time_elapsed": 669515, "internal_node_id": "0.0-60.0-4.0"}}, {"uniqueid": "MTK1107:373ERPL3YPFTW7221D6T02NX8XCRTR", "current_trial": 83, "dateTime": 1513111028810, "trialdata": {"rt": -1, "stimulus": "<p id=\"stim\">5</p>", "key_press": -1, "trial_type": "single-stim", "trial_index": 83, "time_elapsed": 670516, "internal_node_id": "0.0-60.0-5.0"}}, {"uniqueid": "MTK1107:373ERPL3YPFTW7221D6T02NX8XCRTR", "current_trial": 84, "dateTime": 1513111029812, "trialdata": {"rt": -1, "stimulus": "<p id=\"stim\">4</p>", "key_press": -1, "trial_type": "single-stim", "trial_index": 84, "time_elapsed": 671518, "internal_node_id": "0.0-60.0-6.0"}}, {"uniqueid": "MTK1107:373ERPL3YPFTW7221D6T02NX8XCRTR", "current_trial": 85, "dateTime": 1513111030813, "trialdata": {"rt": -1, "stimulus": "<p id=\"stim\">3</p>", "key_press": -1, "trial_type": "single-stim", "trial_index": 85, "time_elapsed": 672519, "internal_node_id": "0.0-60.0-7.0"}}, {"uniqueid": "MTK1107:373ERPL3YPFTW7221D6T02NX8XCRTR", "current_trial": 86, "dateTime": 1513111031814, "trialdata": {"rt": -1, "stimulus": "<p id=\"stim\">2</p>", "key_press": -1, "trial_type": "single-stim", "trial_index": 86, "time_elapsed": 673520, "internal_node_id": "0.0-60.0-8.0"}}, {"uniqueid": "MTK1107:373ERPL3YPFTW7221D6T02NX8XCRTR", "current_trial": 87, "dateTime": 1513111032817, "trialdata": {"rt": -1, "stimulus": "<p id=\"stim\">1</p>", "key_press": -1, "trial_type": "single-stim", "trial_index": 87, "time_elapsed": 674522, "internal_node_id": "0.0-60.0-9.0"}}, {"uniqueid": "MTK1107:373ERPL3YPFTW7221D6T02NX8XCRTR", "current_trial": 88, "dateTime": 1513111034318, "trialdata": {"rt": -1, "stimulus": "<p id=\"stim\">+</p>", "key_press": -1, "type": "FIXATION", "trial_type": "single-stim", "trial_index": 88, "time_elapsed": 676024, "internal_node_id": "0.0-61.0-0.0"}}, {"uniqueid": "MTK1107:373ERPL3YPFTW7221D6T02NX8XCRTR", "current_trial": 89, "dateTime": 1513111035119, "trialdata": {"rt": -1, "stimulus": "<p id=\"stim\">SALMON</p>", "key_press": -1, "type": "PRES_VIS", "word": "salmon", "wordID": 1226, "conditions": [12, 800, "v", 24000], "trial": 2, "serialpos": 0, "trial_type": "single-stim", "trial_index": 89, "time_elapsed": 676825, "internal_node_id": "0.0-62.0"}}, {"uniqueid": "MTK1107:373ERPL3YPFTW7221D6T02NX8XCRTR", "current_trial": 90, "dateTime": 1513111036957, "trialdata": {"rt": -1, "stimulus": "<p id=\"stim\">WARDROBE</p>", "key_press": -1, "type": "PRES_VIS", "word": "wardrobe", "wordID": 1586, "conditions": [12, 800, "v", 24000], "trial": 2, "serialpos": 1, "trial_type": "single-stim", "trial_index": 90, "time_elapsed": 678663, "internal_node_id": "0.0-63.0"}}, {"uniqueid": "MTK1107:373ERPL3YPFTW7221D6T02NX8XCRTR", "current_trial": 91, "dateTime": 1513111038838, "trialdata": {"rt": -1, "stimulus": "<p id=\"stim\">FRAGRANCE</p>", "key_press": -1, "type": "PRES_VIS", "word": "fragrance", "wordID": 598, "conditions": [12, 800, "v", 24000], "trial": 2, "serialpos": 2, "trial_type": "single-stim", "trial_index": 91, "time_elapsed": 680544, "internal_node_id": "0.0-64.0"}}, {"uniqueid": "MTK1107:373ERPL3YPFTW7221D6T02NX8XCRTR", "current_trial": 92, "dateTime": 1513111040754, "trialdata": {"rt": -1, "stimulus": "<p id=\"stim\">PRINCESS</p>", "key_press": -1, "type": "PRES_VIS", "word": "princess", "wordID": 1124, "conditions": [12, 800, "v", 24000], "trial": 2, "serialpos": 3, "trial_type": "single-stim", "trial_index": 92, "time_elapsed": 682460, "internal_node_id": "0.0-65.0"}}, {"uniqueid": "MTK1107:373ERPL3YPFTW7221D6T02NX8XCRTR", "current_trial": 93, "dateTime": 1513111042579, "trialdata": {"rt": -1, "stimulus": "<p id=\"stim\">SISTER</p>", "key_press": -1, "type": "PRES_VIS", "word": "sister", "wordID": 1311, "conditions": [12, 800, "v", 24000], "trial": 2, "serialpos": 4, "trial_type": "single-stim", "trial_index": 93, "time_elapsed": 684285, "internal_node_id": "0.0-66.0"}}, {"uniqueid": "MTK1107:373ERPL3YPFTW7221D6T02NX8XCRTR", "current_trial": 94, "dateTime": 1513111044225, "trialdata": {"rt": -1, "stimulus": "<p id=\"stim\">UNCLE</p>", "key_press": -1, "type": "PRES_VIS", "word": "uncle", "wordID": 1535, "conditions": [12, 800, "v", 24000], "trial": 2, "serialpos": 5, "trial_type": "single-stim", "trial_index": 94, "time_elapsed": 685931, "internal_node_id": "0.0-67.0"}}, {"uniqueid": "MTK1107:373ERPL3YPFTW7221D6T02NX8XCRTR", "current_trial": 95, "dateTime": 1513111046034, "trialdata": {"rt": -1, "stimulus": "<p id=\"stim\">QUEEN</p>", "key_press": -1, "type": "PRES_VIS", "word": "queen", "wordID": 1148, "conditions": [12, 800, "v", 24000], "trial": 2, "serialpos": 6, "trial_type": "single-stim", "trial_index": 95, "time_elapsed": 687740, "internal_node_id": "0.0-68.0"}}, {"uniqueid": "MTK1107:373ERPL3YPFTW7221D6T02NX8XCRTR", "current_trial": 96, "dateTime": 1513111047793, "trialdata": {"rt": -1, "stimulus": "<p id=\"stim\">PUDDING</p>", "key_press": -1, "type": "PRES_VIS", "word": "pudding", "wordID": 1138, "conditions": [12, 800, "v", 24000], "trial": 2, "serialpos": 7, "trial_type": "single-stim", "trial_index": 96, "time_elapsed": 689499, "internal_node_id": "0.0-69.0"}}, {"uniqueid": "MTK1107:373ERPL3YPFTW7221D6T02NX8XCRTR", "current_trial": 97, "dateTime": 1513111049479, "trialdata": {"rt": -1, "stimulus": "<p id=\"stim\">CLIMBER</p>", "key_press": -1, "type": "PRES_VIS", "word": "climber", "wordID": 322, "conditions": [12, 800, "v", 24000], "trial": 2, "serialpos": 8, "trial_type": "single-stim", "trial_index": 97, "time_elapsed": 691185, "internal_node_id": "0.0-70.0"}}, {"uniqueid": "MTK1107:373ERPL3YPFTW7221D6T02NX8XCRTR", "current_trial": 98, "dateTime": 1513111051448, "trialdata": {"rt": -1, "stimulus": "<p id=\"stim\">HEADBAND</p>", "key_press": -1, "type": "PRES_VIS", "word": "headband", "wordID": 695, "conditions": [12, 800, "v", 24000], "trial": 2, "serialpos": 9, "trial_type": "single-stim", "trial_index": 98, "time_elapsed": 693154, "internal_node_id": "0.0-71.0"}}, {"uniqueid": "MTK1107:373ERPL3YPFTW7221D6T02NX8XCRTR", "current_trial": 99, "dateTime": 1513111053398, "trialdata": {"rt": -1, "stimulus": "<p id=\"stim\">CRAYON</p>", "key_press": -1, "type": "PRES_VIS", "word": "crayon", "wordID": 400, "conditions": [12, 800, "v", 24000], "trial": 2, "serialpos": 10, "trial_type": "single-stim", "trial_index": 99, "time_elapsed": 695104, "internal_node_id": "0.0-72.0"}}, {"uniqueid": "MTK1107:373ERPL3YPFTW7221D6T02NX8XCRTR", "current_trial": 100, "dateTime": 1513111055029, "trialdata": {"rt": -1, "stimulus": "<p id=\"stim\">SALAD</p>", "key_press": -1, "type": "PRES_VIS", "word": "salad", "wordID": 1223, "conditions": [12, 800, "v", 24000], "trial": 2, "serialpos": 11, "trial_type": "single-stim", "trial_index": 100, "time_elapsed": 696735, "internal_node_id": "0.0-73.0"}}, {"uniqueid": "MTK1107:373ERPL3YPFTW7221D6T02NX8XCRTR", "current_trial": 101, "dateTime": 1513111057442, "trialdata": {"rt": -1, "stimulus": "", "key_press": -1, "type": "PRE_RECALL_DELAY", "trial_type": "single-stim", "trial_index": 101, "time_elapsed": 699146, "internal_node_id": "0.0-74.0-0.0"}}, {"uniqueid": "MTK1107:373ERPL3YPFTW7221D6T02NX8XCRTR", "current_trial": 102, "dateTime": 1513111057945, "trialdata": {"rt": -1000, "stimulus": "/static/audio/400Hz.wav", "key_press": -1, "type": "PRE_RECALL_ALERT", "trial_type": "single-audio", "trial_index": 102, "time_elapsed": 699651, "internal_node_id": "0.0-75.0"}}, {"uniqueid": "MTK1107:373ERPL3YPFTW7221D6T02NX8XCRTR", "current_trial": 103, "dateTime": 1513111117951, "trialdata": {"rt": [20258, 36506, 45546], "recwords": ["queen", "sister", "pudding"], "type": "FREE_RECALL", "conditions": [12, 800, "v", 24000], "trial": 2, "trial_type": "free-recall", "trial_index": 103, "time_elapsed": 759654, "internal_node_id": "0.0-76.0-0.0"}}, {"uniqueid": "MTK1107:373ERPL3YPFTW7221D6T02NX8XCRTR", "current_trial": 104, "dateTime": 1513111121455, "trialdata": {"rt": 1501, "key_press": 72, "type": "INSTRUCTIONS", "trial_type": "text", "trial_index": 104, "time_elapsed": 763160, "internal_node_id": "0.0-77.0"}}, {"uniqueid": "MTK1107:373ERPL3YPFTW7221D6T02NX8XCRTR", "current_trial": 105, "dateTime": 1513111147459, "trialdata": {"rt": [4181, 8389, 20965], "responses": ["7", "13", "17"], "num1": [4, 2, 1, 1], "num2": [2, 8, 9, 1], "num3": [1, 3, 7, 8], "type": "DISTRACTOR", "conditions": [24, 800, "v", 24000], "trial": 3, "trial_type": "math-distractor", "trial_index": 105, "time_elapsed": 789164, "internal_node_id": "0.0-78.0"}}, {"uniqueid": "MTK1107:373ERPL3YPFTW7221D6T02NX8XCRTR", "current_trial": 106, "dateTime": 1513111150462, "trialdata": {"rt": -1, "stimulus": "<p id=\"stim\">10</p>", "key_press": -1, "trial_type": "single-stim", "trial_index": 106, "time_elapsed": 792168, "internal_node_id": "0.0-79.0-0.0"}}, {"uniqueid": "MTK1107:373ERPL3YPFTW7221D6T02NX8XCRTR", "current_trial": 107, "dateTime": 1513111151463, "trialdata": {"rt": -1, "stimulus": "<p id=\"stim\">9</p>", "key_press": -1, "trial_type": "single-stim", "trial_index": 107, "time_elapsed": 793169, "internal_node_id": "0.0-79.0-1.0"}}, {"uniqueid": "MTK1107:373ERPL3YPFTW7221D6T02NX8XCRTR", "current_trial": 108, "dateTime": 1513111152465, "trialdata": {"rt": -1, "stimulus": "<p id=\"stim\">8</p>", "key_press": -1, "trial_type": "single-stim", "trial_index": 108, "time_elapsed": 794171, "internal_node_id": "0.0-79.0-2.0"}}, {"uniqueid": "MTK1107:373ERPL3YPFTW7221D6T02NX8XCRTR", "current_trial": 109, "dateTime": 1513111153466, "trialdata": {"rt": -1, "stimulus": "<p id=\"stim\">7</p>", "key_press": -1, "trial_type": "single-stim", "trial_index": 109, "time_elapsed": 795172, "internal_node_id": "0.0-79.0-3.0"}}, {"uniqueid": "MTK1107:373ERPL3YPFTW7221D6T02NX8XCRTR", "current_trial": 110, "dateTime": 1513111154468, "trialdata": {"rt": -1, "stimulus": "<p id=\"stim\">6</p>", "key_press": -1, "trial_type": "single-stim", "trial_index": 110, "time_elapsed": 796174, "internal_node_id": "0.0-79.0-4.0"}}, {"uniqueid": "MTK1107:373ERPL3YPFTW7221D6T02NX8XCRTR", "current_trial": 111, "dateTime": 1513111155470, "trialdata": {"rt": -1, "stimulus": "<p id=\"stim\">5</p>", "key_press": -1, "trial_type": "single-stim", "trial_index": 111, "time_elapsed": 797176, "internal_node_id": "0.0-79.0-5.0"}}, {"uniqueid": "MTK1107:373ERPL3YPFTW7221D6T02NX8XCRTR", "current_trial": 112, "dateTime": 1513111156471, "trialdata": {"rt": -1, "stimulus": "<p id=\"stim\">4</p>", "key_press": -1, "trial_type": "single-stim", "trial_index": 112, "time_elapsed": 798177, "internal_node_id": "0.0-79.0-6.0"}}, {"uniqueid": "MTK1107:373ERPL3YPFTW7221D6T02NX8XCRTR", "current_trial": 113, "dateTime": 1513111157473, "trialdata": {"rt": -1, "stimulus": "<p id=\"stim\">3</p>", "key_press": -1, "trial_type": "single-stim", "trial_index": 113, "time_elapsed": 799179, "internal_node_id": "0.0-79.0-7.0"}}, {"uniqueid": "MTK1107:373ERPL3YPFTW7221D6T02NX8XCRTR", "current_trial": 114, "dateTime": 1513111158474, "trialdata": {"rt": -1, "stimulus": "<p id=\"stim\">2</p>", "key_press": -1, "trial_type": "single-stim", "trial_index": 114, "time_elapsed": 800180, "internal_node_id": "0.0-79.0-8.0"}}, {"uniqueid": "MTK1107:373ERPL3YPFTW7221D6T02NX8XCRTR", "current_trial": 115, "dateTime": 1513111159476, "trialdata": {"rt": -1, "stimulus": "<p id=\"stim\">1</p>", "key_press": -1, "trial_type": "single-stim", "trial_index": 115, "time_elapsed": 801182, "internal_node_id": "0.0-79.0-9.0"}}, {"uniqueid": "MTK1107:373ERPL3YPFTW7221D6T02NX8XCRTR", "current_trial": 116, "dateTime": 1513111160977, "trialdata": {"rt": -1, "stimulus": "<p id=\"stim\">+</p>", "key_press": -1, "type": "FIXATION", "trial_type": "single-stim", "trial_index": 116, "time_elapsed": 802683, "internal_node_id": "0.0-80.0-0.0"}}, {"uniqueid": "MTK1107:373ERPL3YPFTW7221D6T02NX8XCRTR", "current_trial": 117, "dateTime": 1513111161778, "trialdata": {"rt": -1, "stimulus": "<p id=\"stim\">CUSTARD</p>", "key_press": -1, "type": "PRES_VIS", "word": "custard", "wordID": 428, "conditions": [24, 800, "v", 24000], "trial": 3, "serialpos": 0, "trial_type": "single-stim", "trial_index": 117, "time_elapsed": 803484, "internal_node_id": "0.0-81.0"}}, {"uniqueid": "MTK1107:373ERPL3YPFTW7221D6T02NX8XCRTR", "current_trial": 118, "dateTime": 1513111163401, "trialdata": {"rt": -1, "stimulus": "<p id=\"stim\">LIVER</p>", "key_press": -1, "type": "PRES_VIS", "word": "liver", "wordID": 832, "conditions": [24, 800, "v", 24000], "trial": 3, "serialpos": 1, "trial_type": "single-stim", "trial_index": 118, "time_elapsed": 805107, "internal_node_id": "0.0-82.0"}}, {"uniqueid": "MTK1107:373ERPL3YPFTW7221D6T02NX8XCRTR", "current_trial": 119, "dateTime": 1513111165311, "trialdata": {"rt": -1, "stimulus": "<p id=\"stim\">GYMNAST</p>", "key_press": -1, "type": "PRES_VIS", "word": "gymnast", "wordID": 674, "conditions": [24, 800, "v", 24000], "trial": 3, "serialpos": 2, "trial_type": "single-stim", "trial_index": 119, "time_elapsed": 807017, "internal_node_id": "0.0-83.0"}}, {"uniqueid": "MTK1107:373ERPL3YPFTW7221D6T02NX8XCRTR", "current_trial": 120, "dateTime": 1513111167305, "trialdata": {"rt": -1, "stimulus": "<p id=\"stim\">DORM</p>", "key_press": -1, "type": "PRES_VIS", "word": "dorm", "wordID": 487, "conditions": [24, 800, "v", 24000], "trial": 3, "serialpos": 3, "trial_type": "single-stim", "trial_index": 120, "time_elapsed": 809011, "internal_node_id": "0.0-84.0"}}, {"uniqueid": "MTK1107:373ERPL3YPFTW7221D6T02NX8XCRTR", "current_trial": 121, "dateTime": 1513111169024, "trialdata": {"rt": -1, "stimulus": "<p id=\"stim\">JELLY</p>", "key_press": -1, "type": "PRES_VIS", "word": "jelly", "wordID": 754, "conditions": [24, 800, "v", 24000], "trial": 3, "serialpos": 4, "trial_type": "single-stim", "trial_index": 121, "time_elapsed": 810730, "internal_node_id": "0.0-85.0"}}, {"uniqueid": "MTK1107:373ERPL3YPFTW7221D6T02NX8XCRTR", "current_trial": 122, "dateTime": 1513111170932, "trialdata": {"rt": -1, "stimulus": "<p id=\"stim\">PIGEON</p>", "key_press": -1, "type": "PRES_VIS", "word": "pigeon", "wordID": 1064, "conditions": [24, 800, "v", 24000], "trial": 3, "serialpos": 5, "trial_type": "single-stim", "trial_index": 122, "time_elapsed": 812638, "internal_node_id": "0.0-86.0"}}, {"uniqueid": "MTK1107:373ERPL3YPFTW7221D6T02NX8XCRTR", "current_trial": 123, "dateTime": 1513111172927, "trialdata": {"rt": -1, "stimulus": "<p id=\"stim\">VIRUS</p>", "key_press": -1, "type": "PRES_VIS", "word": "virus", "wordID": 1571, "conditions": [24, 800, "v", 24000], "trial": 3, "serialpos": 6, "trial_type": "single-stim", "trial_index": 123, "time_elapsed": 814633, "internal_node_id": "0.0-87.0"}}, {"uniqueid": "MTK1107:373ERPL3YPFTW7221D6T02NX8XCRTR", "current_trial": 124, "dateTime": 1513111174853, "trialdata": {"rt": -1, "stimulus": "<p id=\"stim\">COTTAGE</p>", "key_press": -1, "type": "PRES_VIS", "word": "cottage", "wordID": 383, "conditions": [24, 800, "v", 24000], "trial": 3, "serialpos": 7, "trial_type": "single-stim", "trial_index": 124, "time_elapsed": 816559, "internal_node_id": "0.0-88.0"}}, {"uniqueid": "MTK1107:373ERPL3YPFTW7221D6T02NX8XCRTR", "current_trial": 125, "dateTime": 1513111176594, "trialdata": {"rt": -1, "stimulus": "<p id=\"stim\">VALLEY</p>", "key_press": -1, "type": "PRES_VIS", "word": "valley", "wordID": 1544, "conditions": [24, 800, "v", 24000], "trial": 3, "serialpos": 8, "trial_type": "single-stim", "trial_index": 125, "time_elapsed": 818300, "internal_node_id": "0.0-89.0"}}, {"uniqueid": "MTK1107:373ERPL3YPFTW7221D6T02NX8XCRTR", "current_trial": 126, "dateTime": 1513111178477, "trialdata": {"rt": -1, "stimulus": "<p id=\"stim\">SWIMMER</p>", "key_press": -1, "type": "PRES_VIS", "word": "swimmer", "wordID": 1419, "conditions": [24, 800, "v", 24000], "trial": 3, "serialpos": 9, "trial_type": "single-stim", "trial_index": 126, "time_elapsed": 820183, "internal_node_id": "0.0-90.0"}}, {"uniqueid": "MTK1107:373ERPL3YPFTW7221D6T02NX8XCRTR", "current_trial": 127, "dateTime": 1513111180085, "trialdata": {"rt": -1, "stimulus": "<p id=\"stim\">PIMPLE</p>", "key_press": -1, "type": "PRES_VIS", "word": "pimple", "wordID": 1070, "conditions": [24, 800, "v", 24000], "trial": 3, "serialpos": 10, "trial_type": "single-stim", "trial_index": 127, "time_elapsed": 821791, "internal_node_id": "0.0-91.0"}}, {"uniqueid": "MTK1107:373ERPL3YPFTW7221D6T02NX8XCRTR", "current_trial": 128, "dateTime": 1513111181954, "trialdata": {"rt": -1, "stimulus": "<p id=\"stim\">FRECKLE</p>", "key_press": -1, "type": "PRES_VIS", "word": "freckle", "wordID": 601, "conditions": [24, 800, "v", 24000], "trial": 3, "serialpos": 11, "trial_type": "single-stim", "trial_index": 128, "time_elapsed": 823660, "internal_node_id": "0.0-92.0"}}, {"uniqueid": "MTK1107:373ERPL3YPFTW7221D6T02NX8XCRTR", "current_trial": 129, "dateTime": 1513111183871, "trialdata": {"rt": -1, "stimulus": "<p id=\"stim\">WINDOW</p>", "key_press": -1, "type": "PRES_VIS", "word": "window", "wordID": 1610, "conditions": [24, 800, "v", 24000], "trial": 3, "serialpos": 12, "trial_type": "single-stim", "trial_index": 129, "time_elapsed": 825577, "internal_node_id": "0.0-93.0"}}, {"uniqueid": "MTK1107:373ERPL3YPFTW7221D6T02NX8XCRTR", "current_trial": 130, "dateTime": 1513111185689, "trialdata": {"rt": -1, "stimulus": "<p id=\"stim\">CABBAGE</p>", "key_press": -1, "type": "PRES_VIS", "word": "cabbage", "wordID": 209, "conditions": [24, 800, "v", 24000], "trial": 3, "serialpos": 13, "trial_type": "single-stim", "trial_index": 130, "time_elapsed": 827395, "internal_node_id": "0.0-94.0"}}, {"uniqueid": "MTK1107:373ERPL3YPFTW7221D6T02NX8XCRTR", "current_trial": 131, "dateTime": 1513111187502, "trialdata": {"rt": -1, "stimulus": "<p id=\"stim\">COFFEE</p>", "key_press": -1, "type": "PRES_VIS", "word": "coffee", "wordID": 340, "conditions": [24, 800, "v", 24000], "trial": 3, "serialpos": 14, "trial_type": "single-stim", "trial_index": 131, "time_elapsed": 829208, "internal_node_id": "0.0-95.0"}}, {"uniqueid": "MTK1107:373ERPL3YPFTW7221D6T02NX8XCRTR", "current_trial": 132, "dateTime": 1513111189125, "trialdata": {"rt": -1, "stimulus": "<p id=\"stim\">ROOSTER</p>", "key_press": -1, "type": "PRES_VIS", "word": "rooster", "wordID": 1208, "conditions": [24, 800, "v", 24000], "trial": 3, "serialpos": 15, "trial_type": "single-stim", "trial_index": 132, "time_elapsed": 830831, "internal_node_id": "0.0-96.0"}}, {"uniqueid": "MTK1107:373ERPL3YPFTW7221D6T02NX8XCRTR", "current_trial": 133, "dateTime": 1513111190763, "trialdata": {"rt": -1, "stimulus": "<p id=\"stim\">SUNRISE</p>", "key_press": -1, "type": "PRES_VIS", "word": "sunrise", "wordID": 1406, "conditions": [24, 800, "v", 24000], "trial": 3, "serialpos": 16, "trial_type": "single-stim", "trial_index": 133, "time_elapsed": 832469, "internal_node_id": "0.0-97.0"}}, {"uniqueid": "MTK1107:373ERPL3YPFTW7221D6T02NX8XCRTR", "current_trial": 134, "dateTime": 1513111192681, "trialdata": {"rt": -1, "stimulus": "<p id=\"stim\">SUNSET</p>", "key_press": -1, "type": "PRES_VIS", "word": "sunset", "wordID": 1407, "conditions": [24, 800, "v", 24000], "trial": 3, "serialpos": 17, "trial_type": "single-stim", "trial_index": 134, "time_elapsed": 834387, "internal_node_id": "0.0-98.0"}}, {"uniqueid": "MTK1107:373ERPL3YPFTW7221D6T02NX8XCRTR", "current_trial": 135, "dateTime": 1513111194452, "trialdata": {"rt": -1, "stimulus": "<p id=\"stim\">RABBIT</p>", "key_press": -1, "type": "PRES_VIS", "word": "rabbit", "wordID": 1151, "conditions": [24, 800, "v", 24000], "trial": 3, "serialpos": 18, "trial_type": "single-stim", "trial_index": 135, "time_elapsed": 836158, "internal_node_id": "0.0-99.0"}}, {"uniqueid": "MTK1107:373ERPL3YPFTW7221D6T02NX8XCRTR", "current_trial": 136, "dateTime": 1513111196158, "trialdata": {"rt": -1, "stimulus": "<p id=\"stim\">STICKER</p>", "key_press": -1, "type": "PRES_VIS", "word": "sticker", "wordID": 1381, "conditions": [24, 800, "v", 24000], "trial": 3, "serialpos": 19, "trial_type": "single-stim", "trial_index": 136, "time_elapsed": 837864, "internal_node_id": "0.0-100.0"}}, {"uniqueid": "MTK1107:373ERPL3YPFTW7221D6T02NX8XCRTR", "current_trial": 137, "dateTime": 1513111198030, "trialdata": {"rt": -1, "stimulus": "<p id=\"stim\">FIREPLACE</p>", "key_press": -1, "type": "PRES_VIS", "word": "fireplace", "wordID": 569, "conditions": [24, 800, "v", 24000], "trial": 3, "serialpos": 20, "trial_type": "single-stim", "trial_index": 137, "time_elapsed": 839736, "internal_node_id": "0.0-101.0"}}, {"uniqueid": "MTK1107:373ERPL3YPFTW7221D6T02NX8XCRTR", "current_trial": 138, "dateTime": 1513111200027, "trialdata": {"rt": -1, "stimulus": "<p id=\"stim\">KEEPER</p>", "key_press": -1, "type": "PRES_VIS", "word": "keeper", "wordID": 768, "conditions": [24, 800, "v", 24000], "trial": 3, "serialpos": 21, "trial_type": "single-stim", "trial_index": 138, "time_elapsed": 841733, "internal_node_id": "0.0-102.0"}}, {"uniqueid": "MTK1107:373ERPL3YPFTW7221D6T02NX8XCRTR", "current_trial": 139, "dateTime": 1513111201800, "trialdata": {"rt": -1, "stimulus": "<p id=\"stim\">PEPPER</p>", "key_press": -1, "type": "PRES_VIS", "word": "pepper", "wordID": 1046, "conditions": [24, 800, "v", 24000], "trial": 3, "serialpos": 22, "trial_type": "single-stim", "trial_index": 139, "time_elapsed": 843506, "internal_node_id": "0.0-103.0"}}, {"uniqueid": "MTK1107:373ERPL3YPFTW7221D6T02NX8XCRTR", "current_trial": 140, "dateTime": 1513111203558, "trialdata": {"rt": -1, "stimulus": "<p id=\"stim\">PARTNER</p>", "key_press": -1, "type": "PRES_VIS", "word": "partner", "wordID": 1016, "conditions": [24, 800, "v", 24000], "trial": 3, "serialpos": 23, "trial_type": "single-stim", "trial_index": 140, "time_elapsed": 845264, "internal_node_id": "0.0-104.0"}}, {"uniqueid": "MTK1107:373ERPL3YPFTW7221D6T02NX8XCRTR", "current_trial": 141, "dateTime": 1513111206002, "trialdata": {"rt": -1, "stimulus": "", "key_press": -1, "type": "PRE_RECALL_DELAY", "trial_type": "single-stim", "trial_index": 141, "time_elapsed": 847708, "internal_node_id": "0.0-105.0-0.0"}}, {"uniqueid": "MTK1107:373ERPL3YPFTW7221D6T02NX8XCRTR", "current_trial": 142, "dateTime": 1513111206503, "trialdata": {"rt": -1000, "stimulus": "/static/audio/400Hz.wav", "key_press": -1, "type": "PRE_RECALL_ALERT", "trial_type": "single-audio", "trial_index": 142, "time_elapsed": 848209, "internal_node_id": "0.0-106.0"}}, {"uniqueid": "MTK1107:373ERPL3YPFTW7221D6T02NX8XCRTR", "current_trial": 143, "dateTime": 1513111266512, "trialdata": {"rt": [14692, 23732, 39484, 58269], "recwords": ["dorm", "keeper", "swimmer", "pimple"], "type": "FREE_RECALL", "conditions": [24, 800, "v", 24000], "trial": 3, "trial_type": "free-recall", "trial_index": 143, "time_elapsed": 908214, "internal_node_id": "0.0-107.0-0.0"}}, {"uniqueid": "MTK1107:373ERPL3YPFTW7221D6T02NX8XCRTR", "current_trial": 144, "dateTime": 1513111270407, "trialdata": {"rt": 1894, "key_press": 70, "type": "INSTRUCTIONS", "trial_type": "text", "trial_index": 144, "time_elapsed": 912113, "internal_node_id": "0.0-108.0"}}, {"uniqueid": "MTK1107:373ERPL3YPFTW7221D6T02NX8XCRTR", "current_trial": 145, "dateTime": 1513111284412, "trialdata": {"rt": [3437, 7733], "responses": ["12", "22"], "num1": [2, 9, 3], "num2": [3, 4, 8], "num3": [7, 9, 5], "type": "DISTRACTOR", "conditions": [24, 1600, "v", 12000], "trial": 4, "trial_type": "math-distractor", "trial_index": 145, "time_elapsed": 926118, "internal_node_id": "0.0-109.0"}}, {"uniqueid": "MTK1107:373ERPL3YPFTW7221D6T02NX8XCRTR", "current_trial": 146, "dateTime": 1513111287413, "trialdata": {"rt": -1, "stimulus": "<p id=\"stim\">10</p>", "key_press": -1, "trial_type": "single-stim", "trial_index": 146, "time_elapsed": 929119, "internal_node_id": "0.0-110.0-0.0"}}, {"uniqueid": "MTK1107:373ERPL3YPFTW7221D6T02NX8XCRTR", "current_trial": 147, "dateTime": 1513111288415, "trialdata": {"rt": -1, "stimulus": "<p id=\"stim\">9</p>", "key_press": -1, "trial_type": "single-stim", "trial_index": 147, "time_elapsed": 930121, "internal_node_id": "0.0-110.0-1.0"}}, {"uniqueid": "MTK1107:373ERPL3YPFTW7221D6T02NX8XCRTR", "current_trial": 148, "dateTime": 1513111289419, "trialdata": {"rt": -1, "stimulus": "<p id=\"stim\">8</p>", "key_press": -1, "trial_type": "single-stim", "trial_index": 148, "time_elapsed": 931123, "internal_node_id": "0.0-110.0-2.0"}}, {"uniqueid": "MTK1107:373ERPL3YPFTW7221D6T02NX8XCRTR", "current_trial": 149, "dateTime": 1513111290421, "trialdata": {"rt": -1, "stimulus": "<p id=\"stim\">7</p>", "key_press": -1, "trial_type": "single-stim", "trial_index": 149, "time_elapsed": 932127, "internal_node_id": "0.0-110.0-3.0"}}, {"uniqueid": "MTK1107:373ERPL3YPFTW7221D6T02NX8XCRTR", "current_trial": 150, "dateTime": 1513111291422, "trialdata": {"rt": -1, "stimulus": "<p id=\"stim\">6</p>", "key_press": -1, "trial_type": "single-stim", "trial_index": 150, "time_elapsed": 933128, "internal_node_id": "0.0-110.0-4.0"}}, {"uniqueid": "MTK1107:373ERPL3YPFTW7221D6T02NX8XCRTR", "current_trial": 151, "dateTime": 1513111292423, "trialdata": {"rt": -1, "stimulus": "<p id=\"stim\">5</p>", "key_press": -1, "trial_type": "single-stim", "trial_index": 151, "time_elapsed": 934129, "internal_node_id": "0.0-110.0-5.0"}}, {"uniqueid": "MTK1107:373ERPL3YPFTW7221D6T02NX8XCRTR", "current_trial": 152, "dateTime": 1513111293425, "trialdata": {"rt": -1, "stimulus": "<p id=\"stim\">4</p>", "key_press": -1, "trial_type": "single-stim", "trial_index": 152, "time_elapsed": 935131, "internal_node_id": "0.0-110.0-6.0"}}, {"uniqueid": "MTK1107:373ERPL3YPFTW7221D6T02NX8XCRTR", "current_trial": 153, "dateTime": 1513111294426, "trialdata": {"rt": -1, "stimulus": "<p id=\"stim\">3</p>", "key_press": -1, "trial_type": "single-stim", "trial_index": 153, "time_elapsed": 936132, "internal_node_id": "0.0-110.0-7.0"}}, {"uniqueid": "MTK1107:373ERPL3YPFTW7221D6T02NX8XCRTR", "current_trial": 154, "dateTime": 1513111295428, "trialdata": {"rt": -1, "stimulus": "<p id=\"stim\">2</p>", "key_press": -1, "trial_type": "single-stim", "trial_index": 154, "time_elapsed": 937134, "internal_node_id": "0.0-110.0-8.0"}}, {"uniqueid": "MTK1107:373ERPL3YPFTW7221D6T02NX8XCRTR", "current_trial": 155, "dateTime": 1513111296430, "trialdata": {"rt": -1, "stimulus": "<p id=\"stim\">1</p>", "key_press": -1, "trial_type": "single-stim", "trial_index": 155, "time_elapsed": 938136, "internal_node_id": "0.0-110.0-9.0"}}, {"uniqueid": "MTK1107:373ERPL3YPFTW7221D6T02NX8XCRTR", "current_trial": 156, "dateTime": 1513111297931, "trialdata": {"rt": -1, "stimulus": "<p id=\"stim\">+</p>", "key_press": -1, "type": "FIXATION", "trial_type": "single-stim", "trial_index": 156, "time_elapsed": 939637, "internal_node_id": "0.0-111.0-0.0"}}, {"uniqueid": "MTK1107:373ERPL3YPFTW7221D6T02NX8XCRTR", "current_trial": 157, "dateTime": 1513111299533, "trialdata": {"rt": -1, "stimulus": "<p id=\"stim\">PLAZA</p>", "key_press": -1, "type": "PRES_VIS", "word": "plaza", "wordID": 1087, "conditions": [24, 1600, "v", 12000], "trial": 4, "serialpos": 0, "trial_type": "single-stim", "trial_index": 157, "time_elapsed": 941239, "internal_node_id": "0.0-112.0"}}, {"uniqueid": "MTK1107:373ERPL3YPFTW7221D6T02NX8XCRTR", "current_trial": 158, "dateTime": 1513111302196, "trialdata": {"rt": -1, "stimulus": "<p id=\"stim\">TRACTOR</p>", "key_press": -1, "type": "PRES_VIS", "word": "tractor", "wordID": 1492, "conditions": [24, 1600, "v", 12000], "trial": 4, "serialpos": 1, "trial_type": "single-stim", "trial_index": 158, "time_elapsed": 943902, "internal_node_id": "0.0-113.0"}}, {"uniqueid": "MTK1107:373ERPL3YPFTW7221D6T02NX8XCRTR", "current_trial": 159, "dateTime": 1513111304788, "trialdata": {"rt": -1, "stimulus": "<p id=\"stim\">TWEEZERS</p>", "key_press": -1, "type": "PRES_VIS", "word": "tweezers", "wordID": 1525, "conditions": [24, 1600, "v", 12000], "trial": 4, "serialpos": 2, "trial_type": "single-stim", "trial_index": 159, "time_elapsed": 946494, "internal_node_id": "0.0-114.0"}}, {"uniqueid": "MTK1107:373ERPL3YPFTW7221D6T02NX8XCRTR", "current_trial": 160, "dateTime": 1513111307380, "trialdata": {"rt": -1, "stimulus": "<p id=\"stim\">PLIERS</p>", "key_press": -1, "type": "PRES_VIS", "word": "pliers", "wordID": 1088, "conditions": [24, 1600, "v", 12000], "trial": 4, "serialpos": 3, "trial_type": "single-stim", "trial_index": 160, "time_elapsed": 949086, "internal_node_id": "0.0-115.0"}}, {"uniqueid": "MTK1107:373ERPL3YPFTW7221D6T02NX8XCRTR", "current_trial": 161, "dateTime": 1513111309846, "trialdata": {"rt": -1, "stimulus": "<p id=\"stim\">STAPLE</p>", "key_press": -1, "type": "PRES_VIS", "word": "staple", "wordID": 1370, "conditions": [24, 1600, "v", 12000], "trial": 4, "serialpos": 4, "trial_type": "single-stim", "trial_index": 161, "time_elapsed": 951552, "internal_node_id": "0.0-116.0"}}, {"uniqueid": "MTK1107:373ERPL3YPFTW7221D6T02NX8XCRTR", "current_trial": 162, "dateTime": 1513111312592, "trialdata": {"rt": -1, "stimulus": "<p id=\"stim\">MUFFIN</p>", "key_press": -1, "type": "PRES_VIS", "word": "muffin", "wordID": 928, "conditions": [24, 1600, "v", 12000], "trial": 4, "serialpos": 5, "trial_type": "single-stim", "trial_index": 162, "time_elapsed": 954298, "internal_node_id": "0.0-117.0"}}, {"uniqueid": "MTK1107:373ERPL3YPFTW7221D6T02NX8XCRTR", "current_trial": 163, "dateTime": 1513111315238, "trialdata": {"rt": -1, "stimulus": "<p id=\"stim\">HOOD</p>", "key_press": -1, "type": "PRES_VIS", "word": "hood", "wordID": 713, "conditions": [24, 1600, "v", 12000], "trial": 4, "serialpos": 6, "trial_type": "single-stim", "trial_index": 163, "time_elapsed": 956944, "internal_node_id": "0.0-118.0"}}, {"uniqueid": "MTK1107:373ERPL3YPFTW7221D6T02NX8XCRTR", "current_trial": 164, "dateTime": 1513111317884, "trialdata": {"rt": -1, "stimulus": "<p id=\"stim\">CRIB</p>", "key_press": -1, "type": "PRES_VIS", "word": "crib", "wordID": 406, "conditions": [24, 1600, "v", 12000], "trial": 4, "serialpos": 7, "trial_type": "single-stim", "trial_index": 164, "time_elapsed": 959590, "internal_node_id": "0.0-119.0"}}, {"uniqueid": "MTK1107:373ERPL3YPFTW7221D6T02NX8XCRTR", "current_trial": 165, "dateTime": 1513111320426, "trialdata": {"rt": -1, "stimulus": "<p id=\"stim\">CRUTCH</p>", "key_press": -1, "type": "PRES_VIS", "word": "crutch", "wordID": 416, "conditions": [24, 1600, "v", 12000], "trial": 4, "serialpos": 8, "trial_type": "single-stim", "trial_index": 165, "time_elapsed": 962132, "internal_node_id": "0.0-120.0"}}, {"uniqueid": "MTK1107:373ERPL3YPFTW7221D6T02NX8XCRTR", "current_trial": 166, "dateTime": 1513111322953, "trialdata": {"rt": -1, "stimulus": "<p id=\"stim\">MUMMY</p>", "key_press": -1, "type": "PRES_VIS", "word": "mummy", "wordID": 931, "conditions": [24, 1600, "v", 12000], "trial": 4, "serialpos": 9, "trial_type": "single-stim", "trial_index": 166, "time_elapsed": 964659, "internal_node_id": "0.0-121.0"}}, {"uniqueid": "MTK1107:373ERPL3YPFTW7221D6T02NX8XCRTR", "current_trial": 167, "dateTime": 1513111325524, "trialdata": {"rt": -1, "stimulus": "<p id=\"stim\">SIDEWALK</p>", "key_press": -1, "type": "PRES_VIS", "word": "sidewalk", "wordID": 1302, "conditions": [24, 1600, "v", 12000], "trial": 4, "serialpos": 10, "trial_type": "single-stim", "trial_index": 167, "time_elapsed": 967230, "internal_node_id": "0.0-122.0"}}, {"uniqueid": "MTK1107:373ERPL3YPFTW7221D6T02NX8XCRTR", "current_trial": 168, "dateTime": 1513111328137, "trialdata": {"rt": -1, "stimulus": "<p id=\"stim\">LETTUCE</p>", "key_press": -1, "type": "PRES_VIS", "word": "lettuce", "wordID": 813, "conditions": [24, 1600, "v", 12000], "trial": 4, "serialpos": 11, "trial_type": "single-stim", "trial_index": 168, "time_elapsed": 969843, "internal_node_id": "0.0-123.0"}}, {"uniqueid": "MTK1107:373ERPL3YPFTW7221D6T02NX8XCRTR", "current_trial": 169, "dateTime": 1513111330556, "trialdata": {"rt": -1, "stimulus": "<p id=\"stim\">RADISH</p>", "key_press": -1, "type": "PRES_VIS", "word": "radish", "wordID": 1157, "conditions": [24, 1600, "v", 12000], "trial": 4, "serialpos": 12, "trial_type": "single-stim", "trial_index": 169, "time_elapsed": 972262, "internal_node_id": "0.0-124.0"}}, {"uniqueid": "MTK1107:373ERPL3YPFTW7221D6T02NX8XCRTR", "current_trial": 170, "dateTime": 1513111333224, "trialdata": {"rt": -1, "stimulus": "<p id=\"stim\">ACTOR</p>", "key_press": -1, "type": "PRES_VIS", "word": "actor", "wordID": 4, "conditions": [24, 1600, "v", 12000], "trial": 4, "serialpos": 13, "trial_type": "single-stim", "trial_index": 170, "time_elapsed": 974930, "internal_node_id": "0.0-125.0"}}, {"uniqueid": "MTK1107:373ERPL3YPFTW7221D6T02NX8XCRTR", "current_trial": 171, "dateTime": 1513111335709, "trialdata": {"rt": -1, "stimulus": "<p id=\"stim\">ACTRESS</p>", "key_press": -1, "type": "PRES_VIS", "word": "actress", "wordID": 5, "conditions": [24, 1600, "v", 12000], "trial": 4, "serialpos": 14, "trial_type": "single-stim", "trial_index": 171, "time_elapsed": 977415, "internal_node_id": "0.0-126.0"}}, {"uniqueid": "MTK1107:373ERPL3YPFTW7221D6T02NX8XCRTR", "current_trial": 172, "dateTime": 1513111338353, "trialdata": {"rt": -1, "stimulus": "<p id=\"stim\">DONKEY</p>", "key_press": -1, "type": "PRES_VIS", "word": "donkey", "wordID": 483, "conditions": [24, 1600, "v", 12000], "trial": 4, "serialpos": 15, "trial_type": "single-stim", "trial_index": 172, "time_elapsed": 980059, "internal_node_id": "0.0-127.0"}}, {"uniqueid": "MTK1107:373ERPL3YPFTW7221D6T02NX8XCRTR", "current_trial": 173, "dateTime": 1513111340852, "trialdata": {"rt": -1, "stimulus": "<p id=\"stim\">PALACE</p>", "key_press": -1, "type": "PRES_VIS", "word": "palace", "wordID": 1005, "conditions": [24, 1600, "v", 12000], "trial": 4, "serialpos": 16, "trial_type": "single-stim", "trial_index": 173, "time_elapsed": 982558, "internal_node_id": "0.0-128.0"}}, {"uniqueid": "MTK1107:373ERPL3YPFTW7221D6T02NX8XCRTR", "current_trial": 174, "dateTime": 1513111343257, "trialdata": {"rt": -1, "stimulus": "<p id=\"stim\">ONION</p>", "key_press": -1, "type": "PRES_VIS", "word": "onion", "wordID": 976, "conditions": [24, 1600, "v", 12000], "trial": 4, "serialpos": 17, "trial_type": "single-stim", "trial_index": 174, "time_elapsed": 984963, "internal_node_id": "0.0-129.0"}}, {"uniqueid": "MTK1107:373ERPL3YPFTW7221D6T02NX8XCRTR", "current_trial": 175, "dateTime": 1513111345929, "trialdata": {"rt": -1, "stimulus": "<p id=\"stim\">MISTER</p>", "key_press": -1, "type": "PRES_VIS", "word": "mister", "wordID": 900, "conditions": [24, 1600, "v", 12000], "trial": 4, "serialpos": 18, "trial_type": "single-stim", "trial_index": 175, "time_elapsed": 987635, "internal_node_id": "0.0-130.0"}}, {"uniqueid": "MTK1107:373ERPL3YPFTW7221D6T02NX8XCRTR", "current_trial": 176, "dateTime": 1513111348601, "trialdata": {"rt": -1, "stimulus": "<p id=\"stim\">NAPKIN</p>", "key_press": -1, "type": "PRES_VIS", "word": "napkin", "wordID": 936, "conditions": [24, 1600, "v", 12000], "trial": 4, "serialpos": 19, "trial_type": "single-stim", "trial_index": 176, "time_elapsed": 990307, "internal_node_id": "0.0-131.0"}}, {"uniqueid": "MTK1107:373ERPL3YPFTW7221D6T02NX8XCRTR", "current_trial": 177, "dateTime": 1513111351195, "trialdata": {"rt": -1, "stimulus": "<p id=\"stim\">BUBBLE</p>", "key_press": -1, "type": "PRES_VIS", "word": "bubble", "wordID": 182, "conditions": [24, 1600, "v", 12000], "trial": 4, "serialpos": 20, "trial_type": "single-stim", "trial_index": 177, "time_elapsed": 992901, "internal_node_id": "0.0-132.0"}}, {"uniqueid": "MTK1107:373ERPL3YPFTW7221D6T02NX8XCRTR", "current_trial": 178, "dateTime": 1513111353864, "trialdata": {"rt": -1, "stimulus": "<p id=\"stim\">TURNIP</p>", "key_press": -1, "type": "PRES_VIS", "word": "turnip", "wordID": 1520, "conditions": [24, 1600, "v", 12000], "trial": 4, "serialpos": 21, "trial_type": "single-stim", "trial_index": 178, "time_elapsed": 995570, "internal_node_id": "0.0-133.0"}}, {"uniqueid": "MTK1107:373ERPL3YPFTW7221D6T02NX8XCRTR", "current_trial": 179, "dateTime": 1513111356573, "trialdata": {"rt": -1, "stimulus": "<p id=\"stim\">TORTOISE</p>", "key_press": -1, "type": "PRES_VIS", "word": "tortoise", "wordID": 1485, "conditions": [24, 1600, "v", 12000], "trial": 4, "serialpos": 22, "trial_type": "single-stim", "trial_index": 179, "time_elapsed": 998279, "internal_node_id": "0.0-134.0"}}, {"uniqueid": "MTK1107:373ERPL3YPFTW7221D6T02NX8XCRTR", "current_trial": 180, "dateTime": 1513111359239, "trialdata": {"rt": -1, "stimulus": "<p id=\"stim\">SOFTBALL</p>", "key_press": -1, "type": "PRES_VIS", "word": "softball", "wordID": 1342, "conditions": [24, 1600, "v", 12000], "trial": 4, "serialpos": 23, "trial_type": "single-stim", "trial_index": 180, "time_elapsed": 1000945, "internal_node_id": "0.0-135.0"}}, {"uniqueid": "MTK1107:373ERPL3YPFTW7221D6T02NX8XCRTR", "current_trial": 181, "dateTime": 1513111361666, "trialdata": {"rt": -1, "stimulus": "", "key_press": -1, "type": "PRE_RECALL_DELAY", "trial_type": "single-stim", "trial_index": 181, "time_elapsed": 1003372, "internal_node_id": "0.0-136.0-0.0"}}, {"uniqueid": "MTK1107:373ERPL3YPFTW7221D6T02NX8XCRTR", "current_trial": 182, "dateTime": 1513111362168, "trialdata": {"rt": -1000, "stimulus": "/static/audio/400Hz.wav", "key_press": -1, "type": "PRE_RECALL_ALERT", "trial_type": "single-audio", "trial_index": 182, "time_elapsed": 1003874, "internal_node_id": "0.0-137.0"}}, {"uniqueid": "MTK1107:373ERPL3YPFTW7221D6T02NX8XCRTR", "current_trial": 183, "dateTime": 1513111422177, "trialdata": {"rt": [5411, 12140, 29148, 39676], "recwords": ["bubble", "napkin", "onion", "radish"], "type": "FREE_RECALL", "conditions": [24, 1600, "v", 12000], "trial": 4, "trial_type": "free-recall", "trial_index": 183, "time_elapsed": 1063879, "internal_node_id": "0.0-138.0-0.0"}}, {"uniqueid": "MTK1107:373ERPL3YPFTW7221D6T02NX8XCRTR", "current_trial": 184, "dateTime": 1513111426671, "trialdata": {"rt": 2491, "key_press": 70, "type": "INSTRUCTIONS", "trial_type": "text", "trial_index": 184, "time_elapsed": 1068377, "internal_node_id": "0.0-139.0"}}, {"uniqueid": "MTK1107:373ERPL3YPFTW7221D6T02NX8XCRTR", "current_trial": 185, "dateTime": 1513111440675, "trialdata": {"rt": [4541, 7892, 11539], "responses": ["19", "8", "9"], "num1": [5, 3, 2, 3], "num2": [9, 1, 3, 5], "num3": [5, 4, 4, 7], "type": "DISTRACTOR", "conditions": [24, 800, "a", 12000], "trial": 5, "trial_type": "math-distractor", "trial_index": 185, "time_elapsed": 1082380, "internal_node_id": "0.0-140.0"}}, {"uniqueid": "MTK1107:373ERPL3YPFTW7221D6T02NX8XCRTR", "current_trial": 186, "dateTime": 1513111443676, "trialdata": {"rt": -1, "stimulus": "<p id=\"stim\">10</p>", "key_press": -1, "trial_type": "single-stim", "trial_index": 186, "time_elapsed": 1085382, "internal_node_id": "0.0-141.0-0.0"}}, {"uniqueid": "MTK1107:373ERPL3YPFTW7221D6T02NX8XCRTR", "current_trial": 187, "dateTime": 1513111444677, "trialdata": {"rt": -1, "stimulus": "<p id=\"stim\">9</p>", "key_press": -1, "trial_type": "single-stim", "trial_index": 187, "time_elapsed": 1086383, "internal_node_id": "0.0-141.0-1.0"}}, {"uniqueid": "MTK1107:373ERPL3YPFTW7221D6T02NX8XCRTR", "current_trial": 188, "dateTime": 1513111445679, "trialdata": {"rt": -1, "stimulus": "<p id=\"stim\">8</p>", "key_press": -1, "trial_type": "single-stim", "trial_index": 188, "time_elapsed": 1087385, "internal_node_id": "0.0-141.0-2.0"}}, {"uniqueid": "MTK1107:373ERPL3YPFTW7221D6T02NX8XCRTR", "current_trial": 189, "dateTime": 1513111446681, "trialdata": {"rt": -1, "stimulus": "<p id=\"stim\">7</p>", "key_press": -1, "trial_type": "single-stim", "trial_index": 189, "time_elapsed": 1088387, "internal_node_id": "0.0-141.0-3.0"}}, {"uniqueid": "MTK1107:373ERPL3YPFTW7221D6T02NX8XCRTR", "current_trial": 190, "dateTime": 1513111447682, "trialdata": {"rt": -1, "stimulus": "<p id=\"stim\">6</p>", "key_press": -1, "trial_type": "single-stim", "trial_index": 190, "time_elapsed": 1089388, "internal_node_id": "0.0-141.0-4.0"}}, {"uniqueid": "MTK1107:373ERPL3YPFTW7221D6T02NX8XCRTR", "current_trial": 191, "dateTime": 1513111448685, "trialdata": {"rt": -1, "stimulus": "<p id=\"stim\">5</p>", "key_press": -1, "trial_type": "single-stim", "trial_index": 191, "time_elapsed": 1090391, "internal_node_id": "0.0-141.0-5.0"}}, {"uniqueid": "MTK1107:373ERPL3YPFTW7221D6T02NX8XCRTR", "current_trial": 192, "dateTime": 1513111449687, "trialdata": {"rt": -1, "stimulus": "<p id=\"stim\">4</p>", "key_press": -1, "trial_type": "single-stim", "trial_index": 192, "time_elapsed": 1091393, "internal_node_id": "0.0-141.0-6.0"}}, {"uniqueid": "MTK1107:373ERPL3YPFTW7221D6T02NX8XCRTR", "current_trial": 193, "dateTime": 1513111450688, "trialdata": {"rt": -1, "stimulus": "<p id=\"stim\">3</p>", "key_press": -1, "trial_type": "single-stim", "trial_index": 193, "time_elapsed": 1092394, "internal_node_id": "0.0-141.0-7.0"}}, {"uniqueid": "MTK1107:373ERPL3YPFTW7221D6T02NX8XCRTR", "current_trial": 194, "dateTime": 1513111451690, "trialdata": {"rt": -1, "stimulus": "<p id=\"stim\">2</p>", "key_press": -1, "trial_type": "single-stim", "trial_index": 194, "time_elapsed": 1093396, "internal_node_id": "0.0-141.0-8.0"}}, {"uniqueid": "MTK1107:373ERPL3YPFTW7221D6T02NX8XCRTR", "current_trial": 195, "dateTime": 1513111452691, "trialdata": {"rt": -1, "stimulus": "<p id=\"stim\">1</p>", "key_press": -1, "trial_type": "single-stim", "trial_index": 195, "time_elapsed": 1094397, "internal_node_id": "0.0-141.0-9.0"}}, {"uniqueid": "MTK1107:373ERPL3YPFTW7221D6T02NX8XCRTR", "current_trial": 196, "dateTime": 1513111454193, "trialdata": {"rt": -1, "stimulus": "<p id=\"stim\">+</p>", "key_press": -1, "type": "FIXATION", "trial_type": "single-stim", "trial_index": 196, "time_elapsed": 1095899, "internal_node_id": "0.0-142.0-0.0"}}, {"uniqueid": "MTK1107:373ERPL3YPFTW7221D6T02NX8XCRTR", "current_trial": 197, "dateTime": 1513111455944, "trialdata": {"rt": -1000, "stimulus": "/static/audio/wordpool/DINER.wav", "key_press": -1, "type": "PRES_AUD", "word": "diner", "wordID": 466, "conditions": [24, 800, "a", 12000], "trial": 5, "serialpos": 0, "trial_type": "single-audio", "trial_index": 197, "time_elapsed": 1097649, "internal_node_id": "0.0-143.0"}}, {"uniqueid": "MTK1107:373ERPL3YPFTW7221D6T02NX8XCRTR", "current_trial": 198, "dateTime": 1513111457908, "trialdata": {"rt": -1000, "stimulus": "/static/audio/wordpool/TERMITE.wav", "key_press": -1, "type": "PRES_AUD", "word": "termite", "wordID": 1450, "conditions": [24, 800, "a", 12000], "trial": 5, "serialpos": 1, "trial_type": "single-audio", "trial_index": 198, "time_elapsed": 1099613, "internal_node_id": "0.0-144.0"}}, {"uniqueid": "MTK1107:373ERPL3YPFTW7221D6T02NX8XCRTR", "current_trial": 199, "dateTime": 1513111459836, "trialdata": {"rt": -1000, "stimulus": "/static/audio/wordpool/FUNGUS.wav", "key_press": -1, "type": "PRES_AUD", "word": "fungus", "wordID": 613, "conditions": [24, 800, "a", 12000], "trial": 5, "serialpos": 2, "trial_type": "single-audio", "trial_index": 199, "time_elapsed": 1101542, "internal_node_id": "0.0-145.0"}}, {"uniqueid": "MTK1107:373ERPL3YPFTW7221D6T02NX8XCRTR", "current_trial": 200, "dateTime": 1513111461788, "trialdata": {"rt": -1000, "stimulus": "/static/audio/wordpool/SUSPECT.wav", "key_press": -1, "type": "PRES_AUD", "word": "suspect", "wordID": 1414, "conditions": [24, 800, "a", 12000], "trial": 5, "serialpos": 3, "trial_type": "single-audio", "trial_index": 200, "time_elapsed": 1103493, "internal_node_id": "0.0-146.0"}}, {"uniqueid": "MTK1107:373ERPL3YPFTW7221D6T02NX8XCRTR", "current_trial": 201, "dateTime": 1513111463599, "trialdata": {"rt": -1000, "stimulus": "/static/audio/wordpool/BANK.wav", "key_press": -1, "type": "PRES_AUD", "word": "bank", "wordID": 82, "conditions": [24, 800, "a", 12000], "trial": 5, "serialpos": 4, "trial_type": "single-audio", "trial_index": 201, "time_elapsed": 1105304, "internal_node_id": "0.0-147.0"}}, {"uniqueid": "MTK1107:373ERPL3YPFTW7221D6T02NX8XCRTR", "current_trial": 202, "dateTime": 1513111465493, "trialdata": {"rt": -1000, "stimulus": "/static/audio/wordpool/BREAST.wav", "key_press": -1, "type": "PRES_AUD", "word": "breast", "wordID": 170, "conditions": [24, 800, "a", 12000], "trial": 5, "serialpos": 5, "trial_type": "single-audio", "trial_index": 202, "time_elapsed": 1107199, "internal_node_id": "0.0-148.0"}}, {"uniqueid": "MTK1107:373ERPL3YPFTW7221D6T02NX8XCRTR", "current_trial": 203, "dateTime": 1513111467252, "trialdata": {"rt": -1000, "stimulus": "/static/audio/wordpool/ROCKET.wav", "key_press": -1, "type": "PRES_AUD", "word": "rocket", "wordID": 1201, "conditions": [24, 800, "a", 12000], "trial": 5, "serialpos": 6, "trial_type": "single-audio", "trial_index": 203, "time_elapsed": 1108957, "internal_node_id": "0.0-149.0"}}, {"uniqueid": "MTK1107:373ERPL3YPFTW7221D6T02NX8XCRTR", "current_trial": 204, "dateTime": 1513111469009, "trialdata": {"rt": -1000, "stimulus": "/static/audio/wordpool/MONSTER.wav", "key_press": -1, "type": "PRES_AUD", "word": "monster", "wordID": 911, "conditions": [24, 800, "a", 12000], "trial": 5, "serialpos": 7, "trial_type": "single-audio", "trial_index": 204, "time_elapsed": 1110715, "internal_node_id": "0.0-150.0"}}, {"uniqueid": "MTK1107:373ERPL3YPFTW7221D6T02NX8XCRTR", "current_trial": 205, "dateTime": 1513111470797, "trialdata": {"rt": -1000, "stimulus": "/static/audio/wordpool/PLUTO.wav", "key_press": -1, "type": "PRES_AUD", "word": "pluto", "wordID": 1091, "conditions": [24, 800, "a", 12000], "trial": 5, "serialpos": 8, "trial_type": "single-audio", "trial_index": 205, "time_elapsed": 1112502, "internal_node_id": "0.0-151.0"}}, {"uniqueid": "MTK1107:373ERPL3YPFTW7221D6T02NX8XCRTR", "current_trial": 206, "dateTime": 1513111472485, "trialdata": {"rt": -1000, "stimulus": "/static/audio/wordpool/SPOUSE.wav", "key_press": -1, "type": "PRES_AUD", "word": "spouse", "wordID": 1357, "conditions": [24, 800, "a", 12000], "trial": 5, "serialpos": 9, "trial_type": "single-audio", "trial_index": 206, "time_elapsed": 1114191, "internal_node_id": "0.0-152.0"}}, {"uniqueid": "MTK1107:373ERPL3YPFTW7221D6T02NX8XCRTR", "current_trial": 207, "dateTime": 1513111474180, "trialdata": {"rt": -1000, "stimulus": "/static/audio/wordpool/BALLOON.wav", "key_press": -1, "type": "PRES_AUD", "word": "balloon", "wordID": 74, "conditions": [24, 800, "a", 12000], "trial": 5, "serialpos": 10, "trial_type": "single-audio", "trial_index": 207, "time_elapsed": 1115885, "internal_node_id": "0.0-153.0"}}, {"uniqueid": "MTK1107:373ERPL3YPFTW7221D6T02NX8XCRTR", "current_trial": 208, "dateTime": 1513111476074, "trialdata": {"rt": -1000, "stimulus": "/static/audio/wordpool/SANDWICH.wav", "key_press": -1, "type": "PRES_AUD", "word": "sandwich", "wordID": 1231, "conditions": [24, 800, "a", 12000], "trial": 5, "serialpos": 11, "trial_type": "single-audio", "trial_index": 208, "time_elapsed": 1117779, "internal_node_id": "0.0-154.0"}}, {"uniqueid": "MTK1107:373ERPL3YPFTW7221D6T02NX8XCRTR", "current_trial": 209, "dateTime": 1513111477970, "trialdata": {"rt": -1000, "stimulus": "/static/audio/wordpool/PICTURE.wav", "key_press": -1, "type": "PRES_AUD", "word": "picture", "wordID": 1060, "conditions": [24, 800, "a", 12000], "trial": 5, "serialpos": 12, "trial_type": "single-audio", "trial_index": 209, "time_elapsed": 1119675, "internal_node_id": "0.0-155.0"}}, {"uniqueid": "MTK1107:373ERPL3YPFTW7221D6T02NX8XCRTR", "current_trial": 210, "dateTime": 1513111479751, "trialdata": {"rt": -1000, "stimulus": "/static/audio/wordpool/PANTHER.wav", "key_press": -1, "type": "PRES_AUD", "word": "panther", "wordID": 1008, "conditions": [24, 800, "a", 12000], "trial": 5, "serialpos": 13, "trial_type": "single-audio", "trial_index": 210, "time_elapsed": 1121457, "internal_node_id": "0.0-156.0"}}, {"uniqueid": "MTK1107:373ERPL3YPFTW7221D6T02NX8XCRTR", "current_trial": 211, "dateTime": 1513111481734, "trialdata": {"rt": -1000, "stimulus": "/static/audio/wordpool/BANJO.wav", "key_press": -1, "type": "PRES_AUD", "word": "banjo", "wordID": 81, "conditions": [24, 800, "a", 12000], "trial": 5, "serialpos": 14, "trial_type": "single-audio", "trial_index": 211, "time_elapsed": 1123438, "internal_node_id": "0.0-157.0"}}, {"uniqueid": "MTK1107:373ERPL3YPFTW7221D6T02NX8XCRTR", "current_trial": 212, "dateTime": 1513111483439, "trialdata": {"rt": -1000, "stimulus": "/static/audio/wordpool/MESSAGE.wav", "key_press": -1, "type": "PRES_AUD", "word": "message", "wordID": 887, "conditions": [24, 800, "a", 12000], "trial": 5, "serialpos": 15, "trial_type": "single-audio", "trial_index": 212, "time_elapsed": 1125144, "internal_node_id": "0.0-158.0"}}, {"uniqueid": "MTK1107:373ERPL3YPFTW7221D6T02NX8XCRTR", "current_trial": 213, "dateTime": 1513111485175, "trialdata": {"rt": -1000, "stimulus": "/static/audio/wordpool/SKETCH.wav", "key_press": -1, "type": "PRES_AUD", "word": "sketch", "wordID": 1314, "conditions": [24, 800, "a", 12000], "trial": 5, "serialpos": 16, "trial_type": "single-audio", "trial_index": 213, "time_elapsed": 1126881, "internal_node_id": "0.0-159.0"}}, {"uniqueid": "MTK1107:373ERPL3YPFTW7221D6T02NX8XCRTR", "current_trial": 214, "dateTime": 1513111487164, "trialdata": {"rt": -1000, "stimulus": "/static/audio/wordpool/MOP.wav", "key_press": -1, "type": "PRES_AUD", "word": "mop", "wordID": 915, "conditions": [24, 800, "a", 12000], "trial": 5, "serialpos": 17, "trial_type": "single-audio", "trial_index": 214, "time_elapsed": 1128870, "internal_node_id": "0.0-160.0"}}, {"uniqueid": "MTK1107:373ERPL3YPFTW7221D6T02NX8XCRTR", "current_trial": 215, "dateTime": 1513111489012, "trialdata": {"rt": -1000, "stimulus": "/static/audio/wordpool/LIZARD.wav", "key_press": -1, "type": "PRES_AUD", "word": "lizard", "wordID": 833, "conditions": [24, 800, "a", 12000], "trial": 5, "serialpos": 18, "trial_type": "single-audio", "trial_index": 215, "time_elapsed": 1130717, "internal_node_id": "0.0-161.0"}}, {"uniqueid": "MTK1107:373ERPL3YPFTW7221D6T02NX8XCRTR", "current_trial": 216, "dateTime": 1513111490758, "trialdata": {"rt": -1000, "stimulus": "/static/audio/wordpool/PARROT.wav", "key_press": -1, "type": "PRES_AUD", "word": "parrot", "wordID": 1014, "conditions": [24, 800, "a", 12000], "trial": 5, "serialpos": 19, "trial_type": "single-audio", "trial_index": 216, "time_elapsed": 1132463, "internal_node_id": "0.0-162.0"}}, {"uniqueid": "MTK1107:373ERPL3YPFTW7221D6T02NX8XCRTR", "current_trial": 217, "dateTime": 1513111492757, "trialdata": {"rt": -1000, "stimulus": "/static/audio/wordpool/PADDING.wav", "key_press": -1, "type": "PRES_AUD", "word": "padding", "wordID": 998, "conditions": [24, 800, "a", 12000], "trial": 5, "serialpos": 20, "trial_type": "single-audio", "trial_index": 217, "time_elapsed": 1134462, "internal_node_id": "0.0-163.0"}}, {"uniqueid": "MTK1107:373ERPL3YPFTW7221D6T02NX8XCRTR", "current_trial": 218, "dateTime": 1513111494563, "trialdata": {"rt": -1000, "stimulus": "/static/audio/wordpool/BLOUSE.wav", "key_press": -1, "type": "PRES_AUD", "word": "blouse", "wordID": 138, "conditions": [24, 800, "a", 12000], "trial": 5, "serialpos": 21, "trial_type": "single-audio", "trial_index": 218, "time_elapsed": 1136268, "internal_node_id": "0.0-164.0"}}, {"uniqueid": "MTK1107:373ERPL3YPFTW7221D6T02NX8XCRTR", "current_trial": 219, "dateTime": 1513111496401, "trialdata": {"rt": -1000, "stimulus": "/static/audio/wordpool/SNAKE.wav", "key_press": -1, "type": "PRES_AUD", "word": "snake", "wordID": 1332, "conditions": [24, 800, "a", 12000], "trial": 5, "serialpos": 22, "trial_type": "single-audio", "trial_index": 219, "time_elapsed": 1138106, "internal_node_id": "0.0-165.0"}}, {"uniqueid": "MTK1107:373ERPL3YPFTW7221D6T02NX8XCRTR", "current_trial": 220, "dateTime": 1513111498068, "trialdata": {"rt": -1000, "stimulus": "/static/audio/wordpool/FOX.wav", "key_press": -1, "type": "PRES_AUD", "word": "fox", "wordID": 597, "conditions": [24, 800, "a", 12000], "trial": 5, "serialpos": 23, "trial_type": "single-audio", "trial_index": 220, "time_elapsed": 1139773, "internal_node_id": "0.0-166.0"}}, {"uniqueid": "MTK1107:373ERPL3YPFTW7221D6T02NX8XCRTR", "current_trial": 221, "dateTime": 1513111499287, "trialdata": {"rt": -1, "stimulus": "", "key_press": -1, "type": "PRE_RECALL_DELAY", "trial_type": "single-stim", "trial_index": 221, "time_elapsed": 1140993, "internal_node_id": "0.0-167.0-0.0"}}, {"uniqueid": "MTK1107:373ERPL3YPFTW7221D6T02NX8XCRTR", "current_trial": 222, "dateTime": 1513111499789, "trialdata": {"rt": -1000, "stimulus": "/static/audio/400Hz.wav", "key_press": -1, "type": "PRE_RECALL_ALERT", "trial_type": "single-audio", "trial_index": 222, "time_elapsed": 1141495, "internal_node_id": "0.0-168.0"}}, {"uniqueid": "MTK1107:373ERPL3YPFTW7221D6T02NX8XCRTR", "current_trial": 223, "dateTime": 1513111559800, "trialdata": {"rt": [4390, 10078, 15638, 43406], "recwords": ["fox", "snake", "pluto", "blouse"], "type": "FREE_RECALL", "conditions": [24, 800, "a", 12000], "trial": 5, "trial_type": "free-recall", "trial_index": 223, "time_elapsed": 1201499, "internal_node_id": "0.0-169.0-0.0"}}, {"uniqueid": "MTK1107:373ERPL3YPFTW7221D6T02NX8XCRTR", "current_trial": 224, "dateTime": 1513111564254, "trialdata": {"rt": 2452, "key_press": 71, "type": "INSTRUCTIONS", "trial_type": "text", "trial_index": 224, "time_elapsed": 1205960, "internal_node_id": "0.0-170.0"}}, {"uniqueid": "MTK1107:373ERPL3YPFTW7221D6T02NX8XCRTR", "current_trial": 225, "dateTime": 1513111578259, "trialdata": {"rt": [3373, 7157, 9949], "responses": ["15", "16", "13"], "num1": [5, 2, 3, 3], "num2": [1, 8, 6, 3], "num3": [9, 6, 4, 2], "type": "DISTRACTOR", "conditions": [12, 800, "a", 12000], "trial": 6, "trial_type": "math-distractor", "trial_index": 225, "time_elapsed": 1219964, "internal_node_id": "0.0-171.0"}}, {"uniqueid": "MTK1107:373ERPL3YPFTW7221D6T02NX8XCRTR", "current_trial": 226, "dateTime": 1513111581261, "trialdata": {"rt": -1, "stimulus": "<p id=\"stim\">10</p>", "key_press": -1, "trial_type": "single-stim", "trial_index": 226, "time_elapsed": 1222967, "internal_node_id": "0.0-172.0-0.0"}}, {"uniqueid": "MTK1107:373ERPL3YPFTW7221D6T02NX8XCRTR", "current_trial": 227, "dateTime": 1513111582263, "trialdata": {"rt": -1, "stimulus": "<p id=\"stim\">9</p>", "key_press": -1, "trial_type": "single-stim", "trial_index": 227, "time_elapsed": 1223969, "internal_node_id": "0.0-172.0-1.0"}}, {"uniqueid": "MTK1107:373ERPL3YPFTW7221D6T02NX8XCRTR", "current_trial": 228, "dateTime": 1513111583264, "trialdata": {"rt": -1, "stimulus": "<p id=\"stim\">8</p>", "key_press": -1, "trial_type": "single-stim", "trial_index": 228, "time_elapsed": 1224970, "internal_node_id": "0.0-172.0-2.0"}}, {"uniqueid": "MTK1107:373ERPL3YPFTW7221D6T02NX8XCRTR", "current_trial": 229, "dateTime": 1513111584265, "trialdata": {"rt": -1, "stimulus": "<p id=\"stim\">7</p>", "key_press": -1, "trial_type": "single-stim", "trial_index": 229, "time_elapsed": 1225971, "internal_node_id": "0.0-172.0-3.0"}}, {"uniqueid": "MTK1107:373ERPL3YPFTW7221D6T02NX8XCRTR", "current_trial": 230, "dateTime": 1513111585267, "trialdata": {"rt": -1, "stimulus": "<p id=\"stim\">6</p>", "key_press": -1, "trial_type": "single-stim", "trial_index": 230, "time_elapsed": 1226973, "internal_node_id": "0.0-172.0-4.0"}}, {"uniqueid": "MTK1107:373ERPL3YPFTW7221D6T02NX8XCRTR", "current_trial": 231, "dateTime": 1513111586268, "trialdata": {"rt": -1, "stimulus": "<p id=\"stim\">5</p>", "key_press": -1, "trial_type": "single-stim", "trial_index": 231, "time_elapsed": 1227974, "internal_node_id": "0.0-172.0-5.0"}}, {"uniqueid": "MTK1107:373ERPL3YPFTW7221D6T02NX8XCRTR", "current_trial": 232, "dateTime": 1513111587269, "trialdata": {"rt": -1, "stimulus": "<p id=\"stim\">4</p>", "key_press": -1, "trial_type": "single-stim", "trial_index": 232, "time_elapsed": 1228975, "internal_node_id": "0.0-172.0-6.0"}}, {"uniqueid": "MTK1107:373ERPL3YPFTW7221D6T02NX8XCRTR", "current_trial": 233, "dateTime": 1513111588271, "trialdata": {"rt": -1, "stimulus": "<p id=\"stim\">3</p>", "key_press": -1, "trial_type": "single-stim", "trial_index": 233, "time_elapsed": 1229977, "internal_node_id": "0.0-172.0-7.0"}}, {"uniqueid": "MTK1107:373ERPL3YPFTW7221D6T02NX8XCRTR", "current_trial": 234, "dateTime": 1513111589273, "trialdata": {"rt": -1, "stimulus": "<p id=\"stim\">2</p>", "key_press": -1, "trial_type": "single-stim", "trial_index": 234, "time_elapsed": 1230979, "internal_node_id": "0.0-172.0-8.0"}}, {"uniqueid": "MTK1107:373ERPL3YPFTW7221D6T02NX8XCRTR", "current_trial": 235, "dateTime": 1513111590275, "trialdata": {"rt": -1, "stimulus": "<p id=\"stim\">1</p>", "key_press": -1, "trial_type": "single-stim", "trial_index": 235, "time_elapsed": 1231981, "internal_node_id": "0.0-172.0-9.0"}}, {"uniqueid": "MTK1107:373ERPL3YPFTW7221D6T02NX8XCRTR", "current_trial": 236, "dateTime": 1513111591777, "trialdata": {"rt": -1, "stimulus": "<p id=\"stim\">+</p>", "key_press": -1, "type": "FIXATION", "trial_type": "single-stim", "trial_index": 236, "time_elapsed": 1233483, "internal_node_id": "0.0-173.0-0.0"}}, {"uniqueid": "MTK1107:373ERPL3YPFTW7221D6T02NX8XCRTR", "current_trial": 237, "dateTime": 1513111593571, "trialdata": {"rt": -1000, "stimulus": "/static/audio/wordpool/NURSE.wav", "key_press": -1, "type": "PRES_AUD", "word": "nurse", "wordID": 962, "conditions": [12, 800, "a", 12000], "trial": 6, "serialpos": 0, "trial_type": "single-audio", "trial_index": 237, "time_elapsed": 1235277, "internal_node_id": "0.0-174.0"}}, {"uniqueid": "MTK1107:373ERPL3YPFTW7221D6T02NX8XCRTR", "current_trial": 238, "dateTime": 1513111595545, "trialdata": {"rt": -1000, "stimulus": "/static/audio/wordpool/PATIENT.wav", "key_press": -1, "type": "PRES_AUD", "word": "patient", "wordID": 1023, "conditions": [12, 800, "a", 12000], "trial": 6, "serialpos": 1, "trial_type": "single-audio", "trial_index": 238, "time_elapsed": 1237251, "internal_node_id": "0.0-175.0"}}, {"uniqueid": "MTK1107:373ERPL3YPFTW7221D6T02NX8XCRTR", "current_trial": 239, "dateTime": 1513111597403, "trialdata": {"rt": -1000, "stimulus": "/static/audio/wordpool/TABLE.wav", "key_press": -1, "type": "PRES_AUD", "word": "table", "wordID": 1425, "conditions": [12, 800, "a", 12000], "trial": 6, "serialpos": 2, "trial_type": "single-audio", "trial_index": 239, "time_elapsed": 1239108, "internal_node_id": "0.0-176.0"}}, {"uniqueid": "MTK1107:373ERPL3YPFTW7221D6T02NX8XCRTR", "current_trial": 240, "dateTime": 1513111599116, "trialdata": {"rt": -1000, "stimulus": "/static/audio/wordpool/KNIFE.wav", "key_press": -1, "type": "PRES_AUD", "word": "knife", "wordID": 784, "conditions": [12, 800, "a", 12000], "trial": 6, "serialpos": 3, "trial_type": "single-audio", "trial_index": 240, "time_elapsed": 1240822, "internal_node_id": "0.0-177.0"}}, {"uniqueid": "MTK1107:373ERPL3YPFTW7221D6T02NX8XCRTR", "current_trial": 241, "dateTime": 1513111600900, "trialdata": {"rt": -1000, "stimulus": "/static/audio/wordpool/SPOOL.wav", "key_press": -1, "type": "PRES_AUD", "word": "spool", "wordID": 1355, "conditions": [12, 800, "a", 12000], "trial": 6, "serialpos": 4, "trial_type": "single-audio", "trial_index": 241, "time_elapsed": 1242606, "internal_node_id": "0.0-178.0"}}, {"uniqueid": "MTK1107:373ERPL3YPFTW7221D6T02NX8XCRTR", "current_trial": 242, "dateTime": 1513111602656, "trialdata": {"rt": -1000, "stimulus": "/static/audio/wordpool/BACON.wav", "key_press": -1, "type": "PRES_AUD", "word": "bacon", "wordID": 66, "conditions": [12, 800, "a", 12000], "trial": 6, "serialpos": 5, "trial_type": "single-audio", "trial_index": 242, "time_elapsed": 1244361, "internal_node_id": "0.0-179.0"}}, {"uniqueid": "MTK1107:373ERPL3YPFTW7221D6T02NX8XCRTR", "current_trial": 243, "dateTime": 1513111604260, "trialdata": {"rt": -1000, "stimulus": "/static/audio/wordpool/PISTOL.wav", "key_press": -1, "type": "PRES_AUD", "word": "pistol", "wordID": 1074, "conditions": [12, 800, "a", 12000], "trial": 6, "serialpos": 6, "trial_type": "single-audio", "trial_index": 243, "time_elapsed": 1245965, "internal_node_id": "0.0-180.0"}}, {"uniqueid": "MTK1107:373ERPL3YPFTW7221D6T02NX8XCRTR", "current_trial": 244, "dateTime": 1513111606241, "trialdata": {"rt": -1000, "stimulus": "/static/audio/wordpool/LAMP.wav", "key_press": -1, "type": "PRES_AUD", "word": "lamp", "wordID": 797, "conditions": [12, 800, "a", 12000], "trial": 6, "serialpos": 7, "trial_type": "single-audio", "trial_index": 244, "time_elapsed": 1247947, "internal_node_id": "0.0-181.0"}}, {"uniqueid": "MTK1107:373ERPL3YPFTW7221D6T02NX8XCRTR", "current_trial": 245, "dateTime": 1513111608099, "trialdata": {"rt": -1000, "stimulus": "/static/audio/wordpool/HOSTESS.wav", "key_press": -1, "type": "PRES_AUD", "word": "hostess", "wordID": 722, "conditions": [12, 800, "a", 12000], "trial": 6, "serialpos": 8, "trial_type": "single-audio", "trial_index": 245, "time_elapsed": 1249803, "internal_node_id": "0.0-182.0"}}, {"uniqueid": "MTK1107:373ERPL3YPFTW7221D6T02NX8XCRTR", "current_trial": 246, "dateTime": 1513111609711, "trialdata": {"rt": -1000, "stimulus": "/static/audio/wordpool/ITEM.wav", "key_press": -1, "type": "PRES_AUD", "word": "item", "wordID": 745, "conditions": [12, 800, "a", 12000], "trial": 6, "serialpos": 9, "trial_type": "single-audio", "trial_index": 246, "time_elapsed": 1251417, "internal_node_id": "0.0-183.0"}}, {"uniqueid": "MTK1107:373ERPL3YPFTW7221D6T02NX8XCRTR", "current_trial": 247, "dateTime": 1513111611359, "trialdata": {"rt": -1000, "stimulus": "/static/audio/wordpool/SAUSAGE.wav", "key_press": -1, "type": "PRES_AUD", "word": "sausage", "wordID": 1237, "conditions": [12, 800, "a", 12000], "trial": 6, "serialpos": 10, "trial_type": "single-audio", "trial_index": 247, "time_elapsed": 1253064, "internal_node_id": "0.0-184.0"}}, {"uniqueid": "MTK1107:373ERPL3YPFTW7221D6T02NX8XCRTR", "current_trial": 248, "dateTime": 1513111613265, "trialdata": {"rt": -1000, "stimulus": "/static/audio/wordpool/CARROT.wav", "key_press": -1, "type": "PRES_AUD", "word": "carrot", "wordID": 248, "conditions": [12, 800, "a", 12000], "trial": 6, "serialpos": 11, "trial_type": "single-audio", "trial_index": 248, "time_elapsed": 1254970, "internal_node_id": "0.0-185.0"}}, {"uniqueid": "MTK1107:373ERPL3YPFTW7221D6T02NX8XCRTR", "current_trial": 249, "dateTime": 1513111614616, "trialdata": {"rt": -1, "stimulus": "", "key_press": -1, "type": "PRE_RECALL_DELAY", "trial_type": "single-stim", "trial_index": 249, "time_elapsed": 1256322, "internal_node_id": "0.0-186.0-0.0"}}, {"uniqueid": "MTK1107:373ERPL3YPFTW7221D6T02NX8XCRTR", "current_trial": 250, "dateTime": 1513111615118, "trialdata": {"rt": -1000, "stimulus": "/static/audio/400Hz.wav", "key_press": -1, "type": "PRE_RECALL_ALERT", "trial_type": "single-audio", "trial_index": 250, "time_elapsed": 1256824, "internal_node_id": "0.0-187.0"}}, {"uniqueid": "MTK1107:373ERPL3YPFTW7221D6T02NX8XCRTR", "current_trial": 251, "dateTime": 1513111675129, "trialdata": {"rt": [5477, 21701, 27885, 35757, 49237, 57493], "recwords": ["item", "sausage", "carrot", "hostess", "men", "pistol"], "type": "FREE_RECALL", "conditions": [12, 800, "a", 12000], "trial": 6, "trial_type": "free-recall", "trial_index": 251, "time_elapsed": 1316828, "internal_node_id": "0.0-188.0-0.0"}}, {"uniqueid": "MTK1107:373ERPL3YPFTW7221D6T02NX8XCRTR", "current_trial": 252, "dateTime": 1513111685646, "trialdata": {"rt": 8515, "key_press": 75, "type": "INSTRUCTIONS", "trial_type": "text", "trial_index": 252, "time_elapsed": 1327352, "internal_node_id": "0.0-189.0"}}, {"uniqueid": "MTK1107:373ERPL3YPFTW7221D6T02NX8XCRTR", "current_trial": 253, "dateTime": 1513111711650, "trialdata": {"rt": [4140, 7877, 22117], "responses": ["12", "14", "13"], "num1": [3, 2, 7, 1], "num2": [6, 3, 4, 5], "num3": [3, 9, 2, 9], "type": "DISTRACTOR", "conditions": [24, 1600, "v", 24000], "trial": 7, "trial_type": "math-distractor", "trial_index": 253, "time_elapsed": 1353356, "internal_node_id": "0.0-190.0"}}, {"uniqueid": "MTK1107:373ERPL3YPFTW7221D6T02NX8XCRTR", "current_trial": 254, "dateTime": 1513111714653, "trialdata": {"rt": -1, "stimulus": "<p id=\"stim\">10</p>", "key_press": -1, "trial_type": "single-stim", "trial_index": 254, "time_elapsed": 1356359, "internal_node_id": "0.0-191.0-0.0"}}, {"uniqueid": "MTK1107:373ERPL3YPFTW7221D6T02NX8XCRTR", "current_trial": 255, "dateTime": 1513111715654, "trialdata": {"rt": -1, "stimulus": "<p id=\"stim\">9</p>", "key_press": -1, "trial_type": "single-stim", "trial_index": 255, "time_elapsed": 1357360, "internal_node_id": "0.0-191.0-1.0"}}, {"uniqueid": "MTK1107:373ERPL3YPFTW7221D6T02NX8XCRTR", "current_trial": 256, "dateTime": 1513111716655, "trialdata": {"rt": -1, "stimulus": "<p id=\"stim\">8</p>", "key_press": -1, "trial_type": "single-stim", "trial_index": 256, "time_elapsed": 1358361, "internal_node_id": "0.0-191.0-2.0"}}, {"uniqueid": "MTK1107:373ERPL3YPFTW7221D6T02NX8XCRTR", "current_trial": 257, "dateTime": 1513111717657, "trialdata": {"rt": -1, "stimulus": "<p id=\"stim\">7</p>", "key_press": -1, "trial_type": "single-stim", "trial_index": 257, "time_elapsed": 1359363, "internal_node_id": "0.0-191.0-3.0"}}, {"uniqueid": "MTK1107:373ERPL3YPFTW7221D6T02NX8XCRTR", "current_trial": 258, "dateTime": 1513111718659, "trialdata": {"rt": -1, "stimulus": "<p id=\"stim\">6</p>", "key_press": -1, "trial_type": "single-stim", "trial_index": 258, "time_elapsed": 1360365, "internal_node_id": "0.0-191.0-4.0"}}, {"uniqueid": "MTK1107:373ERPL3YPFTW7221D6T02NX8XCRTR", "current_trial": 259, "dateTime": 1513111719660, "trialdata": {"rt": -1, "stimulus": "<p id=\"stim\">5</p>", "key_press": -1, "trial_type": "single-stim", "trial_index": 259, "time_elapsed": 1361366, "internal_node_id": "0.0-191.0-5.0"}}, {"uniqueid": "MTK1107:373ERPL3YPFTW7221D6T02NX8XCRTR", "current_trial": 260, "dateTime": 1513111720661, "trialdata": {"rt": -1, "stimulus": "<p id=\"stim\">4</p>", "key_press": -1, "trial_type": "single-stim", "trial_index": 260, "time_elapsed": 1362367, "internal_node_id": "0.0-191.0-6.0"}}, {"uniqueid": "MTK1107:373ERPL3YPFTW7221D6T02NX8XCRTR", "current_trial": 261, "dateTime": 1513111721663, "trialdata": {"rt": -1, "stimulus": "<p id=\"stim\">3</p>", "key_press": -1, "trial_type": "single-stim", "trial_index": 261, "time_elapsed": 1363369, "internal_node_id": "0.0-191.0-7.0"}}, {"uniqueid": "MTK1107:373ERPL3YPFTW7221D6T02NX8XCRTR", "current_trial": 262, "dateTime": 1513111722665, "trialdata": {"rt": -1, "stimulus": "<p id=\"stim\">2</p>", "key_press": -1, "trial_type": "single-stim", "trial_index": 262, "time_elapsed": 1364371, "internal_node_id": "0.0-191.0-8.0"}}, {"uniqueid": "MTK1107:373ERPL3YPFTW7221D6T02NX8XCRTR", "current_trial": 263, "dateTime": 1513111723666, "trialdata": {"rt": -1, "stimulus": "<p id=\"stim\">1</p>", "key_press": -1, "trial_type": "single-stim", "trial_index": 263, "time_elapsed": 1365372, "internal_node_id": "0.0-191.0-9.0"}}, {"uniqueid": "MTK1107:373ERPL3YPFTW7221D6T02NX8XCRTR", "current_trial": 264, "dateTime": 1513111725168, "trialdata": {"rt": -1, "stimulus": "<p id=\"stim\">+</p>", "key_press": -1, "type": "FIXATION", "trial_type": "single-stim", "trial_index": 264, "time_elapsed": 1366874, "internal_node_id": "0.0-192.0-0.0"}}, {"uniqueid": "MTK1107:373ERPL3YPFTW7221D6T02NX8XCRTR", "current_trial": 265, "dateTime": 1513111726769, "trialdata": {"rt": -1, "stimulus": "<p id=\"stim\">COBRA</p>", "key_press": -1, "type": "PRES_VIS", "word": "cobra", "wordID": 335, "conditions": [24, 1600, "v", 24000], "trial": 7, "serialpos": 0, "trial_type": "single-stim", "trial_index": 265, "time_elapsed": 1368475, "internal_node_id": "0.0-193.0"}}, {"uniqueid": "MTK1107:373ERPL3YPFTW7221D6T02NX8XCRTR", "current_trial": 266, "dateTime": 1513111729183, "trialdata": {"rt": -1, "stimulus": "<p id=\"stim\">HELMET</p>", "key_press": -1, "type": "PRES_VIS", "word": "helmet", "wordID": 701, "conditions": [24, 1600, "v", 24000], "trial": 7, "serialpos": 1, "trial_type": "single-stim", "trial_index": 266, "time_elapsed": 1370889, "internal_node_id": "0.0-194.0"}}, {"uniqueid": "MTK1107:373ERPL3YPFTW7221D6T02NX8XCRTR", "current_trial": 267, "dateTime": 1513111731912, "trialdata": {"rt": -1, "stimulus": "<p id=\"stim\">BOYFRIEND</p>", "key_press": -1, "type": "PRES_VIS", "word": "boyfriend", "wordID": 161, "conditions": [24, 1600, "v", 24000], "trial": 7, "serialpos": 2, "trial_type": "single-stim", "trial_index": 267, "time_elapsed": 1373616, "internal_node_id": "0.0-195.0"}}, {"uniqueid": "MTK1107:373ERPL3YPFTW7221D6T02NX8XCRTR", "current_trial": 268, "dateTime": 1513111734650, "trialdata": {"rt": -1, "stimulus": "<p id=\"stim\">DAUGHTER</p>", "key_press": -1, "type": "PRES_VIS", "word": "daughter", "wordID": 441, "conditions": [24, 1600, "v", 24000], "trial": 7, "serialpos": 3, "trial_type": "single-stim", "trial_index": 268, "time_elapsed": 1376356, "internal_node_id": "0.0-196.0"}}, {"uniqueid": "MTK1107:373ERPL3YPFTW7221D6T02NX8XCRTR", "current_trial": 269, "dateTime": 1513111737053, "trialdata": {"rt": -1, "stimulus": "<p id=\"stim\">CRAB</p>", "key_press": -1, "type": "PRES_VIS", "word": "crab", "wordID": 396, "conditions": [24, 1600, "v", 24000], "trial": 7, "serialpos": 4, "trial_type": "single-stim", "trial_index": 269, "time_elapsed": 1378759, "internal_node_id": "0.0-197.0"}}, {"uniqueid": "MTK1107:373ERPL3YPFTW7221D6T02NX8XCRTR", "current_trial": 270, "dateTime": 1513111739711, "trialdata": {"rt": -1, "stimulus": "<p id=\"stim\">LAPEL</p>", "key_press": -1, "type": "PRES_VIS", "word": "lapel", "wordID": 799, "conditions": [24, 1600, "v", 24000], "trial": 7, "serialpos": 5, "trial_type": "single-stim", "trial_index": 270, "time_elapsed": 1381417, "internal_node_id": "0.0-198.0"}}, {"uniqueid": "MTK1107:373ERPL3YPFTW7221D6T02NX8XCRTR", "current_trial": 271, "dateTime": 1513111742363, "trialdata": {"rt": -1, "stimulus": "<p id=\"stim\">CANDY</p>", "key_press": -1, "type": "PRES_VIS", "word": "candy", "wordID": 229, "conditions": [24, 1600, "v", 24000], "trial": 7, "serialpos": 6, "trial_type": "single-stim", "trial_index": 271, "time_elapsed": 1384069, "internal_node_id": "0.0-199.0"}}, {"uniqueid": "MTK1107:373ERPL3YPFTW7221D6T02NX8XCRTR", "current_trial": 272, "dateTime": 1513111744980, "trialdata": {"rt": -1, "stimulus": "<p id=\"stim\">CHIPMUNK</p>", "key_press": -1, "type": "PRES_VIS", "word": "chipmunk", "wordID": 303, "conditions": [24, 1600, "v", 24000], "trial": 7, "serialpos": 7, "trial_type": "single-stim", "trial_index": 272, "time_elapsed": 1386686, "internal_node_id": "0.0-200.0"}}, {"uniqueid": "MTK1107:373ERPL3YPFTW7221D6T02NX8XCRTR", "current_trial": 273, "dateTime": 1513111747603, "trialdata": {"rt": -1, "stimulus": "<p id=\"stim\">WAGON</p>", "key_press": -1, "type": "PRES_VIS", "word": "wagon", "wordID": 1577, "conditions": [24, 1600, "v", 24000], "trial": 7, "serialpos": 8, "trial_type": "single-stim", "trial_index": 273, "time_elapsed": 1389309, "internal_node_id": "0.0-201.0"}}, {"uniqueid": "MTK1107:373ERPL3YPFTW7221D6T02NX8XCRTR", "current_trial": 274, "dateTime": 1513111750049, "trialdata": {"rt": -1, "stimulus": "<p id=\"stim\">DRAGON</p>", "key_press": -1, "type": "PRES_VIS", "word": "dragon", "wordID": 491, "conditions": [24, 1600, "v", 24000], "trial": 7, "serialpos": 9, "trial_type": "single-stim", "trial_in