{"condition": 0, "counterbalance": 1117, "assignmentId": "3NPI0JQDAPC8KUMNOL24V7NI7H7TPO", "workerId": "MTK1139", "hitId": "3ATYLI1PRT9UY7GN7P6JFHZZKY7OJ6", "currenttrial": 626, "bonus": 0, "data": [{"uniqueid": "MTK1139:3NPI0JQDAPC8KUMNOL24V7NI7H7TPO", "current_trial": 0, "dateTime": 1513195117146, "trialdata": {"rt": 4546, "key_press": 32, "type": "INSTRUCTIONS", "trial_type": "text", "trial_index": 0, "time_elapsed": 4555, "internal_node_id": "0.0-0.0"}}, {"uniqueid": "MTK1139:3NPI0JQDAPC8KUMNOL24V7NI7H7TPO", "current_trial": 1, "dateTime": 1513195250882, "trialdata": {"rt": 133732, "key_press": 32, "type": "INSTRUCTIONS", "trial_type": "text", "trial_index": 1, "time_elapsed": 138294, "internal_node_id": "0.0-1.0"}}, {"uniqueid": "MTK1139:3NPI0JQDAPC8KUMNOL24V7NI7H7TPO", "current_trial": 2, "dateTime": 1513195265002, "trialdata": {"rt": [14096], "responses": ["ocean"], "type": "AUDIO_TEST", "trial_type": "audio-test", "trial_index": 2, "time_elapsed": 152415, "internal_node_id": "0.0-2.0"}}, {"uniqueid": "MTK1139:3NPI0JQDAPC8KUMNOL24V7NI7H7TPO", "current_trial": 3, "dateTime": 1513195288976, "trialdata": {"rt": [10499, 23962], "responses": ["crysal", "crystal"], "type": "AUDIO_TEST", "trial_type": "audio-test", "trial_index": 3, "time_elapsed": 176389, "internal_node_id": "0.0-3.0"}}, {"uniqueid": "MTK1139:3NPI0JQDAPC8KUMNOL24V7NI7H7TPO", "current_trial": 4, "dateTime": 1513195298192, "trialdata": {"rt": [9204], "responses": ["spice"], "type": "AUDIO_TEST", "trial_type": "audio-test", "trial_index": 4, "time_elapsed": 185605, "internal_node_id": "0.0-4.0"}}, {"uniqueid": "MTK1139:3NPI0JQDAPC8KUMNOL24V7NI7H7TPO", "current_trial": 5, "dateTime": 1513195317550, "trialdata": {"rt": 18598, "responses": "{\"Q0\":\"1am\",\"Q1\":\"8am\",\"Q2\":\"5\"}", "type": "SLEEP_SURVEY", "trial_type": "survey-text", "trial_index": 5, "time_elapsed": 204963, "internal_node_id": "0.0-5.0"}}, {"uniqueid": "MTK1139:3NPI0JQDAPC8KUMNOL24V7NI7H7TPO", "current_trial": 6, "dateTime": 1513195350493, "trialdata": {"rt": 31937, "key_press": 13, "type": "INSTRUCTIONS", "trial_type": "text", "trial_index": 6, "time_elapsed": 237906, "internal_node_id": "0.0-6.0"}}, {"uniqueid": "MTK1139:3NPI0JQDAPC8KUMNOL24V7NI7H7TPO", "current_trial": 7, "dateTime": 1513195369565, "trialdata": {"rt": 18565, "key_press": 13, "type": "INSTRUCTIONS", "trial_type": "text", "trial_index": 7, "time_elapsed": 256978, "internal_node_id": "0.0-7.0"}}, {"uniqueid": "MTK1139:3NPI0JQDAPC8KUMNOL24V7NI7H7TPO", "current_trial": 8, "dateTime": 1513195382956, "trialdata": {"rt": 12886, "key_press": 13, "type": "INSTRUCTIONS", "trial_type": "text", "trial_index": 8, "time_elapsed": 270369, "internal_node_id": "0.0-8.0"}}, {"uniqueid": "MTK1139:3NPI0JQDAPC8KUMNOL24V7NI7H7TPO", "current_trial": 9, "dateTime": 1513195401974, "trialdata": {"rt": [17963], "responses": ["17"], "num1": [2, 5], "num2": [6, 1], "num3": [9, 3], "type": "DISTRACTOR", "conditions": [18, 1200, "a", 18000], "trial": 0, "trial_type": "math-distractor", "trial_index": 9, "time_elapsed": 289387, "internal_node_id": "0.0-9.0"}}, {"uniqueid": "MTK1139:3NPI0JQDAPC8KUMNOL24V7NI7H7TPO", "current_trial": 10, "dateTime": 1513195404987, "trialdata": {"rt": -1, "stimulus": "<p id=\"stim\">10</p>", "key_press": -1, "trial_type": "single-stim", "trial_index": 10, "time_elapsed": 292400, "internal_node_id": "0.0-10.0-0.0"}}, {"uniqueid": "MTK1139:3NPI0JQDAPC8KUMNOL24V7NI7H7TPO", "current_trial": 11, "dateTime": 1513195405991, "trialdata": {"rt": -1, "stimulus": "<p id=\"stim\">9</p>", "key_press": -1, "trial_type": "single-stim", "trial_index": 11, "time_elapsed": 293404, "internal_node_id": "0.0-10.0-1.0"}}, {"uniqueid": "MTK1139:3NPI0JQDAPC8KUMNOL24V7NI7H7TPO", "current_trial": 12, "dateTime": 1513195406998, "trialdata": {"rt": -1, "stimulus": "<p id=\"stim\">8</p>", "key_press": -1, "trial_type": "single-stim", "trial_index": 12, "time_elapsed": 294410, "internal_node_id": "0.0-10.0-2.0"}}, {"uniqueid": "MTK1139:3NPI0JQDAPC8KUMNOL24V7NI7H7TPO", "current_trial": 13, "dateTime": 1513195408004, "trialdata": {"rt": -1, "stimulus": "<p id=\"stim\">7</p>", "key_press": -1, "trial_type": "single-stim", "trial_index": 13, "time_elapsed": 295417, "internal_node_id": "0.0-10.0-3.0"}}, {"uniqueid": "MTK1139:3NPI0JQDAPC8KUMNOL24V7NI7H7TPO", "current_trial": 14, "dateTime": 1513195409008, "trialdata": {"rt": -1, "stimulus": "<p id=\"stim\">6</p>", "key_press": -1, "trial_type": "single-stim", "trial_index": 14, "time_elapsed": 296421, "internal_node_id": "0.0-10.0-4.0"}}, {"uniqueid": "MTK1139:3NPI0JQDAPC8KUMNOL24V7NI7H7TPO", "current_trial": 15, "dateTime": 1513195410014, "trialdata": {"rt": -1, "stimulus": "<p id=\"stim\">5</p>", "key_press": -1, "trial_type": "single-stim", "trial_index": 15, "time_elapsed": 297427, "internal_node_id": "0.0-10.0-5.0"}}, {"uniqueid": "MTK1139:3NPI0JQDAPC8KUMNOL24V7NI7H7TPO", "current_trial": 16, "dateTime": 1513195411016, "trialdata": {"rt": -1, "stimulus": "<p id=\"stim\">4</p>", "key_press": -1, "trial_type": "single-stim", "trial_index": 16, "time_elapsed": 298429, "internal_node_id": "0.0-10.0-6.0"}}, {"uniqueid": "MTK1139:3NPI0JQDAPC8KUMNOL24V7NI7H7TPO", "current_trial": 17, "dateTime": 1513195412020, "trialdata": {"rt": -1, "stimulus": "<p id=\"stim\">3</p>", "key_press": -1, "trial_type": "single-stim", "trial_index": 17, "time_elapsed": 299433, "internal_node_id": "0.0-10.0-7.0"}}, {"uniqueid": "MTK1139:3NPI0JQDAPC8KUMNOL24V7NI7H7TPO", "current_trial": 18, "dateTime": 1513195413025, "trialdata": {"rt": -1, "stimulus": "<p id=\"stim\">2</p>", "key_press": -1, "trial_type": "single-stim", "trial_index": 18, "time_elapsed": 300437, "internal_node_id": "0.0-10.0-8.0"}}, {"uniqueid": "MTK1139:3NPI0JQDAPC8KUMNOL24V7NI7H7TPO", "current_trial": 19, "dateTime": 1513195414028, "trialdata": {"rt": -1, "stimulus": "<p id=\"stim\">1</p>", "key_press": -1, "trial_type": "single-stim", "trial_index": 19, "time_elapsed": 301441, "internal_node_id": "0.0-10.0-9.0"}}, {"uniqueid": "MTK1139:3NPI0JQDAPC8KUMNOL24V7NI7H7TPO", "current_trial": 20, "dateTime": 1513195415532, "trialdata": {"rt": -1, "stimulus": "<p id=\"stim\">+</p>", "key_press": -1, "type": "FIXATION", "trial_type": "single-stim", "trial_index": 20, "time_elapsed": 302944, "internal_node_id": "0.0-11.0-0.0"}}, {"uniqueid": "MTK1139:3NPI0JQDAPC8KUMNOL24V7NI7H7TPO", "current_trial": 21, "dateTime": 1513195417830, "trialdata": {"rt": -1000, "stimulus": "/static/audio/wordpool/ROBOT.wav", "key_press": -1, "type": "PRES_AUD", "word": "robot", "wordID": 1199, "conditions": [18, 1200, "a", 18000], "trial": 0, "serialpos": 0, "trial_type": "single-audio", "trial_index": 21, "time_elapsed": 305243, "internal_node_id": "0.0-12.0"}}, {"uniqueid": "MTK1139:3NPI0JQDAPC8KUMNOL24V7NI7H7TPO", "current_trial": 22, "dateTime": 1513195420135, "trialdata": {"rt": -1000, "stimulus": "/static/audio/wordpool/BEEF.wav", "key_press": -1, "type": "PRES_AUD", "word": "beef", "wordID": 112, "conditions": [18, 1200, "a", 18000], "trial": 0, "serialpos": 1, "trial_type": "single-audio", "trial_index": 22, "time_elapsed": 307547, "internal_node_id": "0.0-13.0"}}, {"uniqueid": "MTK1139:3NPI0JQDAPC8KUMNOL24V7NI7H7TPO", "current_trial": 23, "dateTime": 1513195422375, "trialdata": {"rt": -1000, "stimulus": "/static/audio/wordpool/TREAT.wav", "key_press": -1, "type": "PRES_AUD", "word": "treat", "wordID": 1500, "conditions": [18, 1200, "a", 18000], "trial": 0, "serialpos": 2, "trial_type": "single-audio", "trial_index": 23, "time_elapsed": 309788, "internal_node_id": "0.0-14.0"}}, {"uniqueid": "MTK1139:3NPI0JQDAPC8KUMNOL24V7NI7H7TPO", "current_trial": 24, "dateTime": 1513195424759, "trialdata": {"rt": -1000, "stimulus": "/static/audio/wordpool/PLASTER.wav", "key_press": -1, "type": "PRES_AUD", "word": "plaster", "wordID": 1084, "conditions": [18, 1200, "a", 18000], "trial": 0, "serialpos": 3, "trial_type": "single-audio", "trial_index": 24, "time_elapsed": 312172, "internal_node_id": "0.0-15.0"}}, {"uniqueid": "MTK1139:3NPI0JQDAPC8KUMNOL24V7NI7H7TPO", "current_trial": 25, "dateTime": 1513195427036, "trialdata": {"rt": -1000, "stimulus": "/static/audio/wordpool/HIKER.wav", "key_press": -1, "type": "PRES_AUD", "word": "hiker", "wordID": 707, "conditions": [18, 1200, "a", 18000], "trial": 0, "serialpos": 4, "trial_type": "single-audio", "trial_index": 25, "time_elapsed": 314449, "internal_node_id": "0.0-16.0"}}, {"uniqueid": "MTK1139:3NPI0JQDAPC8KUMNOL24V7NI7H7TPO", "current_trial": 26, "dateTime": 1513195429097, "trialdata": {"rt": -1000, "stimulus": "/static/audio/wordpool/STAMP.wav", "key_press": -1, "type": "PRES_AUD", "word": "stamp", "wordID": 1369, "conditions": [18, 1200, "a", 18000], "trial": 0, "serialpos": 5, "trial_type": "single-audio", "trial_index": 26, "time_elapsed": 316510, "internal_node_id": "0.0-17.0"}}, {"uniqueid": "MTK1139:3NPI0JQDAPC8KUMNOL24V7NI7H7TPO", "current_trial": 27, "dateTime": 1513195431280, "trialdata": {"rt": -1000, "stimulus": "/static/audio/wordpool/OUTDOORS.wav", "key_press": -1, "type": "PRES_AUD", "word": "outdoors", "wordID": 986, "conditions": [18, 1200, "a", 18000], "trial": 0, "serialpos": 6, "trial_type": "single-audio", "trial_index": 27, "time_elapsed": 318693, "internal_node_id": "0.0-18.0"}}, {"uniqueid": "MTK1139:3NPI0JQDAPC8KUMNOL24V7NI7H7TPO", "current_trial": 28, "dateTime": 1513195433376, "trialdata": {"rt": -1000, "stimulus": "/static/audio/wordpool/UMPIRE.wav", "key_press": -1, "type": "PRES_AUD", "word": "umpire", "wordID": 1534, "conditions": [18, 1200, "a", 18000], "trial": 0, "serialpos": 7, "trial_type": "single-audio", "trial_index": 28, "time_elapsed": 320788, "internal_node_id": "0.0-19.0"}}, {"uniqueid": "MTK1139:3NPI0JQDAPC8KUMNOL24V7NI7H7TPO", "current_trial": 29, "dateTime": 1513195435607, "trialdata": {"rt": -1000, "stimulus": "/static/audio/wordpool/CASKET.wav", "key_press": -1, "type": "PRES_AUD", "word": "casket", "wordID": 254, "conditions": [18, 1200, "a", 18000], "trial": 0, "serialpos": 8, "trial_type": "single-audio", "trial_index": 29, "time_elapsed": 323019, "internal_node_id": "0.0-20.0"}}, {"uniqueid": "MTK1139:3NPI0JQDAPC8KUMNOL24V7NI7H7TPO", "current_trial": 30, "dateTime": 1513195437909, "trialdata": {"rt": -1000, "stimulus": "/static/audio/wordpool/MATTRESS.wav", "key_press": -1, "type": "PRES_AUD", "word": "mattress", "wordID": 878, "conditions": [18, 1200, "a", 18000], "trial": 0, "serialpos": 9, "trial_type": "single-audio", "trial_index": 30, "time_elapsed": 325322, "internal_node_id": "0.0-21.0"}}, {"uniqueid": "MTK1139:3NPI0JQDAPC8KUMNOL24V7NI7H7TPO", "current_trial": 31, "dateTime": 1513195440290, "trialdata": {"rt": -1000, "stimulus": "/static/audio/wordpool/TRANSPLANT.wav", "key_press": -1, "type": "PRES_AUD", "word": "transplant", "wordID": 1495, "conditions": [18, 1200, "a", 18000], "trial": 0, "serialpos": 10, "trial_type": "single-audio", "trial_index": 31, "time_elapsed": 327703, "internal_node_id": "0.0-22.0"}}, {"uniqueid": "MTK1139:3NPI0JQDAPC8KUMNOL24V7NI7H7TPO", "current_trial": 32, "dateTime": 1513195442512, "trialdata": {"rt": -1000, "stimulus": "/static/audio/wordpool/ASIA.wav", "key_press": -1, "type": "PRES_AUD", "word": "asia", "wordID": 45, "conditions": [18, 1200, "a", 18000], "trial": 0, "serialpos": 11, "trial_type": "single-audio", "trial_index": 32, "time_elapsed": 329925, "internal_node_id": "0.0-23.0"}}, {"uniqueid": "MTK1139:3NPI0JQDAPC8KUMNOL24V7NI7H7TPO", "current_trial": 33, "dateTime": 1513195444569, "trialdata": {"rt": -1000, "stimulus": "/static/audio/wordpool/SUSPECT.wav", "key_press": -1, "type": "PRES_AUD", "word": "suspect", "wordID": 1414, "conditions": [18, 1200, "a", 18000], "trial": 0, "serialpos": 12, "trial_type": "single-audio", "trial_index": 33, "time_elapsed": 331982, "internal_node_id": "0.0-24.0"}}, {"uniqueid": "MTK1139:3NPI0JQDAPC8KUMNOL24V7NI7H7TPO", "current_trial": 34, "dateTime": 1513195446651, "trialdata": {"rt": -1000, "stimulus": "/static/audio/wordpool/LAKE.wav", "key_press": -1, "type": "PRES_AUD", "word": "lake", "wordID": 795, "conditions": [18, 1200, "a", 18000], "trial": 0, "serialpos": 13, "trial_type": "single-audio", "trial_index": 34, "time_elapsed": 334064, "internal_node_id": "0.0-25.0"}}, {"uniqueid": "MTK1139:3NPI0JQDAPC8KUMNOL24V7NI7H7TPO", "current_trial": 35, "dateTime": 1513195448987, "trialdata": {"rt": -1000, "stimulus": "/static/audio/wordpool/COUNTRY.wav", "key_press": -1, "type": "PRES_AUD", "word": "country", "wordID": 387, "conditions": [18, 1200, "a", 18000], "trial": 0, "serialpos": 14, "trial_type": "single-audio", "trial_index": 35, "time_elapsed": 336399, "internal_node_id": "0.0-26.0"}}, {"uniqueid": "MTK1139:3NPI0JQDAPC8KUMNOL24V7NI7H7TPO", "current_trial": 36, "dateTime": 1513195451208, "trialdata": {"rt": -1000, "stimulus": "/static/audio/wordpool/POCKET.wav", "key_press": -1, "type": "PRES_AUD", "word": "pocket", "wordID": 1092, "conditions": [18, 1200, "a", 18000], "trial": 0, "serialpos": 15, "trial_type": "single-audio", "trial_index": 36, "time_elapsed": 338621, "internal_node_id": "0.0-27.0"}}, {"uniqueid": "MTK1139:3NPI0JQDAPC8KUMNOL24V7NI7H7TPO", "current_trial": 37, "dateTime": 1513195453240, "trialdata": {"rt": -1000, "stimulus": "/static/audio/wordpool/STATUE.wav", "key_press": -1, "type": "PRES_AUD", "word": "statue", "wordID": 1373, "conditions": [18, 1200, "a", 18000], "trial": 0, "serialpos": 16, "trial_type": "single-audio", "trial_index": 37, "time_elapsed": 340652, "internal_node_id": "0.0-28.0"}}, {"uniqueid": "MTK1139:3NPI0JQDAPC8KUMNOL24V7NI7H7TPO", "current_trial": 38, "dateTime": 1513195455479, "trialdata": {"rt": -1000, "stimulus": "/static/audio/wordpool/LOVER.wav", "key_press": -1, "type": "PRES_AUD", "word": "lover", "wordID": 845, "conditions": [18, 1200, "a", 18000], "trial": 0, "serialpos": 17, "trial_type": "single-audio", "trial_index": 38, "time_elapsed": 342891, "internal_node_id": "0.0-29.0"}}, {"uniqueid": "MTK1139:3NPI0JQDAPC8KUMNOL24V7NI7H7TPO", "current_trial": 39, "dateTime": 1513195456860, "trialdata": {"rt": -1, "stimulus": "", "key_press": -1, "type": "PRE_RECALL_DELAY", "trial_type": "single-stim", "trial_index": 39, "time_elapsed": 344273, "internal_node_id": "0.0-30.0-0.0"}}, {"uniqueid": "MTK1139:3NPI0JQDAPC8KUMNOL24V7NI7H7TPO", "current_trial": 40, "dateTime": 1513195457363, "trialdata": {"rt": -1000, "stimulus": "/static/audio/400Hz.wav", "key_press": -1, "type": "PRE_RECALL_ALERT", "trial_type": "single-audio", "trial_index": 40, "time_elapsed": 344776, "internal_node_id": "0.0-31.0"}}, {"uniqueid": "MTK1139:3NPI0JQDAPC8KUMNOL24V7NI7H7TPO", "current_trial": 41, "dateTime": 1513195517382, "trialdata": {"rt": [6072, 7977, 10992, 13232, 18144, 21290, 26721, 34600, 38848, 44744, 51279, 55759], "recwords": ["lake", "lover", "asia", "matress", "hiker", "country", "beef", "statu", "stamp", "pocket", "treat", ""], "type": "FREE_RECALL", "conditions": [18, 1200, "a", 18000], "trial": 0, "trial_type": "free-recall", "trial_index": 41, "time_elapsed": 404788, "internal_node_id": "0.0-32.0-0.0"}}, {"uniqueid": "MTK1139:3NPI0JQDAPC8KUMNOL24V7NI7H7TPO", "current_trial": 42, "dateTime": 1513195521921, "trialdata": {"rt": 2532, "key_press": 76, "type": "INSTRUCTIONS", "trial_type": "text", "trial_index": 42, "time_elapsed": 409334, "internal_node_id": "0.0-33.0"}}, {"uniqueid": "MTK1139:3NPI0JQDAPC8KUMNOL24V7NI7H7TPO", "current_trial": 43, "dateTime": 1513195541936, "trialdata": {"rt": [5928, 12512, 16064], "responses": ["19", "24", "12"], "num1": [7, 7, 2, 5], "num2": [6, 8, 1, 8], "num3": [6, 9, 9, 7], "type": "DISTRACTOR", "conditions": [18, 1200, "v", 18000], "trial": 1, "trial_type": "math-distractor", "trial_index": 43, "time_elapsed": 429348, "internal_node_id": "0.0-34.0"}}, {"uniqueid": "MTK1139:3NPI0JQDAPC8KUMNOL24V7NI7H7TPO", "current_trial": 44, "dateTime": 1513195544943, "trialdata": {"rt": -1, "stimulus": "<p id=\"stim\">10</p>", "key_press": -1, "trial_type": "single-stim", "trial_index": 44, "time_elapsed": 432355, "internal_node_id": "0.0-35.0-0.0"}}, {"uniqueid": "MTK1139:3NPI0JQDAPC8KUMNOL24V7NI7H7TPO", "current_trial": 45, "dateTime": 1513195545950, "trialdata": {"rt": -1, "stimulus": "<p id=\"stim\">9</p>", "key_press": -1, "trial_type": "single-stim", "trial_index": 45, "time_elapsed": 433363, "internal_node_id": "0.0-35.0-1.0"}}, {"uniqueid": "MTK1139:3NPI0JQDAPC8KUMNOL24V7NI7H7TPO", "current_trial": 46, "dateTime": 1513195546957, "trialdata": {"rt": -1, "stimulus": "<p id=\"stim\">8</p>", "key_press": -1, "trial_type": "single-stim", "trial_index": 46, "time_elapsed": 434369, "internal_node_id": "0.0-35.0-2.0"}}, {"uniqueid": "MTK1139:3NPI0JQDAPC8KUMNOL24V7NI7H7TPO", "current_trial": 47, "dateTime": 1513195547960, "trialdata": {"rt": -1, "stimulus": "<p id=\"stim\">7</p>", "key_press": -1, "trial_type": "single-stim", "trial_index": 47, "time_elapsed": 435373, "internal_node_id": "0.0-35.0-3.0"}}, {"uniqueid": "MTK1139:3NPI0JQDAPC8KUMNOL24V7NI7H7TPO", "current_trial": 48, "dateTime": 1513195548965, "trialdata": {"rt": -1, "stimulus": "<p id=\"stim\">6</p>", "key_press": -1, "trial_type": "single-stim", "trial_index": 48, "time_elapsed": 436377, "internal_node_id": "0.0-35.0-4.0"}}, {"uniqueid": "MTK1139:3NPI0JQDAPC8KUMNOL24V7NI7H7TPO", "current_trial": 49, "dateTime": 1513195549969, "trialdata": {"rt": -1, "stimulus": "<p id=\"stim\">5</p>", "key_press": -1, "trial_type": "single-stim", "trial_index": 49, "time_elapsed": 437381, "internal_node_id": "0.0-35.0-5.0"}}, {"uniqueid": "MTK1139:3NPI0JQDAPC8KUMNOL24V7NI7H7TPO", "current_trial": 50, "dateTime": 1513195550973, "trialdata": {"rt": -1, "stimulus": "<p id=\"stim\">4</p>", "key_press": -1, "trial_type": "single-stim", "trial_index": 50, "time_elapsed": 438385, "internal_node_id": "0.0-35.0-6.0"}}, {"uniqueid": "MTK1139:3NPI0JQDAPC8KUMNOL24V7NI7H7TPO", "current_trial": 51, "dateTime": 1513195551977, "trialdata": {"rt": -1, "stimulus": "<p id=\"stim\">3</p>", "key_press": -1, "trial_type": "single-stim", "trial_index": 51, "time_elapsed": 439389, "internal_node_id": "0.0-35.0-7.0"}}, {"uniqueid": "MTK1139:3NPI0JQDAPC8KUMNOL24V7NI7H7TPO", "current_trial": 52, "dateTime": 1513195552981, "trialdata": {"rt": -1, "stimulus": "<p id=\"stim\">2</p>", "key_press": -1, "trial_type": "single-stim", "trial_index": 52, "time_elapsed": 440394, "internal_node_id": "0.0-35.0-8.0"}}, {"uniqueid": "MTK1139:3NPI0JQDAPC8KUMNOL24V7NI7H7TPO", "current_trial": 53, "dateTime": 1513195553987, "trialdata": {"rt": -1, "stimulus": "<p id=\"stim\">1</p>", "key_press": -1, "trial_type": "single-stim", "trial_index": 53, "time_elapsed": 441400, "internal_node_id": "0.0-35.0-9.0"}}, {"uniqueid": "MTK1139:3NPI0JQDAPC8KUMNOL24V7NI7H7TPO", "current_trial": 54, "dateTime": 1513195555494, "trialdata": {"rt": -1, "stimulus": "<p id=\"stim\">+</p>", "key_press": -1, "type": "FIXATION", "trial_type": "single-stim", "trial_index": 54, "time_elapsed": 442907, "internal_node_id": "0.0-36.0-0.0"}}, {"uniqueid": "MTK1139:3NPI0JQDAPC8KUMNOL24V7NI7H7TPO", "current_trial": 55, "dateTime": 1513195556701, "trialdata": {"rt": -1, "stimulus": "<p id=\"stim\">SEAFOOD</p>", "key_press": -1, "type": "PRES_VIS", "word": "seafood", "wordID": 1259, "conditions": [18, 1200, "v", 18000], "trial": 1, "serialpos": 0, "trial_type": "single-stim", "trial_index": 55, "time_elapsed": 444114, "internal_node_id": "0.0-37.0"}}, {"uniqueid": "MTK1139:3NPI0JQDAPC8KUMNOL24V7NI7H7TPO", "current_trial": 56, "dateTime": 1513195559092, "trialdata": {"rt": -1, "stimulus": "<p id=\"stim\">KNIFE</p>", "key_press": -1, "type": "PRES_VIS", "word": "knife", "wordID": 784, "conditions": [18, 1200, "v", 18000], "trial": 1, "serialpos": 1, "trial_type": "single-stim", "trial_index": 56, "time_elapsed": 446505, "internal_node_id": "0.0-38.0"}}, {"uniqueid": "MTK1139:3NPI0JQDAPC8KUMNOL24V7NI7H7TPO", "current_trial": 57, "dateTime": 1513195561437, "trialdata": {"rt": -1, "stimulus": "<p id=\"stim\">WINDOW</p>", "key_press": -1, "type": "PRES_VIS", "word": "window", "wordID": 1610, "conditions": [18, 1200, "v", 18000], "trial": 1, "serialpos": 2, "trial_type": "single-stim", "trial_index": 57, "time_elapsed": 448850, "internal_node_id": "0.0-39.0"}}, {"uniqueid": "MTK1139:3NPI0JQDAPC8KUMNOL24V7NI7H7TPO", "current_trial": 58, "dateTime": 1513195563718, "trialdata": {"rt": -1, "stimulus": "<p id=\"stim\">TRENCH</p>", "key_press": -1, "type": "PRES_VIS", "word": "trench", "wordID": 1502, "conditions": [18, 1200, "v", 18000], "trial": 1, "serialpos": 3, "trial_type": "single-stim", "trial_index": 58, "time_elapsed": 451131, "internal_node_id": "0.0-40.0"}}, {"uniqueid": "MTK1139:3NPI0JQDAPC8KUMNOL24V7NI7H7TPO", "current_trial": 59, "dateTime": 1513195566103, "trialdata": {"rt": -1, "stimulus": "<p id=\"stim\">IGLOO</p>", "key_press": -1, "type": "PRES_VIS", "word": "igloo", "wordID": 733, "conditions": [18, 1200, "v", 18000], "trial": 1, "serialpos": 4, "trial_type": "single-stim", "trial_index": 59, "time_elapsed": 453516, "internal_node_id": "0.0-41.0"}}, {"uniqueid": "MTK1139:3NPI0JQDAPC8KUMNOL24V7NI7H7TPO", "current_trial": 60, "dateTime": 1513195568308, "trialdata": {"rt": -1, "stimulus": "<p id=\"stim\">BURGLAR</p>", "key_press": -1, "type": "PRES_VIS", "word": "burglar", "wordID": 199, "conditions": [18, 1200, "v", 18000], "trial": 1, "serialpos": 5, "trial_type": "single-stim", "trial_index": 60, "time_elapsed": 455721, "internal_node_id": "0.0-42.0"}}, {"uniqueid": "MTK1139:3NPI0JQDAPC8KUMNOL24V7NI7H7TPO", "current_trial": 61, "dateTime": 1513195570671, "trialdata": {"rt": -1, "stimulus": "<p id=\"stim\">PARENT</p>", "key_press": -1, "type": "PRES_VIS", "word": "parent", "wordID": 1012, "conditions": [18, 1200, "v", 18000], "trial": 1, "serialpos": 6, "trial_type": "single-stim", "trial_index": 61, "time_elapsed": 458084, "internal_node_id": "0.0-43.0"}}, {"uniqueid": "MTK1139:3NPI0JQDAPC8KUMNOL24V7NI7H7TPO", "current_trial": 62, "dateTime": 1513195573004, "trialdata": {"rt": -1, "stimulus": "<p id=\"stim\">RAZOR</p>", "key_press": -1, "type": "PRES_VIS", "word": "razor", "wordID": 1170, "conditions": [18, 1200, "v", 18000], "trial": 1, "serialpos": 7, "trial_type": "single-stim", "trial_index": 62, "time_elapsed": 460416, "internal_node_id": "0.0-44.0"}}, {"uniqueid": "MTK1139:3NPI0JQDAPC8KUMNOL24V7NI7H7TPO", "current_trial": 63, "dateTime": 1513195575390, "trialdata": {"rt": -1, "stimulus": "<p id=\"stim\">KIDNEY</p>", "key_press": -1, "type": "PRES_VIS", "word": "kidney", "wordID": 775, "conditions": [18, 1200, "v", 18000], "trial": 1, "serialpos": 8, "trial_type": "single-stim", "trial_index": 63, "time_elapsed": 462802, "internal_node_id": "0.0-45.0"}}, {"uniqueid": "MTK1139:3NPI0JQDAPC8KUMNOL24V7NI7H7TPO", "current_trial": 64, "dateTime": 1513195577398, "trialdata": {"rt": -1, "stimulus": "<p id=\"stim\">CONCERT</p>", "key_press": -1, "type": "PRES_VIS", "word": "concert", "wordID": 359, "conditions": [18, 1200, "v", 18000], "trial": 1, "serialpos": 9, "trial_type": "single-stim", "trial_index": 64, "time_elapsed": 464810, "internal_node_id": "0.0-46.0"}}, {"uniqueid": "MTK1139:3NPI0JQDAPC8KUMNOL24V7NI7H7TPO", "current_trial": 65, "dateTime": 1513195579719, "trialdata": {"rt": -1, "stimulus": "<p id=\"stim\">LION</p>", "key_press": -1, "type": "PRES_VIS", "word": "lion", "wordID": 826, "conditions": [18, 1200, "v", 18000], "trial": 1, "serialpos": 10, "trial_type": "single-stim", "trial_index": 65, "time_elapsed": 467132, "internal_node_id": "0.0-47.0"}}, {"uniqueid": "MTK1139:3NPI0JQDAPC8KUMNOL24V7NI7H7TPO", "current_trial": 66, "dateTime": 1513195581733, "trialdata": {"rt": -1, "stimulus": "<p id=\"stim\">POSTAGE</p>", "key_press": -1, "type": "PRES_VIS", "word": "postage", "wordID": 1112, "conditions": [18, 1200, "v", 18000], "trial": 1, "serialpos": 11, "trial_type": "single-stim", "trial_index": 66, "time_elapsed": 469146, "internal_node_id": "0.0-48.0"}}, {"uniqueid": "MTK1139:3NPI0JQDAPC8KUMNOL24V7NI7H7TPO", "current_trial": 67, "dateTime": 1513195584027, "trialdata": {"rt": -1, "stimulus": "<p id=\"stim\">CRICKET</p>", "key_press": -1, "type": "PRES_VIS", "word": "cricket", "wordID": 407, "conditions": [18, 1200, "v", 18000], "trial": 1, "serialpos": 12, "trial_type": "single-stim", "trial_index": 67, "time_elapsed": 471439, "internal_node_id": "0.0-49.0"}}, {"uniqueid": "MTK1139:3NPI0JQDAPC8KUMNOL24V7NI7H7TPO", "current_trial": 68, "dateTime": 1513195586368, "trialdata": {"rt": -1, "stimulus": "<p id=\"stim\">TOURIST</p>", "key_press": -1, "type": "PRES_VIS", "word": "tourist", "wordID": 1487, "conditions": [18, 1200, "v", 18000], "trial": 1, "serialpos": 13, "trial_type": "single-stim", "trial_index": 68, "time_elapsed": 473777, "internal_node_id": "0.0-50.0"}}, {"uniqueid": "MTK1139:3NPI0JQDAPC8KUMNOL24V7NI7H7TPO", "current_trial": 69, "dateTime": 1513195588512, "trialdata": {"rt": -1, "stimulus": "<p id=\"stim\">TROUT</p>", "key_press": -1, "type": "PRES_VIS", "word": "trout", "wordID": 1510, "conditions": [18, 1200, "v", 18000], "trial": 1, "serialpos": 14, "trial_type": "single-stim", "trial_index": 69, "time_elapsed": 475924, "internal_node_id": "0.0-51.0"}}, {"uniqueid": "MTK1139:3NPI0JQDAPC8KUMNOL24V7NI7H7TPO", "current_trial": 70, "dateTime": 1513195590556, "trialdata": {"rt": -1, "stimulus": "<p id=\"stim\">PATROL</p>", "key_press": -1, "type": "PRES_VIS", "word": "patrol", "wordID": 1026, "conditions": [18, 1200, "v", 18000], "trial": 1, "serialpos": 15, "trial_type": "single-stim", "trial_index": 70, "time_elapsed": 477969, "internal_node_id": "0.0-52.0"}}, {"uniqueid": "MTK1139:3NPI0JQDAPC8KUMNOL24V7NI7H7TPO", "current_trial": 71, "dateTime": 1513195592795, "trialdata": {"rt": -1, "stimulus": "<p id=\"stim\">ATLAS</p>", "key_press": -1, "type": "PRES_VIS", "word": "atlas", "wordID": 52, "conditions": [18, 1200, "v", 18000], "trial": 1, "serialpos": 16, "trial_type": "single-stim", "trial_index": 71, "time_elapsed": 480208, "internal_node_id": "0.0-53.0"}}, {"uniqueid": "MTK1139:3NPI0JQDAPC8KUMNOL24V7NI7H7TPO", "current_trial": 72, "dateTime": 1513195594983, "trialdata": {"rt": -1, "stimulus": "<p id=\"stim\">INMATE</p>", "key_press": -1, "type": "PRES_VIS", "word": "inmate", "wordID": 737, "conditions": [18, 1200, "v", 18000], "trial": 1, "serialpos": 17, "trial_type": "single-stim", "trial_index": 72, "time_elapsed": 482395, "internal_node_id": "0.0-54.0"}}, {"uniqueid": "MTK1139:3NPI0JQDAPC8KUMNOL24V7NI7H7TPO", "current_trial": 73, "dateTime": 1513195597426, "trialdata": {"rt": -1, "stimulus": "", "key_press": -1, "type": "PRE_RECALL_DELAY", "trial_type": "single-stim", "trial_index": 73, "time_elapsed": 484839, "internal_node_id": "0.0-55.0-0.0"}}, {"uniqueid": "MTK1139:3NPI0JQDAPC8KUMNOL24V7NI7H7TPO", "current_trial": 74, "dateTime": 1513195597929, "trialdata": {"rt": -1000, "stimulus": "/static/audio/400Hz.wav", "key_press": -1, "type": "PRE_RECALL_ALERT", "trial_type": "single-audio", "trial_index": 74, "time_elapsed": 485341, "internal_node_id": "0.0-56.0"}}, {"uniqueid": "MTK1139:3NPI0JQDAPC8KUMNOL24V7NI7H7TPO", "current_trial": 75, "dateTime": 1513195657944, "trialdata": {"rt": [4758, 6625, 9986, 12018, 13961, 17353, 18993, 21161, 22939, 24473, 30571, 33562, 49130, 50321], "recwords": ["inmate", "lion", "seafood", "trench", "igloo", "windo", "knife", "criket", "trout", "atas", "razor", "parent", "courage", ""], "type": "FREE_RECALL", "conditions": [18, 1200, "v", 18000], "trial": 1, "trial_type": "free-recall", "trial_index": 75, "time_elapsed": 545351, "internal_node_id": "0.0-57.0-0.0"}}, {"uniqueid": "MTK1139:3NPI0JQDAPC8KUMNOL24V7NI7H7TPO", "current_trial": 76, "dateTime": 1513195662604, "trialdata": {"rt": 2641, "key_press": 77, "type": "INSTRUCTIONS", "trial_type": "text", "trial_index": 76, "time_elapsed": 550002, "internal_node_id": "0.0-58.0"}}, {"uniqueid": "MTK1139:3NPI0JQDAPC8KUMNOL24V7NI7H7TPO", "current_trial": 77, "dateTime": 1513195675617, "trialdata": {"rt": [6300, 9699], "responses": ["16", "15"], "num1": [4, 2, 3], "num2": [7, 8, 2], "num3": [5, 5, 5], "type": "DISTRACTOR", "conditions": [12, 1600, "a", 12000], "trial": 2, "trial_type": "math-distractor", "trial_index": 77, "time_elapsed": 563029, "internal_node_id": "0.0-59.0"}}, {"uniqueid": "MTK1139:3NPI0JQDAPC8KUMNOL24V7NI7H7TPO", "current_trial": 78, "dateTime": 1513195678622, "trialdata": {"rt": -1, "stimulus": "<p id=\"stim\">10</p>", "key_press": -1, "trial_type": "single-stim", "trial_index": 78, "time_elapsed": 566035, "internal_node_id": "0.0-60.0-0.0"}}, {"uniqueid": "MTK1139:3NPI0JQDAPC8KUMNOL24V7NI7H7TPO", "current_trial": 79, "dateTime": 1513195679626, "trialdata": {"rt": -1, "stimulus": "<p id=\"stim\">9</p>", "key_press": -1, "trial_type": "single-stim", "trial_index": 79, "time_elapsed": 567039, "internal_node_id": "0.0-60.0-1.0"}}, {"uniqueid": "MTK1139:3NPI0JQDAPC8KUMNOL24V7NI7H7TPO", "current_trial": 80, "dateTime": 1513195680631, "trialdata": {"rt": -1, "stimulus": "<p id=\"stim\">8</p>", "key_press": -1, "trial_type": "single-stim", "trial_index": 80, "time_elapsed": 568043, "internal_node_id": "0.0-60.0-2.0"}}, {"uniqueid": "MTK1139:3NPI0JQDAPC8KUMNOL24V7NI7H7TPO", "current_trial": 81, "dateTime": 1513195681635, "trialdata": {"rt": -1, "stimulus": "<p id=\"stim\">7</p>", "key_press": -1, "trial_type": "single-stim", "trial_index": 81, "time_elapsed": 569047, "internal_node_id": "0.0-60.0-3.0"}}, {"uniqueid": "MTK1139:3NPI0JQDAPC8KUMNOL24V7NI7H7TPO", "current_trial": 82, "dateTime": 1513195682639, "trialdata": {"rt": -1, "stimulus": "<p id=\"stim\">6</p>", "key_press": -1, "trial_type": "single-stim", "trial_index": 82, "time_elapsed": 570052, "internal_node_id": "0.0-60.0-4.0"}}, {"uniqueid": "MTK1139:3NPI0JQDAPC8KUMNOL24V7NI7H7TPO", "current_trial": 83, "dateTime": 1513195683643, "trialdata": {"rt": -1, "stimulus": "<p id=\"stim\">5</p>", "key_press": -1, "trial_type": "single-stim", "trial_index": 83, "time_elapsed": 571056, "internal_node_id": "0.0-60.0-5.0"}}, {"uniqueid": "MTK1139:3NPI0JQDAPC8KUMNOL24V7NI7H7TPO", "current_trial": 84, "dateTime": 1513195684647, "trialdata": {"rt": -1, "stimulus": "<p id=\"stim\">4</p>", "key_press": -1, "trial_type": "single-stim", "trial_index": 84, "time_elapsed": 572060, "internal_node_id": "0.0-60.0-6.0"}}, {"uniqueid": "MTK1139:3NPI0JQDAPC8KUMNOL24V7NI7H7TPO", "current_trial": 85, "dateTime": 1513195685651, "trialdata": {"rt": -1, "stimulus": "<p id=\"stim\">3</p>", "key_press": -1, "trial_type": "single-stim", "trial_index": 85, "time_elapsed": 573064, "internal_node_id": "0.0-60.0-7.0"}}, {"uniqueid": "MTK1139:3NPI0JQDAPC8KUMNOL24V7NI7H7TPO", "current_trial": 86, "dateTime": 1513195686655, "trialdata": {"rt": -1, "stimulus": "<p id=\"stim\">2</p>", "key_press": -1, "trial_type": "single-stim", "trial_index": 86, "time_elapsed": 574068, "internal_node_id": "0.0-60.0-8.0"}}, {"uniqueid": "MTK1139:3NPI0JQDAPC8KUMNOL24V7NI7H7TPO", "current_trial": 87, "dateTime": 1513195687662, "trialdata": {"rt": -1, "stimulus": "<p id=\"stim\">1</p>", "key_press": -1, "trial_type": "single-stim", "trial_index": 87, "time_elapsed": 575075, "internal_node_id": "0.0-60.0-9.0"}}, {"uniqueid": "MTK1139:3NPI0JQDAPC8KUMNOL24V7NI7H7TPO", "current_trial": 88, "dateTime": 1513195689168, "trialdata": {"rt": -1, "stimulus": "<p id=\"stim\">+</p>", "key_press": -1, "type": "FIXATION", "trial_type": "single-stim", "trial_index": 88, "time_elapsed": 576581, "internal_node_id": "0.0-61.0-0.0"}}, {"uniqueid": "MTK1139:3NPI0JQDAPC8KUMNOL24V7NI7H7TPO", "current_trial": 89, "dateTime": 1513195691747, "trialdata": {"rt": -1000, "stimulus": "/static/audio/wordpool/MARS.wav", "key_press": -1, "type": "PRES_AUD", "word": "mars", "wordID": 872, "conditions": [12, 1600, "a", 12000], "trial": 2, "serialpos": 0, "trial_type": "single-audio", "trial_index": 89, "time_elapsed": 579160, "internal_node_id": "0.0-62.0"}}, {"uniqueid": "MTK1139:3NPI0JQDAPC8KUMNOL24V7NI7H7TPO", "current_trial": 90, "dateTime": 1513195694388, "trialdata": {"rt": -1000, "stimulus": "/static/audio/wordpool/BATHTUB.wav", "key_press": -1, "type": "PRES_AUD", "word": "bathtub", "wordID": 99, "conditions": [12, 1600, "a", 12000], "trial": 2, "serialpos": 1, "trial_type": "single-audio", "trial_index": 90, "time_elapsed": 581801, "internal_node_id": "0.0-63.0"}}, {"uniqueid": "MTK1139:3NPI0JQDAPC8KUMNOL24V7NI7H7TPO", "current_trial": 91, "dateTime": 1513195696931, "trialdata": {"rt": -1000, "stimulus": "/static/audio/wordpool/PIZZA.wav", "key_press": -1, "type": "PRES_AUD", "word": "pizza", "wordID": 1078, "conditions": [12, 1600, "a", 12000], "trial": 2, "serialpos": 2, "trial_type": "single-audio", "trial_index": 91, "time_elapsed": 584344, "internal_node_id": "0.0-64.0"}}, {"uniqueid": "MTK1139:3NPI0JQDAPC8KUMNOL24V7NI7H7TPO", "current_trial": 92, "dateTime": 1513195699625, "trialdata": {"rt": -1000, "stimulus": "/static/audio/wordpool/PIGEON.wav", "key_press": -1, "type": "PRES_AUD", "word": "pigeon", "wordID": 1064, "conditions": [12, 1600, "a", 12000], "trial": 2, "serialpos": 3, "trial_type": "single-audio", "trial_index": 92, "time_elapsed": 587038, "internal_node_id": "0.0-65.0"}}, {"uniqueid": "MTK1139:3NPI0JQDAPC8KUMNOL24V7NI7H7TPO", "current_trial": 93, "dateTime": 1513195702057, "trialdata": {"rt": -1000, "stimulus": "/static/audio/wordpool/VIRUS.wav", "key_press": -1, "type": "PRES_AUD", "word": "virus", "wordID": 1571, "conditions": [12, 1600, "a", 12000], "trial": 2, "serialpos": 4, "trial_type": "single-audio", "trial_index": 93, "time_elapsed": 589469, "internal_node_id": "0.0-66.0"}}, {"uniqueid": "MTK1139:3NPI0JQDAPC8KUMNOL24V7NI7H7TPO", "current_trial": 94, "dateTime": 1513195704686, "trialdata": {"rt": -1000, "stimulus": "/static/audio/wordpool/CASHIER.wav", "key_press": -1, "type": "PRES_AUD", "word": "cashier", "wordID": 253, "conditions": [12, 1600, "a", 12000], "trial": 2, "serialpos": 5, "trial_type": "single-audio", "trial_index": 94, "time_elapsed": 592099, "internal_node_id": "0.0-67.0"}}, {"uniqueid": "MTK1139:3NPI0JQDAPC8KUMNOL24V7NI7H7TPO", "current_trial": 95, "dateTime": 1513195707423, "trialdata": {"rt": -1000, "stimulus": "/static/audio/wordpool/ACTRESS.wav", "key_press": -1, "type": "PRES_AUD", "word": "actress", "wordID": 5, "conditions": [12, 1600, "a", 12000], "trial": 2, "serialpos": 6, "trial_type": "single-audio", "trial_index": 95, "time_elapsed": 594836, "internal_node_id": "0.0-68.0"}}, {"uniqueid": "MTK1139:3NPI0JQDAPC8KUMNOL24V7NI7H7TPO", "current_trial": 96, "dateTime": 1513195710041, "trialdata": {"rt": -1000, "stimulus": "/static/audio/wordpool/ACTOR.wav", "key_press": -1, "type": "PRES_AUD", "word": "actor", "wordID": 4, "conditions": [12, 1600, "a", 12000], "trial": 2, "serialpos": 7, "trial_type": "single-audio", "trial_index": 96, "time_elapsed": 597453, "internal_node_id": "0.0-69.0"}}, {"uniqueid": "MTK1139:3NPI0JQDAPC8KUMNOL24V7NI7H7TPO", "current_trial": 97, "dateTime": 1513195712796, "trialdata": {"rt": -1000, "stimulus": "/static/audio/wordpool/LUMBER.wav", "key_press": -1, "type": "PRES_AUD", "word": "lumber", "wordID": 847, "conditions": [12, 1600, "a", 12000], "trial": 2, "serialpos": 8, "trial_type": "single-audio", "trial_index": 97, "time_elapsed": 600208, "internal_node_id": "0.0-70.0"}}, {"uniqueid": "MTK1139:3NPI0JQDAPC8KUMNOL24V7NI7H7TPO", "current_trial": 98, "dateTime": 1513195715425, "trialdata": {"rt": -1000, "stimulus": "/static/audio/wordpool/CONTRACT.wav", "key_press": -1, "type": "PRES_AUD", "word": "contract", "wordID": 367, "conditions": [12, 1600, "a", 12000], "trial": 2, "serialpos": 9, "trial_type": "single-audio", "trial_index": 98, "time_elapsed": 602838, "internal_node_id": "0.0-71.0"}}, {"uniqueid": "MTK1139:3NPI0JQDAPC8KUMNOL24V7NI7H7TPO", "current_trial": 99, "dateTime": 1513195717991, "trialdata": {"rt": -1000, "stimulus": "/static/audio/wordpool/HAMPER.wav", "key_press": -1, "type": "PRES_AUD", "word": "hamper", "wordID": 681, "conditions": [12, 1600, "a", 12000], "trial": 2, "serialpos": 10, "trial_type": "single-audio", "trial_index": 99, "time_elapsed": 605404, "internal_node_id": "0.0-72.0"}}, {"uniqueid": "MTK1139:3NPI0JQDAPC8KUMNOL24V7NI7H7TPO", "current_trial": 100, "dateTime": 1513195720424, "trialdata": {"rt": -1000, "stimulus": "/static/audio/wordpool/SNACK.wav", "key_press": -1, "type": "PRES_AUD", "word": "snack", "wordID": 1330, "conditions": [12, 1600, "a", 12000], "trial": 2, "serialpos": 11, "trial_type": "single-audio", "trial_index": 100, "time_elapsed": 607836, "internal_node_id": "0.0-73.0"}}, {"uniqueid": "MTK1139:3NPI0JQDAPC8KUMNOL24V7NI7H7TPO", "current_trial": 101, "dateTime": 1513195721669, "trialdata": {"rt": -1, "stimulus": "", "key_press": -1, "type": "PRE_RECALL_DELAY", "trial_type": "single-stim", "trial_index": 101, "time_elapsed": 609081, "internal_node_id": "0.0-74.0-0.0"}}, {"uniqueid": "MTK1139:3NPI0JQDAPC8KUMNOL24V7NI7H7TPO", "current_trial": 102, "dateTime": 1513195722171, "trialdata": {"rt": -1000, "stimulus": "/static/audio/400Hz.wav", "key_press": -1, "type": "PRE_RECALL_ALERT", "trial_type": "single-audio", "trial_index": 102, "time_elapsed": 609584, "internal_node_id": "0.0-75.0"}}, {"uniqueid": "MTK1139:3NPI0JQDAPC8KUMNOL24V7NI7H7TPO", "current_trial": 103, "dateTime": 1513195782183, "trialdata": {"rt": [3014, 6110, 9479, 11182, 13383, 19397, 21486, 25399, 34181, 42189, 49677], "recwords": ["actor", "actress", "virus", "mars", "pizza", "cashier", "snack", "contract", "bathtub", "", "lumber"], "type": "FREE_RECALL", "conditions": [12, 1600, "a", 12000], "trial": 2, "trial_type": "free-recall", "trial_index": 103, "time_elapsed": 669591, "internal_node_id": "0.0-76.0-0.0"}}, {"uniqueid": "MTK1139:3NPI0JQDAPC8KUMNOL24V7NI7H7TPO", "current_trial": 104, "dateTime": 1513195786572, "trialdata": {"rt": 2386, "key_press": 78, "type": "INSTRUCTIONS", "trial_type": "text", "trial_index": 104, "time_elapsed": 673985, "internal_node_id": "0.0-77.0"}}, {"uniqueid": "MTK1139:3NPI0JQDAPC8KUMNOL24V7NI7H7TPO", "current_trial": 105, "dateTime": 1513195800583, "trialdata": {"rt": [4904, 10123], "responses": ["16", "13"], "num1": [3, 6, 6], "num2": [9, 2, 3], "num3": [4, 5, 4], "type": "DISTRACTOR", "conditions": [24, 1600, "v", 12000], "trial": 3, "trial_type": "math-distractor", "trial_index": 105, "time_elapsed": 687995, "internal_node_id": "0.0-78.0"}}, {"uniqueid": "MTK1139:3NPI0JQDAPC8KUMNOL24V7NI7H7TPO", "current_trial": 106, "dateTime": 1513195803588, "trialdata": {"rt": -1, "stimulus": "<p id=\"stim\">10</p>", "key_press": -1, "trial_type": "single-stim", "trial_index": 106, "time_elapsed": 691001, "internal_node_id": "0.0-79.0-0.0"}}, {"uniqueid": "MTK1139:3NPI0JQDAPC8KUMNOL24V7NI7H7TPO", "current_trial": 107, "dateTime": 1513195804593, "trialdata": {"rt": -1, "stimulus": "<p id=\"stim\">9</p>", "key_press": -1, "trial_type": "single-stim", "trial_index": 107, "time_elapsed": 692005, "internal_node_id": "0.0-79.0-1.0"}}, {"uniqueid": "MTK1139:3NPI0JQDAPC8KUMNOL24V7NI7H7TPO", "current_trial": 108, "dateTime": 1513195805599, "trialdata": {"rt": -1, "stimulus": "<p id=\"stim\">8</p>", "key_press": -1, "trial_type": "single-stim", "trial_index": 108, "time_elapsed": 693012, "internal_node_id": "0.0-79.0-2.0"}}, {"uniqueid": "MTK1139:3NPI0JQDAPC8KUMNOL24V7NI7H7TPO", "current_trial": 109, "dateTime": 1513195806606, "trialdata": {"rt": -1, "stimulus": "<p id=\"stim\">7</p>", "key_press": -1, "trial_type": "single-stim", "trial_index": 109, "time_elapsed": 694019, "internal_node_id": "0.0-79.0-3.0"}}, {"uniqueid": "MTK1139:3NPI0JQDAPC8KUMNOL24V7NI7H7TPO", "current_trial": 110, "dateTime": 1513195807611, "trialdata": {"rt": -1, "stimulus": "<p id=\"stim\">6</p>", "key_press": -1, "trial_type": "single-stim", "trial_index": 110, "time_elapsed": 695023, "internal_node_id": "0.0-79.0-4.0"}}, {"uniqueid": "MTK1139:3NPI0JQDAPC8KUMNOL24V7NI7H7TPO", "current_trial": 111, "dateTime": 1513195808615, "trialdata": {"rt": -1, "stimulus": "<p id=\"stim\">5</p>", "key_press": -1, "trial_type": "single-stim", "trial_index": 111, "time_elapsed": 696027, "internal_node_id": "0.0-79.0-5.0"}}, {"uniqueid": "MTK1139:3NPI0JQDAPC8KUMNOL24V7NI7H7TPO", "current_trial": 112, "dateTime": 1513195809618, "trialdata": {"rt": -1, "stimulus": "<p id=\"stim\">4</p>", "key_press": -1, "trial_type": "single-stim", "trial_index": 112, "time_elapsed": 697031, "internal_node_id": "0.0-79.0-6.0"}}, {"uniqueid": "MTK1139:3NPI0JQDAPC8KUMNOL24V7NI7H7TPO", "current_trial": 113, "dateTime": 1513195810623, "trialdata": {"rt": -1, "stimulus": "<p id=\"stim\">3</p>", "key_press": -1, "trial_type": "single-stim", "trial_index": 113, "time_elapsed": 698035, "internal_node_id": "0.0-79.0-7.0"}}, {"uniqueid": "MTK1139:3NPI0JQDAPC8KUMNOL24V7NI7H7TPO", "current_trial": 114, "dateTime": 1513195811627, "trialdata": {"rt": -1, "stimulus": "<p id=\"stim\">2</p>", "key_press": -1, "trial_type": "single-stim", "trial_index": 114, "time_elapsed": 699040, "internal_node_id": "0.0-79.0-8.0"}}, {"uniqueid": "MTK1139:3NPI0JQDAPC8KUMNOL24V7NI7H7TPO", "current_trial": 115, "dateTime": 1513195812630, "trialdata": {"rt": -1, "stimulus": "<p id=\"stim\">1</p>", "key_press": -1, "trial_type": "single-stim", "trial_index": 115, "time_elapsed": 700043, "internal_node_id": "0.0-79.0-9.0"}}, {"uniqueid": "MTK1139:3NPI0JQDAPC8KUMNOL24V7NI7H7TPO", "current_trial": 116, "dateTime": 1513195814134, "trialdata": {"rt": -1, "stimulus": "<p id=\"stim\">+</p>", "key_press": -1, "type": "FIXATION", "trial_type": "single-stim", "trial_index": 116, "time_elapsed": 701547, "internal_node_id": "0.0-80.0-0.0"}}, {"uniqueid": "MTK1139:3NPI0JQDAPC8KUMNOL24V7NI7H7TPO", "current_trial": 117, "dateTime": 1513195815736, "trialdata": {"rt": -1, "stimulus": "<p id=\"stim\">SMOG</p>", "key_press": -1, "type": "PRES_VIS", "word": "smog", "wordID": 1329, "conditions": [24, 1600, "v", 12000], "trial": 3, "serialpos": 0, "trial_type": "single-stim", "trial_index": 117, "time_elapsed": 703149, "internal_node_id": "0.0-81.0"}}, {"uniqueid": "MTK1139:3NPI0JQDAPC8KUMNOL24V7NI7H7TPO", "current_trial": 118, "dateTime": 1513195818182, "trialdata": {"rt": -1, "stimulus": "<p id=\"stim\">DANDRUFF</p>", "key_press": -1, "type": "PRES_VIS", "word": "dandruff", "wordID": 438, "conditions": [24, 1600, "v", 12000], "trial": 3, "serialpos": 1, "trial_type": "single-stim", "trial_index": 118, "time_elapsed": 705594, "internal_node_id": "0.0-82.0"}}, {"uniqueid": "MTK1139:3NPI0JQDAPC8KUMNOL24V7NI7H7TPO", "current_trial": 119, "dateTime": 1513195820976, "trialdata": {"rt": -1, "stimulus": "<p id=\"stim\">DUSTPAN</p>", "key_press": -1, "type": "PRES_VIS", "word": "dustpan", "wordID": 508, "conditions": [24, 1600, "v", 12000], "trial": 3, "serialpos": 2, "trial_type": "single-stim", "trial_index": 119, "time_elapsed": 708389, "internal_node_id": "0.0-83.0"}}, {"uniqueid": "MTK1139:3NPI0JQDAPC8KUMNOL24V7NI7H7TPO", "current_trial": 120, "dateTime": 1513195823693, "trialdata": {"rt": -1, "stimulus": "<p id=\"stim\">SKILLET</p>", "key_press": -1, "type": "PRES_VIS", "word": "skillet", "wordID": 1316, "conditions": [24, 1600, "v", 12000], "trial": 3, "serialpos": 3, "trial_type": "single-stim", "trial_index": 120, "time_elapsed": 711106, "internal_node_id": "0.0-84.0"}}, {"uniqueid": "MTK1139:3NPI0JQDAPC8KUMNOL24V7NI7H7TPO", "current_trial": 121, "dateTime": 1513195826264, "trialdata": {"rt": -1, "stimulus": "<p id=\"stim\">LADY</p>", "key_press": -1, "type": "PRES_VIS", "word": "lady", "wordID": 793, "conditions": [24, 1600, "v", 12000], "trial": 3, "serialpos": 4, "trial_type": "single-stim", "trial_index": 121, "time_elapsed": 713676, "internal_node_id": "0.0-85.0"}}, {"uniqueid": "MTK1139:3NPI0JQDAPC8KUMNOL24V7NI7H7TPO", "current_trial": 122, "dateTime": 1513195828992, "trialdata": {"rt": -1, "stimulus": "<p id=\"stim\">LEOPARD</p>", "key_press": -1, "type": "PRES_VIS", "word": "leopard", "wordID": 811, "conditions": [24, 1600, "v", 12000], "trial": 3, "serialpos": 5, "trial_type": "single-stim", "trial_index": 122, "time_elapsed": 716404, "internal_node_id": "0.0-86.0"}}, {"uniqueid": "MTK1139:3NPI0JQDAPC8KUMNOL24V7NI7H7TPO", "current_trial": 123, "dateTime": 1513195831505, "trialdata": {"rt": -1, "stimulus": "<p id=\"stim\">TOMBSTONE</p>", "key_press": -1, "type": "PRES_VIS", "word": "tombstone", "wordID": 1477, "conditions": [24, 1600, "v", 12000], "trial": 3, "serialpos": 6, "trial_type": "single-stim", "trial_index": 123, "time_elapsed": 718918, "internal_node_id": "0.0-87.0"}}, {"uniqueid": "MTK1139:3NPI0JQDAPC8KUMNOL24V7NI7H7TPO", "current_trial": 124, "dateTime": 1513195834308, "trialdata": {"rt": -1, "stimulus": "<p id=\"stim\">SISTER</p>", "key_press": -1, "type": "PRES_VIS", "word": "sister", "wordID": 1311, "conditions": [24, 1600, "v", 12000], "trial": 3, "serialpos": 7, "trial_type": "single-stim", "trial_index": 124, "time_elapsed": 721721, "internal_node_id": "0.0-88.0"}}, {"uniqueid": "MTK1139:3NPI0JQDAPC8KUMNOL24V7NI7H7TPO", "current_trial": 125, "dateTime": 1513195837088, "trialdata": {"rt": -1, "stimulus": "<p id=\"stim\">SIBLING</p>", "key_press": -1, "type": "PRES_VIS", "word": "sibling", "wordID": 1300, "conditions": [24, 1600, "v", 12000], "trial": 3, "serialpos": 8, "trial_type": "single-stim", "trial_index": 125, "time_elapsed": 724501, "internal_node_id": "0.0-89.0"}}, {"uniqueid": "MTK1139:3NPI0JQDAPC8KUMNOL24V7NI7H7TPO", "current_trial": 126, "dateTime": 1513195839633, "trialdata": {"rt": -1, "stimulus": "<p id=\"stim\">SPOON</p>", "key_press": -1, "type": "PRES_VIS", "word": "spoon", "wordID": 1356, "conditions": [24, 1600, "v", 12000], "trial": 3, "serialpos": 9, "trial_type": "single-stim", "trial_index": 126, "time_elapsed": 727045, "internal_node_id": "0.0-90.0"}}, {"uniqueid": "MTK1139:3NPI0JQDAPC8KUMNOL24V7NI7H7TPO", "current_trial": 127, "dateTime": 1513195842392, "trialdata": {"rt": -1, "stimulus": "<p id=\"stim\">RABBIT</p>", "key_press": -1, "type": "PRES_VIS", "word": "rabbit", "wordID": 1151, "conditions": [24, 1600, "v", 12000], "trial": 3, "serialpos": 10, "trial_type": "single-stim", "trial_index": 127, "time_elapsed": 729805, "internal_node_id": "0.0-91.0"}}, {"uniqueid": "MTK1139:3NPI0JQDAPC8KUMNOL24V7NI7H7TPO", "current_trial": 128, "dateTime": 1513195844801, "trialdata": {"rt": -1, "stimulus": "<p id=\"stim\">FRAME</p>", "key_press": -1, "type": "PRES_VIS", "word": "frame", "wordID": 599, "conditions": [24, 1600, "v", 12000], "trial": 3, "serialpos": 11, "trial_type": "single-stim", "trial_index": 128, "time_elapsed": 732214, "internal_node_id": "0.0-92.0"}}, {"uniqueid": "MTK1139:3NPI0JQDAPC8KUMNOL24V7NI7H7TPO", "current_trial": 129, "dateTime": 1513195847599, "trialdata": {"rt": -1, "stimulus": "<p id=\"stim\">ISLAND</p>", "key_press": -1, "type": "PRES_VIS", "word": "island", "wordID": 744, "conditions": [24, 1600, "v", 12000], "trial": 3, "serialpos": 12, "trial_type": "single-stim", "trial_index": 129, "time_elapsed": 735011, "internal_node_id": "0.0-93.0"}}, {"uniqueid": "MTK1139:3NPI0JQDAPC8KUMNOL24V7NI7H7TPO", "current_trial": 130, "dateTime": 1513195850048, "trialdata": {"rt": -1, "stimulus": "<p id=\"stim\">CUSTARD</p>", "key_press": -1, "type": "PRES_VIS", "word": "custard", "wordID": 428, "conditions": [24, 1600, "v", 12000], "trial": 3, "serialpos": 13, "trial_type": "single-stim", "trial_index": 130, "time_elapsed": 737461, "internal_node_id": "0.0-94.0"}}, {"uniqueid": "MTK1139:3NPI0JQDAPC8KUMNOL24V7NI7H7TPO", "current_trial": 131, "dateTime": 1513195852475, "trialdata": {"rt": -1, "stimulus": "<p id=\"stim\">GIFT</p>", "key_press": -1, "type": "PRES_VIS", "word": "gift", "wordID": 634, "conditions": [24, 1600, "v", 12000], "trial": 3, "serialpos": 14, "trial_type": "single-stim", "trial_index": 131, "time_elapsed": 739888, "internal_node_id": "0.0-95.0"}}, {"uniqueid": "MTK1139:3NPI0JQDAPC8KUMNOL24V7NI7H7TPO", "current_trial": 132, "dateTime": 1513195854988, "trialdata": {"rt": -1, "stimulus": "<p id=\"stim\">SURVEY</p>", "key_press": -1, "type": "PRES_VIS", "word": "survey", "wordID": 1413, "conditions": [24, 1600, "v", 12000], "trial": 3, "serialpos": 15, "trial_type": "single-stim", "trial_index": 132, "time_elapsed": 742400, "internal_node_id": "0.0-96.0"}}, {"uniqueid": "MTK1139:3NPI0JQDAPC8KUMNOL24V7NI7H7TPO", "current_trial": 133, "dateTime": 1513195857669, "trialdata": {"rt": -1, "stimulus": "<p id=\"stim\">BOUQUET</p>", "key_press": -1, "type": "PRES_VIS", "word": "bouquet", "wordID": 156, "conditions": [24, 1600, "v", 12000], "trial": 3, "serialpos": 16, "trial_type": "single-stim", "trial_index": 133, "time_elapsed": 745081, "internal_node_id": "0.0-97.0"}}, {"uniqueid": "MTK1139:3NPI0JQDAPC8KUMNOL24V7NI7H7TPO", "current_trial": 134, "dateTime": 1513195860315, "trialdata": {"rt": -1, "stimulus": "<p id=\"stim\">PUDDING</p>", "key_press": -1, "type": "PRES_VIS", "word": "pudding", "wordID": 1138, "conditions": [24, 1600, "v", 12000], "trial": 3, "serialpos": 17, "trial_type": "single-stim", "trial_index": 134, "time_elapsed": 747728, "internal_node_id": "0.0-98.0"}}, {"uniqueid": "MTK1139:3NPI0JQDAPC8KUMNOL24V7NI7H7TPO", "current_trial": 135, "dateTime": 1513195862834, "trialdata": {"rt": -1, "stimulus": "<p id=\"stim\">COOKBOOK</p>", "key_press": -1, "type": "PRES_VIS", "word": "cookbook", "wordID": 372, "conditions": [24, 1600, "v", 12000], "trial": 3, "serialpos": 18, "trial_type": "single-stim", "trial_index": 135, "time_elapsed": 750247, "internal_node_id": "0.0-99.0"}}, {"uniqueid": "MTK1139:3NPI0JQDAPC8KUMNOL24V7NI7H7TPO", "current_trial": 136, "dateTime": 1513195865272, "trialdata": {"rt": -1, "stimulus": "<p id=\"stim\">LOFT</p>", "key_press": -1, "type": "PRES_VIS", "word": "loft", "wordID": 839, "conditions": [24, 1600, "v", 12000], "trial": 3, "serialpos": 19, "trial_type": "single-stim", "trial_index": 136, "time_elapsed": 752685, "internal_node_id": "0.0-100.0"}}, {"uniqueid": "MTK1139:3NPI0JQDAPC8KUMNOL24V7NI7H7TPO", "current_trial": 137, "dateTime": 1513195867890, "trialdata": {"rt": -1, "stimulus": "<p id=\"stim\">REBEL</p>", "key_press": -1, "type": "PRES_VIS", "word": "rebel", "wordID": 1171, "conditions": [24, 1600, "v", 12000], "trial": 3, "serialpos": 20, "trial_type": "single-stim", "trial_index": 137, "time_elapsed": 755302, "internal_node_id": "0.0-101.0"}}, {"uniqueid": "MTK1139:3NPI0JQDAPC8KUMNOL24V7NI7H7TPO", "current_trial": 138, "dateTime": 1513195870454, "trialdata": {"rt": -1, "stimulus": "<p id=\"stim\">GANGSTER</p>", "key_press": -1, "type": "PRES_VIS", "word": "gangster", "wordID": 619, "conditions": [24, 1600, "v", 12000], "trial": 3, "serialpos": 21, "trial_type": "single-stim", "trial_index": 138, "time_elapsed": 757867, "internal_node_id": "0.0-102.0"}}, {"uniqueid": "MTK1139:3NPI0JQDAPC8KUMNOL24V7NI7H7TPO", "current_trial": 139, "dateTime": 1513195873161, "trialdata": {"rt": -1, "stimulus": "<p id=\"stim\">WASP</p>", "key_press": -1, "type": "PRES_VIS", "word": "wasp", "wordID": 1592, "conditions": [24, 1600, "v", 12000], "trial": 3, "serialpos": 22, "trial_type": "single-stim", "trial_index": 139, "time_elapsed": 760574, "internal_node_id": "0.0-103.0"}}, {"uniqueid": "MTK1139:3NPI0JQDAPC8KUMNOL24V7NI7H7TPO", "current_trial": 140, "dateTime": 1513195875817, "trialdata": {"rt": -1, "stimulus": "<p id=\"stim\">ROBIN</p>", "key_press": -1, "type": "PRES_VIS", "word": "robin", "wordID": 1198, "conditions": [24, 1600, "v", 12000], "trial": 3, "serialpos": 23, "trial_type": "single-stim", "trial_index": 140, "time_elapsed": 763230, "internal_node_id": "0.0-104.0"}}, {"uniqueid": "MTK1139:3NPI0JQDAPC8KUMNOL24V7NI7H7TPO", "current_trial": 141, "dateTime": 1513195878365, "trialdata": {"rt": -1, "stimulus": "", "key_press": -1, "type": "PRE_RECALL_DELAY", "trial_type": "single-stim", "trial_index": 141, "time_elapsed": 765778, "internal_node_id": "0.0-105.0-0.0"}}, {"uniqueid": "MTK1139:3NPI0JQDAPC8KUMNOL24V7NI7H7TPO", "current_trial": 142, "dateTime": 1513195878868, "trialdata": {"rt": -1000, "stimulus": "/static/audio/400Hz.wav", "key_press": -1, "type": "PRE_RECALL_ALERT", "trial_type": "single-audio", "trial_index": 142, "time_elapsed": 766281, "internal_node_id": "0.0-106.0"}}, {"uniqueid": "MTK1139:3NPI0JQDAPC8KUMNOL24V7NI7H7TPO", "current_trial": 143, "dateTime": 1513195938881, "trialdata": {"rt": [4282, 8376, 10265, 11506, 15379, 17872, 19536, 26057, 27832, 31704, 36920, 41280, 46527, 52335], "recwords": ["robin", "island", "sister", "lady", "loft", "gangster", "rebel", "puddle", "wasp", "rabbit", "tombstone", "skillet", "smog", "gift"], "type": "FREE_RECALL", "conditions": [24, 1600, "v", 12000], "trial": 3, "trial_type": "free-recall", "trial_index": 143, "time_elapsed": 826286, "internal_node_id": "0.0-107.0-0.0"}}, {"uniqueid": "MTK1139:3NPI0JQDAPC8KUMNOL24V7NI7H7TPO", "current_trial": 144, "dateTime": 1513195942976, "trialdata": {"rt": 2089, "key_press": 13, "type": "INSTRUCTIONS", "trial_type": "text", "trial_index": 144, "time_elapsed": 830389, "internal_node_id": "0.0-108.0"}}, {"uniqueid": "MTK1139:3NPI0JQDAPC8KUMNOL24V7NI7H7TPO", "current_trial": 145, "dateTime": 1513195956987, "trialdata": {"rt": [4207, 9591], "responses": ["16", "11"], "num1": [4, 2, 1], "num2": [4, 2, 4], "num3": [8, 7, 7], "type": "DISTRACTOR", "conditions": [12, 1600, "v", 12000], "trial": 4, "trial_type": "math-distractor", "trial_index": 145, "time_elapsed": 844400, "internal_node_id": "0.0-109.0"}}, {"uniqueid": "MTK1139:3NPI0JQDAPC8KUMNOL24V7NI7H7TPO", "current_trial": 146, "dateTime": 1513195959993, "trialdata": {"rt": -1, "stimulus": "<p id=\"stim\">10</p>", "key_press": -1, "trial_type": "single-stim", "trial_index": 146, "time_elapsed": 847405, "internal_node_id": "0.0-110.0-0.0"}}, {"uniqueid": "MTK1139:3NPI0JQDAPC8KUMNOL24V7NI7H7TPO", "current_trial": 147, "dateTime": 1513195960997, "trialdata": {"rt": -1, "stimulus": "<p id=\"stim\">9</p>", "key_press": -1, "trial_type": "single-stim", "trial_index": 147, "time_elapsed": 848410, "internal_node_id": "0.0-110.0-1.0"}}, {"uniqueid": "MTK1139:3NPI0JQDAPC8KUMNOL24V7NI7H7TPO", "current_trial": 148, "dateTime": 1513195962001, "trialdata": {"rt": -1, "stimulus": "<p id=\"stim\">8</p>", "key_press": -1, "trial_type": "single-stim", "trial_index": 148, "time_elapsed": 849414, "internal_node_id": "0.0-110.0-2.0"}}, {"uniqueid": "MTK1139:3NPI0JQDAPC8KUMNOL24V7NI7H7TPO", "current_trial": 149, "dateTime": 1513195963005, "trialdata": {"rt": -1, "stimulus": "<p id=\"stim\">7</p>", "key_press": -1, "trial_type": "single-stim", "trial_index": 149, "time_elapsed": 850418, "internal_node_id": "0.0-110.0-3.0"}}, {"uniqueid": "MTK1139:3NPI0JQDAPC8KUMNOL24V7NI7H7TPO", "current_trial": 150, "dateTime": 1513195964009, "trialdata": {"rt": -1, "stimulus": "<p id=\"stim\">6</p>", "key_press": -1, "trial_type": "single-stim", "trial_index": 150, "time_elapsed": 851422, "internal_node_id": "0.0-110.0-4.0"}}, {"uniqueid": "MTK1139:3NPI0JQDAPC8KUMNOL24V7NI7H7TPO", "current_trial": 151, "dateTime": 1513195965013, "trialdata": {"rt": -1, "stimulus": "<p id=\"stim\">5</p>", "key_press": -1, "trial_type": "single-stim", "trial_index": 151, "time_elapsed": 852426, "internal_node_id": "0.0-110.0-5.0"}}, {"uniqueid": "MTK1139:3NPI0JQDAPC8KUMNOL24V7NI7H7TPO", "current_trial": 152, "dateTime": 1513195966018, "trialdata": {"rt": -1, "stimulus": "<p id=\"stim\">4</p>", "key_press": -1, "trial_type": "single-stim", "trial_index": 152, "time_elapsed": 853430, "internal_node_id": "0.0-110.0-6.0"}}, {"uniqueid": "MTK1139:3NPI0JQDAPC8KUMNOL24V7NI7H7TPO", "current_trial": 153, "dateTime": 1513195967021, "trialdata": {"rt": -1, "stimulus": "<p id=\"stim\">3</p>", "key_press": -1, "trial_type": "single-stim", "trial_index": 153, "time_elapsed": 854434, "internal_node_id": "0.0-110.0-7.0"}}, {"uniqueid": "MTK1139:3NPI0JQDAPC8KUMNOL24V7NI7H7TPO", "current_trial": 154, "dateTime": 1513195968027, "trialdata": {"rt": -1, "stimulus": "<p id=\"stim\">2</p>", "key_press": -1, "trial_type": "single-stim", "trial_index": 154, "time_elapsed": 855439, "internal_node_id": "0.0-110.0-8.0"}}, {"uniqueid": "MTK1139:3NPI0JQDAPC8KUMNOL24V7NI7H7TPO", "current_trial": 155, "dateTime": 1513195969033, "trialdata": {"rt": -1, "stimulus": "<p id=\"stim\">1</p>", "key_press": -1, "trial_type": "single-stim", "trial_index": 155, "time_elapsed": 856446, "internal_node_id": "0.0-110.0-9.0"}}, {"uniqueid": "MTK1139:3NPI0JQDAPC8KUMNOL24V7NI7H7TPO", "current_trial": 156, "dateTime": 1513195970538, "trialdata": {"rt": -1, "stimulus": "<p id=\"stim\">+</p>", "key_press": -1, "type": "FIXATION", "trial_type": "single-stim", "trial_index": 156, "time_elapsed": 857951, "internal_node_id": "0.0-111.0-0.0"}}, {"uniqueid": "MTK1139:3NPI0JQDAPC8KUMNOL24V7NI7H7TPO", "current_trial": 157, "dateTime": 1513195972140, "trialdata": {"rt": -1, "stimulus": "<p id=\"stim\">HOOD</p>", "key_press": -1, "type": "PRES_VIS", "word": "hood", "wordID": 713, "conditions": [12, 1600, "v", 12000], "trial": 4, "serialpos": 0, "trial_type": "single-stim", "trial_index": 157, "time_elapsed": 859553, "internal_node_id": "0.0-112.0"}}, {"uniqueid": "MTK1139:3NPI0JQDAPC8KUMNOL24V7NI7H7TPO", "current_trial": 158, "dateTime": 1513195974630, "trialdata": {"rt": -1, "stimulus": "<p id=\"stim\">CLOUD</p>", "key_press": -1, "type": "PRES_VIS", "word": "cloud", "wordID": 327, "conditions": [12, 1600, "v", 12000], "trial": 4, "serialpos": 1, "trial_type": "single-stim", "trial_index": 158, "time_elapsed": 862043, "internal_node_id": "0.0-113.0"}}, {"uniqueid": "MTK1139:3NPI0JQDAPC8KUMNOL24V7NI7H7TPO", "current_trial": 159, "dateTime": 1513195977062, "trialdata": {"rt": -1, "stimulus": "<p id=\"stim\">BRICK</p>", "key_press": -1, "type": "PRES_VIS", "word": "brick", "wordID": 171, "conditions": [12, 1600, "v", 12000], "trial": 4, "serialpos": 2, "trial_type": "single-stim", "trial_index": 159, "time_elapsed": 864475, "internal_node_id": "0.0-114.0"}}, {"uniqueid": "MTK1139:3NPI0JQDAPC8KUMNOL24V7NI7H7TPO", "current_trial": 160, "dateTime": 1513195979815, "trialdata": {"rt": -1, "stimulus": "<p id=\"stim\">GARDEN</p>", "key_press": -1, "type": "PRES_VIS", "word": "garden", "wordID": 622, "conditions": [12, 1600, "v", 12000], "trial": 4, "serialpos": 3, "trial_type": "single-stim", "trial_index": 160, "time_elapsed": 867228, "internal_node_id": "0.0-115.0"}}, {"uniqueid": "MTK1139:3NPI0JQDAPC8KUMNOL24V7NI7H7TPO", "current_trial": 161, "dateTime": 1513195982262, "trialdata": {"rt": -1, "stimulus": "<p id=\"stim\">CREATURE</p>", "key_press": -1, "type": "PRES_VIS", "word": "creature", "wordID": 402, "conditions": [12, 1600, "v", 12000], "trial": 4, "serialpos": 4, "trial_type": "single-stim", "trial_index": 161, "time_elapsed": 869675, "internal_node_id": "0.0-116.0"}}, {"uniqueid": "MTK1139:3NPI0JQDAPC8KUMNOL24V7NI7H7TPO", "current_trial": 162, "dateTime": 1513195985013, "trialdata": {"rt": -1, "stimulus": "<p id=\"stim\">BEAST</p>", "key_press": -1, "type": "PRES_VIS", "word": "beast", "wordID": 107, "conditions": [12, 1600, "v", 12000], "trial": 4, "serialpos": 5, "trial_type": "single-stim", "trial_index": 162, "time_elapsed": 872426, "internal_node_id": "0.0-117.0"}}, {"uniqueid": "MTK1139:3NPI0JQDAPC8KUMNOL24V7NI7H7TPO", "current_trial": 163, "dateTime": 1513195987753, "trialdata": {"rt": -1, "stimulus": "<p id=\"stim\">STONE</p>", "key_press": -1, "type": "PRES_VIS", "word": "stone", "wordID": 1384, "conditions": [12, 1600, "v", 12000], "trial": 4, "serialpos": 6, "trial_type": "single-stim", "trial_index": 163, "time_elapsed": 875165, "internal_node_id": "0.0-118.0"}}, {"uniqueid": "MTK1139:3NPI0JQDAPC8KUMNOL24V7NI7H7TPO", "current_trial": 164, "dateTime": 1513195990524, "trialdata": {"rt": -1, "stimulus": "<p id=\"stim\">PLAID</p>", "key_press": -1, "type": "PRES_VIS", "word": "plaid", "wordID": 1079, "conditions": [12, 1600, "v", 12000], "trial": 4, "serialpos": 7, "trial_type": "single-stim", "trial_index": 164, "time_elapsed": 877937, "internal_node_id": "0.0-119.0"}}, {"uniqueid": "MTK1139:3NPI0JQDAPC8KUMNOL24V7NI7H7TPO", "current_trial": 165, "dateTime": 1513195993243, "trialdata": {"rt": -1, "stimulus": "<p id=\"stim\">GUARD</p>", "key_press": -1, "type": "PRES_VIS", "word": "guard", "wordID": 666, "conditions": [12, 1600, "v", 12000], "trial": 4, "serialpos": 8, "trial_type": "single-stim", "trial_index": 165, "time_elapsed": 880656, "internal_node_id": "0.0-120.0"}}, {"uniqueid": "MTK1139:3NPI0JQDAPC8KUMNOL24V7NI7H7TPO", "current_trial": 166, "dateTime": 1513195995669, "trialdata": {"rt": -1, "stimulus": "<p id=\"stim\">OUTLAW</p>", "key_press": -1, "type": "PRES_VIS", "word": "outlaw", "wordID": 988, "conditions": [12, 1600, "v", 12000], "trial": 4, "serialpos": 9, "trial_type": "single-stim", "trial_index": 166, "time_elapsed": 883082, "internal_node_id": "0.0-121.0"}}, {"uniqueid": "MTK1139:3NPI0JQDAPC8KUMNOL24V7NI7H7TPO", "current_trial": 167, "dateTime": 1513195998165, "trialdata": {"rt": -1, "stimulus": "<p id=\"stim\">SHORTCAKE</p>", "key_press": -1, "type": "PRES_VIS", "word": "shortcake", "wordID": 1291, "conditions": [12, 1600, "v", 12000], "trial": 4, "serialpos": 10, "trial_type": "single-stim", "trial_index": 167, "time_elapsed": 885578, "internal_node_id": "0.0-122.0"}}, {"uniqueid": "MTK1139:3NPI0JQDAPC8KUMNOL24V7NI7H7TPO", "current_trial": 168, "dateTime": 1513196000916, "trialdata": {"rt": -1, "stimulus": "<p id=\"stim\">DUST</p>", "key_press": -1, "type": "PRES_VIS", "word": "dust", "wordID": 507, "conditions": [12, 1600, "v", 12000], "trial": 4, "serialpos": 11, "trial_type": "single-stim", "trial_index": 168, "time_elapsed": 888329, "internal_node_id": "0.0-123.0"}}, {"uniqueid": "MTK1139:3NPI0JQDAPC8KUMNOL24V7NI7H7TPO", "current_trial": 169, "dateTime": 1513196003052, "trialdata": {"rt": -1, "stimulus": "", "key_press": -1, "type": "PRE_RECALL_DELAY", "trial_type": "single-stim", "trial_index": 169, "time_elapsed": 890464, "internal_node_id": "0.0-124.0-0.0"}}, {"uniqueid": "MTK1139:3NPI0JQDAPC8KUMNOL24V7NI7H7TPO", "current_trial": 170, "dateTime": 1513196003554, "trialdata": {"rt": -1000, "stimulus": "/static/audio/400Hz.wav", "key_press": -1, "type": "PRE_RECALL_ALERT", "trial_type": "single-audio", "trial_index": 170, "time_elapsed": 890967, "internal_node_id": "0.0-125.0"}}, {"uniqueid": "MTK1139:3NPI0JQDAPC8KUMNOL24V7NI7H7TPO", "current_trial": 171, "dateTime": 1513196063571, "trialdata": {"rt": [2753, 5489, 8497, 10209, 13681, 19408, 30600, 31976, 34392, 39074, 42848, 50338], "recwords": ["dust", "outlaw", "hood", "cloud", "garden", "beast", "guard", "", "cloud", "brick", "creature", ""], "type": "FREE_RECALL", "conditions": [12, 1600, "v", 12000], "trial": 4, "trial_type": "free-recall", "trial_index": 171, "time_elapsed": 950975, "internal_node_id": "0.0-126.0-0.0"}}, {"uniqueid": "MTK1139:3NPI0JQDAPC8KUMNOL24V7NI7H7TPO", "current_trial": 172, "dateTime": 1513196067078, "trialdata": {"rt": 1502, "key_press": 32, "type": "INSTRUCTIONS", "trial_type": "text", "trial_index": 172, "time_elapsed": 954490, "internal_node_id": "0.0-127.0"}}, {"uniqueid": "MTK1139:3NPI0JQDAPC8KUMNOL24V7NI7H7TPO", "current_trial": 173, "dateTime": 1513196093089, "trialdata": {"rt": [6523, 11603], "responses": ["16", "18"], "num1": [6, 5, 5], "num2": [8, 8, 5], "num3": [2, 5, 8], "type": "DISTRACTOR", "conditions": [24, 800, "v", 24000], "trial": 5, "trial_type": "math-distractor", "trial_index": 173, "time_elapsed": 980501, "internal_node_id": "0.0-128.0"}}, {"uniqueid": "MTK1139:3NPI0JQDAPC8KUMNOL24V7NI7H7TPO", "current_trial": 174, "dateTime": 1513196096098, "trialdata": {"rt": -1, "stimulus": "<p id=\"stim\">10</p>", "key_press": -1, "trial_type": "single-stim", "trial_index": 174, "time_elapsed": 983510, "internal_node_id": "0.0-129.0-0.0"}}, {"uniqueid": "MTK1139:3NPI0JQDAPC8KUMNOL24V7NI7H7TPO", "current_trial": 175, "dateTime": 1513196097102, "trialdata": {"rt": -1, "stimulus": "<p id=\"stim\">9</p>", "key_press": -1, "trial_type": "single-stim", "trial_index": 175, "time_elapsed": 984514, "internal_node_id": "0.0-129.0-1.0"}}, {"uniqueid": "MTK1139:3NPI0JQDAPC8KUMNOL24V7NI7H7TPO", "current_trial": 176, "dateTime": 1513196098106, "trialdata": {"rt": -1, "stimulus": "<p id=\"stim\">8</p>", "key_press": -1, "trial_type": "single-stim", "trial_index": 176, "time_elapsed": 985518, "internal_node_id": "0.0-129.0-2.0"}}, {"uniqueid": "MTK1139:3NPI0JQDAPC8KUMNOL24V7NI7H7TPO", "current_trial": 177, "dateTime": 1513196099110, "trialdata": {"rt": -1, "stimulus": "<p id=\"stim\">7</p>", "key_press": -1, "trial_type": "single-stim", "trial_index": 177, "time_elapsed": 986523, "internal_node_id": "0.0-129.0-3.0"}}, {"uniqueid": "MTK1139:3NPI0JQDAPC8KUMNOL24V7NI7H7TPO", "current_trial": 178, "dateTime": 1513196100114, "trialdata": {"rt": -1, "stimulus": "<p id=\"stim\">6</p>", "key_press": -1, "trial_type": "single-stim", "trial_index": 178, "time_elapsed": 987527, "internal_node_id": "0.0-129.0-4.0"}}, {"uniqueid": "MTK1139:3NPI0JQDAPC8KUMNOL24V7NI7H7TPO", "current_trial": 179, "dateTime": 1513196101118, "trialdata": {"rt": -1, "stimulus": "<p id=\"stim\">5</p>", "key_press": -1, "trial_type": "single-stim", "trial_index": 179, "time_elapsed": 988530, "internal_node_id": "0.0-129.0-5.0"}}, {"uniqueid": "MTK1139:3NPI0JQDAPC8KUMNOL24V7NI7H7TPO", "current_trial": 180, "dateTime": 1513196102122, "trialdata": {"rt": -1, "stimulus": "<p id=\"stim\">4</p>", "key_press": -1, "trial_type": "single-stim", "trial_index": 180, "time_elapsed": 989534, "internal_node_id": "0.0-129.0-6.0"}}, {"uniqueid": "MTK1139:3NPI0JQDAPC8KUMNOL24V7NI7H7TPO", "current_trial": 181, "dateTime": 1513196103126, "trialdata": {"rt": -1, "stimulus": "<p id=\"stim\">3</p>", "key_press": -1, "trial_type": "single-stim", "trial_index": 181, "time_elapsed": 990539, "internal_node_id": "0.0-129.0-7.0"}}, {"uniqueid": "MTK1139:3NPI0JQDAPC8KUMNOL24V7NI7H7TPO", "current_trial": 182, "dateTime": 1513196104130, "trialdata": {"rt": -1, "stimulus": "<p id=\"stim\">2</p>", "key_press": -1, "trial_type": "single-stim", "trial_index": 182, "time_elapsed": 991543, "internal_node_id": "0.0-129.0-8.0"}}, {"uniqueid": "MTK1139:3NPI0JQDAPC8KUMNOL24V7NI7H7TPO", "current_trial": 183, "dateTime": 1513196105135, "trialdata": {"rt": -1, "stimulus": "<p id=\"stim\">1</p>", "key_press": -1, "trial_type": "single-stim", "trial_index": 183, "time_elapsed": 992547, "internal_node_id": "0.0-129.0-9.0"}}, {"uniqueid": "MTK1139:3NPI0JQDAPC8KUMNOL24V7NI7H7TPO", "current_trial": 184, "dateTime": 1513196106638, "trialdata": {"rt": -1, "stimulus": "<p id=\"stim\">+</p>", "key_press": -1, "type": "FIXATION", "trial_type": "single-stim", "trial_index": 184, "time_elapsed": 994050, "internal_node_id": "0.0-130.0-0.0"}}, {"uniqueid": "MTK1139:3NPI0JQDAPC8KUMNOL24V7NI7H7TPO", "current_trial": 185, "dateTime": 1513196107444, "trialdata": {"rt": -1, "stimulus": "<p id=\"stim\">DENTIST</p>", "key_press": -1, "type": "PRES_VIS", "word": "dentist", "wordID": 446, "conditions": [24, 800, "v", 24000], "trial": 5, "serialpos": 0, "trial_type": "single-stim", "trial_index": 185, "time_elapsed": 994857, "internal_node_id": "0.0-131.0"}}, {"uniqueid": "MTK1139:3NPI0JQDAPC8KUMNOL24V7NI7H7TPO", "current_trial": 186, "dateTime": 1513196109191, "trialdata": {"rt": -1, "stimulus": "<p id=\"stim\">LUGGAGE</p>", "key_press": -1, "type": "PRES_VIS", "word": "luggage", "wordID": 846, "conditions": [24, 800, "v", 24000], "trial": 5, "serialpos": 1, "trial_type": "single-stim", "trial_index": 186, "time_elapsed": 996604, "internal_node_id": "0.0-132.0"}}, {"uniqueid": "MTK1139:3NPI0JQDAPC8KUMNOL24V7NI7H7TPO", "current_trial": 187, "dateTime": 1513196110811, "trialdata": {"rt": -1, "stimulus": "<p id=\"stim\">SUITCASE</p>", "key_press": -1, "type": "PRES_VIS", "word": "suitcase", "wordID": 1402, "conditions": [24, 800, "v", 24000], "trial": 5, "serialpos": 2, "trial_type": "single-stim", "trial_index": 187, "time_elapsed": 998223, "internal_node_id": "0.0-133.0"}}, {"uniqueid": "MTK1139:3NPI0JQDAPC8KUMNOL24V7NI7H7TPO", "current_trial": 188, "dateTime": 1513196112631, "trialdata": {"rt": -1, "stimulus": "<p id=\"stim\">LEG</p>", "key_press": -1, "type": "PRES_VIS", "word": "leg", "wordID": 808, "conditions": [24, 800, "v", 24000], "trial": 5, "serialpos": 3, "trial_type": "single-stim", "trial_index": 188, "time_elapsed": 1000043, "internal_node_id": "0.0-134.0"}}, {"uniqueid": "MTK1139:3NPI0JQDAPC8KUMNOL24V7NI7H7TPO", "current_trial": 189, "dateTime": 1513196114269, "trialdata": {"rt": -1, "stimulus": "<p id=\"stim\">FLASHLIGHT</p>", "key_press": -1, "type": "PRES_VIS", "word": "flashlight", "wordID": 574, "conditions": [24, 800, "v", 24000], "trial": 5, "serialpos": 4, "trial_type": "single-stim", "trial_index": 189, "time_elapsed": 1001682, "internal_node_id": "0.0-135.0"}}, {"uniqueid": "MTK1139:3NPI0JQDAPC8KUMNOL24V7NI7H7TPO", "current_trial": 190, "dateTime": 1513196116115, "trialdata": {"rt": -1, "stimulus": "<p id=\"stim\">SIDEWALK</p>", "key_press": -1, "type": "PRES_VIS", "word": "sidewalk", "wordID": 1302, "conditions": [24, 800, "v", 24000], "trial": 5, "serialpos": 5, "trial_type": "single-stim", "trial_index": 190, "time_elapsed": 1003528, "internal_node_id": "0.0-136.0"}}, {"uniqueid": "MTK1139:3NPI0JQDAPC8KUMNOL24V7NI7H7TPO", "current_trial": 191, "dateTime": 1513196118065, "trialdata": {"rt": -1, "stimulus": "<p id=\"stim\">RADISH</p>", "key_press": -1, "type": "PRES_VIS", "word": "radish", "wordID": 1157, "conditions": [24, 800, "v", 24000], "trial": 5, "serialpos": 6, "trial_type": "single-stim", "trial_index": 191, "time_elapsed": 1005478, "internal_node_id": "0.0-137.0"}}, {"uniqueid": "MTK1139:3NPI0JQDAPC8KUMNOL24V7NI7H7TPO", "current_trial": 192, "dateTime": 1513196119931, "trialdata": {"rt": -1, "stimulus": "<p id=\"stim\">BEAVER</p>", "key_press": -1, "type": "PRES_VIS", "word": "beaver", "wordID": 108, "conditions": [24, 800, "v", 24000], "trial": 5, "serialpos": 7, "trial_type": "single-stim", "trial_index": 192, "time_elapsed": 1007343, "internal_node_id": "0.0-138.0"}}, {"uniqueid": "MTK1139:3NPI0JQDAPC8KUMNOL24V7NI7H7TPO", "current_trial": 193, "dateTime": 1513196121809, "trialdata": {"rt": -1, "stimulus": "<p id=\"stim\">PLAZA</p>", "key_press": -1, "type": "PRES_VIS", "word": "plaza", "wordID": 1087, "conditions": [24, 800, "v", 24000], "trial": 5, "serialpos": 8, "trial_type": "single-stim", "trial_index": 193, "time_elapsed": 1009222, "internal_node_id": "0.0-139.0"}}, {"uniqueid": "MTK1139:3NPI0JQDAPC8KUMNOL24V7NI7H7TPO", "current_trial": 194, "dateTime": 1513196123434, "trialdata": {"rt": -1, "stimulus": "<p id=\"stim\">FOX</p>", "key_press": -1, "type": "PRES_VIS", "word": "fox", "wordID": 597, "conditions": [24, 800, "v", 24000], "trial": 5, "serialpos": 9, "trial_type": "single-stim", "trial_index": 194, "time_elapsed": 1010847, "internal_node_id": "0.0-140.0"}}, {"uniqueid": "MTK1139:3NPI0JQDAPC8KUMNOL24V7NI7H7TPO", "current_trial": 195, "dateTime": 1513196125204, "trialdata": {"rt": -1, "stimulus": "<p id=\"stim\">PUDDLE</p>", "key_press": -1, "type": "PRES_VIS", "word": "puddle", "wordID": 1139, "conditions": [24, 800, "v", 24000], "trial": 5, "serialpos": 10, "trial_type": "single-stim", "trial_index": 195, "time_elapsed": 1012617, "internal_node_id": "0.0-141.0"}}, {"uniqueid": "MTK1139:3NPI0JQDAPC8KUMNOL24V7NI7H7TPO", "current_trial": 196, "dateTime": 1513196126986, "trialdata": {"rt": -1, "stimulus": "<p id=\"stim\">JAPAN</p>", "key_press": -1, "type": "PRES_VIS", "word": "japan", "wordID": 748, "conditions": [24, 800, "v", 24000], "trial": 5, "serialpos": 11, "trial_type": "single-stim", "trial_index": 196, "time_elapsed": 1014399, "internal_node_id": "0.0-142.0"}}, {"uniqueid": "MTK1139:3NPI0JQDAPC8KUMNOL24V7NI7H7TPO", "current_trial": 197, "dateTime": 1513196128605, "trialdata": {"rt": -1, "stimulus": "<p id=\"stim\">SHIRT</p>", "key_press": -1, "type": "PRES_VIS", "word": "shirt", "wordID": 1286, "conditions": [24, 800, "v", 24000], "trial": 5, "serialpos": 12, "trial_type": "single-stim", "trial_index": 197, "time_elapsed": 1016018, "internal_node_id": "0.0-143.0"}}, {"uniqueid": "MTK1139:3NPI0JQDAPC8KUMNOL24V7NI7H7TPO", "current_trial": 198, "dateTime": 1513196130288, "trialdata": {"rt": -1, "stimulus": "<p id=\"stim\">ANKLE</p>", "key_press": -1, "type": "PRES_VIS", "word": "ankle", "wordID": 23, "conditions": [24, 800, "v", 24000], "trial": 5, "serialpos": 13, "trial_type": "single-stim", "trial_index": 198, "time_elapsed": 1017701, "internal_node_id": "0.0-144.0"}}, {"uniqueid": "MTK1139:3NPI0JQDAPC8KUMNOL24V7NI7H7TPO", "current_trial": 199, "dateTime": 1513196131908, "trialdata": {"rt": -1, "stimulus": "<p id=\"stim\">MAILBOX</p>", "key_press": -1, "type": "PRES_VIS", "word": "mailbox", "wordID": 856, "conditions": [24, 800, "v", 24000], "trial": 5, "serialpos": 14, "trial_type": "single-stim", "trial_index": 199, "time_elapsed": 1019321, "internal_node_id": "0.0-145.0"}}, {"uniqueid": "MTK1139:3NPI0JQDAPC8KUMNOL24V7NI7H7TPO", "current_trial": 200, "dateTime": 1513196133811, "trialdata": {"rt": -1, "stimulus": "<p id=\"stim\">MAILMAN</p>", "key_press": -1, "type": "PRES_VIS", "word": "mailman", "wordID": 857, "conditions": [24, 800, "v", 24000], "trial": 5, "serialpos": 15, "trial_type": "single-stim", "trial_index": 200, "time_elapsed": 1021224, "internal_node_id": "0.0-146.0"}}, {"uniqueid": "MTK1139:3NPI0JQDAPC8KUMNOL24V7NI7H7TPO", "current_trial": 201, "dateTime": 1513196135587, "trialdata": {"rt": -1, "stimulus": "<p id=\"stim\">WRIST</p>", "key_press": -1, "type": "PRES_VIS", "word": "wrist", "wordID": 1625, "conditions": [24, 800, "v", 24000], "trial": 5, "serialpos": 16, "trial_type": "single-stim", "trial_index": 201, "time_elapsed": 1023000, "internal_node_id": "0.0-147.0"}}, {"uniqueid": "MTK1139:3NPI0JQDAPC8KUMNOL24V7NI7H7TPO", "current_trial": 202, "dateTime": 1513196137444, "trialdata": {"rt": -1, "stimulus": "<p id=\"stim\">BLOCKADE</p>", "key_press": -1, "type": "PRES_VIS", "word": "blockade", "wordID": 136, "conditions": [24, 800, "v", 24000], "trial": 5, "serialpos": 17, "trial_type": "single-stim", "trial_index": 202, "time_elapsed": 1024857, "internal_node_id": "0.0-148.0"}}, {"uniqueid": "MTK1139:3NPI0JQDAPC8KUMNOL24V7NI7H7TPO", "current_trial": 203, "dateTime": 1513196139134, "trialdata": {"rt": -1, "stimulus": "<p id=\"stim\">CRIB</p>", "key_press": -1, "type": "PRES_VIS", "word": "crib", "wordID": 406, "conditions": [24, 800, "v", 24000], "trial": 5, "serialpos": 18, "trial_type": "single-stim", "trial_index": 203, "time_elapsed": 1026546, "internal_node_id": "0.0-149.0"}}, {"uniqueid": "MTK1139:3NPI0JQDAPC8KUMNOL24V7NI7H7TPO", "current_trial": 204, "dateTime": 1513196141118, "trialdata": {"rt": -1, "stimulus": "<p id=\"stim\">PUPPY</p>", "key_press": -1, "type": "PRES_VIS", "word": "puppy", "wordID": 1143, "conditions": [24, 800, "v", 24000], "trial": 5, "serialpos": 19, "trial_type": "single-stim", "trial_index": 204, "time_elapsed": 1028531, "internal_node_id": "0.0-150.0"}}, {"uniqueid": "MTK1139:3NPI0JQDAPC8KUMNOL24V7NI7H7TPO", "current_trial": 205, "dateTime": 1513196142749, "trialdata": {"rt": -1, "stimulus": "<p id=\"stim\">ELBOW</p>", "key_press": -1, "type": "PRES_VIS", "word": "elbow", "wordID": 519, "conditions": [24, 800, "v", 24000], "trial": 5, "serialpos": 20, "trial_type": "single-stim", "trial_index": 205, "time_elapsed": 1030161, "internal_node_id": "0.0-151.0"}}, {"uniqueid": "MTK1139:3NPI0JQDAPC8KUMNOL24V7NI7H7TPO", "current_trial": 206, "dateTime": 1513196144735, "trialdata": {"rt": -1, "stimulus": "<p id=\"stim\">FLASK</p>", "key_press": -1, "type": "PRES_VIS", "word": "flask", "wordID": 575, "conditions": [24, 800, "v", 24000], "trial": 5, "serialpos": 21, "trial_type": "single-stim", "trial_index": 206, "time_elapsed": 1032147, "internal_node_id": "0.0-152.0"}}, {"uniqueid": "MTK1139:3NPI0JQDAPC8KUMNOL24V7NI7H7TPO", "current_trial": 207, "dateTime": 1513196146591, "trialdata": {"rt": -1, "stimulus": "<p id=\"stim\">NECKLACE</p>", "key_press": -1, "type": "PRES_VIS", "word": "necklace", "wordID": 939, "conditions": [24, 800, "v", 24000], "trial": 5, "serialpos": 22, "trial_type": "single-stim", "trial_index": 207, "time_elapsed": 1034004, "internal_node_id": "0.0-153.0"}}, {"uniqueid": "MTK1139:3NPI0JQDAPC8KUMNOL24V7NI7H7TPO", "current_trial": 208, "dateTime": 1513196148263, "trialdata": {"rt": -1, "stimulus": "<p id=\"stim\">OINTMENT</p>", "key_press": -1, "type": "PRES_VIS", "word": "ointment", "wordID": 973, "conditions": [24, 800, "v", 24000], "trial": 5, "serialpos": 23, "trial_type": "single-stim", "trial_index": 208, "time_elapsed": 1035676, "internal_node_id": "0.0-154.0"}}, {"uniqueid": "MTK1139:3NPI0JQDAPC8KUMNOL24V7NI7H7TPO", "current_trial": 209, "dateTime": 1513196150689, "trialdata": {"rt": -1, "stimulus": "", "key_press": -1, "type": "PRE_RECALL_DELAY", "trial_type": "single-stim", "trial_index": 209, "time_elapsed": 1038102, "internal_node_id": "0.0-155.0-0.0"}}, {"uniqueid": "MTK1139:3NPI0JQDAPC8KUMNOL24V7NI7H7TPO", "current_trial": 210, "dateTime": 1513196151191, "trialdata": {"rt": -1000, "stimulus": "/static/audio/400Hz.wav", "key_press": -1, "type": "PRE_RECALL_ALERT", "trial_type": "single-audio", "trial_index": 210, "time_elapsed": 1038604, "internal_node_id": "0.0-156.0"}}, {"uniqueid": "MTK1139:3NPI0JQDAPC8KUMNOL24V7NI7H7TPO", "current_trial": 211, "dateTime": 1513196211207, "trialdata": {"rt": [6560, 12232, 15575, 17127, 18727, 21392, 50023], "recwords": ["dentist", "fox", "japon", "ankle", "shirt", "ruddle", "flashlight"], "type": "FREE_RECALL", "conditions": [24, 800, "v", 24000], "trial": 5, "trial_type": "free-recall", "trial_index": 211, "time_elapsed": 1098612, "internal_node_id": "0.0-157.0-0.0"}}, {"uniqueid": "MTK1139:3NPI0JQDAPC8KUMNOL24V7NI7H7TPO", "current_trial": 212, "dateTime": 1513196215554, "trialdata": {"rt": 2343, "key_press": 86, "type": "INSTRUCTIONS", "trial_type": "text", "trial_index": 212, "time_elapsed": 1102966, "internal_node_id": "0.0-158.0"}}, {"uniqueid": "MTK1139:3NPI0JQDAPC8KUMNOL24V7NI7H7TPO", "current_trial": 213, "dateTime": 1513196241563, "trialdata": {"rt": [5290, 8474, 11705, 13857, 16721, 21081], "responses": ["13", "19", "22", "13", "20", "14"], "num1": [2, 9, 5, 2, 8, 5, 8], "num2": [4, 7, 7, 3, 8, 2, 6], "num3": [7, 3, 9, 8, 4, 7, 5], "type": "DISTRACTOR", "conditions": [24, 800, "a", 24000], "trial": 6, "trial_type": "math-distractor", "trial_index": 213, "time_elapsed": 1128976, "internal_node_id": "0.0-159.0"}}, {"uniqueid": "MTK1139:3NPI0JQDAPC8KUMNOL24V7NI7H7TPO", "current_trial": 214, "dateTime": 1513196244569, "trialdata": {"rt": -1, "stimulus": "<p id=\"stim\">10</p>", "key_press": -1, "trial_type": "single-stim", "trial_index": 214, "time_elapsed": 1131981, "internal_node_id": "0.0-160.0-0.0"}}, {"uniqueid": "MTK1139:3NPI0JQDAPC8KUMNOL24V7NI7H7TPO", "current_trial": 215, "dateTime": 1513196245573, "trialdata": {"rt": -1, "stimulus": "<p id=\"stim\">9</p>", "key_press": -1, "trial_type": "single-stim", "trial_index": 215, "time_elapsed": 1132986, "internal_node_id": "0.0-160.0-1.0"}}, {"uniqueid": "MTK1139:3NPI0JQDAPC8KUMNOL24V7NI7H7TPO", "current_trial": 216, "dateTime": 1513196246579, "trialdata": {"rt": -1, "stimulus": "<p id=\"stim\">8</p>", "key_press": -1, "trial_type": "single-stim", "trial_index": 216, "time_elapsed": 1133992, "internal_node_id": "0.0-160.0-2.0"}}, {"uniqueid": "MTK1139:3NPI0JQDAPC8KUMNOL24V7NI7H7TPO", "current_trial": 217, "dateTime": 1513196247582, "trialdata": {"rt": -1, "stimulus": "<p id=\"stim\">7</p>", "key_press": -1, "trial_type": "single-stim", "trial_index": 217, "time_elapsed": 1134994, "internal_node_id": "0.0-160.0-3.0"}}, {"uniqueid": "MTK1139:3NPI0JQDAPC8KUMNOL24V7NI7H7TPO", "current_trial": 218, "dateTime": 1513196248585, "trialdata": {"rt": -1, "stimulus": "<p id=\"stim\">6</p>", "key_press": -1, "trial_type": "single-stim", "trial_index": 218, "time_elapsed": 1135998, "internal_node_id": "0.0-160.0-4.0"}}, {"uniqueid": "MTK1139:3NPI0JQDAPC8KUMNOL24V7NI7H7TPO", "current_trial": 219, "dateTime": 1513196249589, "trialdata": {"rt": -1, "stimulus": "<p id=\"stim\">5</p>", "key_press": -1, "trial_type": "single-stim", "trial_index": 219, "time_elapsed": 1137002, "internal_node_id": "0.0-160.0-5.0"}}, {"uniqueid": "MTK1139:3NPI0JQDAPC8KUMNOL24V7NI7H7TPO", "current_trial": 220, "dateTime": 1513196250593, "trialdata": {"rt": -1, "stimulus": "<p id=\"stim\">4</p>", "key_press": -1, "trial_type": "single-stim", "trial_index": 220, "time_elapsed": 1138006, "internal_node_id": "0.0-160.0-6.0"}}, {"uniqueid": "MTK1139:3NPI0JQDAPC8KUMNOL24V7NI7H7TPO", "current_trial": 221, "dateTime": 1513196251598, "trialdata": {"rt": -1, "stimulus": "<p id=\"stim\">3</p>", "key_press": -1, "trial_type": "single-stim", "trial_index": 221, "time_elapsed": 1139010, "internal_node_id": "0.0-160.0-7.0"}}, {"uniqueid": "MTK1139:3NPI0JQDAPC8KUMNOL24V7NI7H7TPO", "current_trial": 222, "dateTime": 1513196252601, "trialdata": {"rt": -1, "stimulus": "<p id=\"stim\">2</p>", "key_press": -1, "trial_type": "single-stim", "trial_index": 222, "time_elapsed": 1140014, "internal_node_id": "0.0-160.0-8.0"}}, {"uniqueid": "MTK1139:3NPI0JQDAPC8KUMNOL24V7NI7H7TPO", "current_trial": 223, "dateTime": 1513196253606, "trialdata": {"rt": -1, "stimulus": "<p id=\"stim\">1</p>", "key_press": -1, "trial_type": "single-stim", "trial_index": 223, "time_elapsed": 1141018, "internal_node_id": "0.0-160.0-9.0"}}, {"uniqueid": "MTK1139:3NPI0JQDAPC8KUMNOL24V7NI7H7TPO", "current_trial": 224, "dateTime": 1513196255109, "trialdata": {"rt": -1, "stimulus": "<p id=\"stim\">+</p>", "key_press": -1, "type": "FIXATION", "trial_type": "single-stim", "trial_index": 224, "time_elapsed": 1142522, "internal_node_id": "0.0-161.0-0.0"}}, {"uniqueid": "MTK1139:3NPI0JQDAPC8KUMNOL24V7NI7H7TPO", "current_trial": 225, "dateTime": 1513196256850, "trialdata": {"rt": -1000, "stimulus": "/static/audio/wordpool/BLOUSE.wav", "key_press": -1, "type": "PRES_AUD", "word": "blouse", "wordID": 138, "conditions": [24, 800, "a", 24000], "trial": 6, "serialpos": 0, "trial_type": "single-audio", "trial_index": 225, "time_elapsed": 1144263, "internal_node_id": "0.0-162.0"}}, {"uniqueid": "MTK1139:3NPI0JQDAPC8KUMNOL24V7NI7H7TPO", "current_trial": 226, "dateTime": 1513196258513, "trialdata": {"rt": -1000, "stimulus": "/static/audio/wordpool/PARSLEY.wav", "key_press": -1, "type": "PRES_AUD", "word": "parsley", "wordID": 1015, "conditions": [24, 800, "a", 24000], "trial": 6, "serialpos": 1, "trial_type": "single-audio", "trial_index": 226, "time_elapsed": 1145925, "internal_node_id": "0.0-163.0"}}, {"uniqueid": "MTK1139:3NPI0JQDAPC8KUMNOL24V7NI7H7TPO", "current_trial": 227, "dateTime": 1513196260204, "trialdata": {"rt": -1000, "stimulus": "/static/audio/wordpool/SLOPE.wav", "key_press": -1, "type": "PRES_AUD", "word": "slope", "wordID": 1327, "conditions": [24, 800, "a", 24000], "trial": 6, "serialpos": 2, "trial_type": "single-audio", "trial_index": 227, "time_elapsed": 1147617, "internal_node_id": "0.0-164.0"}}, {"uniqueid": "MTK1139:3NPI0JQDAPC8KUMNOL24V7NI7H7TPO", "current_trial": 228, "dateTime": 1513196262117, "trialdata": {"rt": -1000, "stimulus": "/static/audio/wordpool/SKIRT.wav", "key_press": -1, "type": "PRES_AUD", "word": "skirt", "wordID": 1318, "conditions": [24, 800, "a", 24000], "trial": 6, "serialpos": 3, "trial_type": "single-audio", "trial_index": 228, "time_elapsed": 1149530, "internal_node_id": "0.0-165.0"}}, {"uniqueid": "MTK1139:3NPI0JQDAPC8KUMNOL24V7NI7H7TPO", "current_trial": 229, "dateTime": 1513196264058, "trialdata": {"rt": -1000, "stimulus": "/static/audio/wordpool/SCOTCH.wav", "key_press": -1, "type": "PRES_AUD", "word": "scotch", "wordID": 1250, "conditions": [24, 800, "a", 24000], "trial": 6, "serialpos": 4, "trial_type": "single-audio", "trial_index": 229, "time_elapsed": 1151471, "internal_node_id": "0.0-166.0"}}, {"uniqueid": "MTK1139:3NPI0JQDAPC8KUMNOL24V7NI7H7TPO", "current_trial": 230, "dateTime": 1513196265788, "trialdata": {"rt": -1000, "stimulus": "/static/audio/wordpool/BRANDY.wav", "key_press": -1, "type": "PRES_AUD", "word": "brandy", "wordID": 168, "conditions": [24, 800, "a", 24000], "trial": 6, "serialpos": 5, "trial_type": "single-audio", "trial_index": 230, "time_elapsed": 1153201, "internal_node_id": "0.0-167.0"}}, {"uniqueid": "MTK1139:3NPI0JQDAPC8KUMNOL24V7NI7H7TPO", "current_trial": 231, "dateTime": 1513196267512, "trialdata": {"rt": -1000, "stimulus": "/static/audio/wordpool/TURNIP.wav", "key_press": -1, "type": "PRES_AUD", "word": "turnip", "wordID": 1520, "conditions": [24, 800, "a", 24000], "trial": 6, "serialpos": 6, "trial_type": "single-audio", "trial_index": 231, "time_elapsed": 1154924, "internal_node_id": "0.0-168.0"}}, {"uniqueid": "MTK1139:3NPI0JQDAPC8KUMNOL24V7NI7H7TPO", "current_trial": 232, "dateTime": 1513196269248, "trialdata": {"rt": -1000, "stimulus": "/static/audio/wordpool/CYCLONE.wav", "key_press": -1, "type": "PRES_AUD", "word": "cyclone", "wordID": 430, "conditions": [24, 800, "a", 24000], "trial": 6, "serialpos": 7, "trial_type": "single-audio", "trial_index": 232, "time_elapsed": 1156660, "internal_node_id": "0.0-169.0"}}, {"uniqueid": "MTK1139:3NPI0JQDAPC8KUMNOL24V7NI7H7TPO", "current_trial": 233, "dateTime": 1513196271239, "trialdata": {"rt": -1000, "stimulus": "/static/audio/wordpool/EYELASH.wav", "key_press": -1, "type": "PRES_AUD", "word": "eyelash", "wordID": 545, "conditions": [24, 800, "a", 24000], "trial": 6, "serialpos": 8, "trial_type": "single-audio", "trial_index": 233, "time_elapsed": 1158651, "internal_node_id": "0.0-170.0"}}, {"uniqueid": "MTK1139:3NPI0JQDAPC8KUMNOL24V7NI7H7TPO", "current_trial": 234, "dateTime": 1513196272998, "trialdata": {"rt": -1000, "stimulus": "/static/audio/wordpool/RUG.wav", "key_press": -1, "type": "PRES_AUD", "word": "rug", "wordID": 1214, "conditions": [24, 800, "a", 24000], "trial": 6, "serialpos": 9, "trial_type": "single-audio", "trial_index": 234, "time_elapsed": 1160410, "internal_node_id": "0.0-171.0"}}, {"uniqueid": "MTK1139:3NPI0JQDAPC8KUMNOL24V7NI7H7TPO", "current_trial": 235, "dateTime": 1513196274609, "trialdata": {"rt": -1000, "stimulus": "/static/audio/wordpool/KETCHUP.wav", "key_press": -1, "type": "PRES_AUD", "word": "ketchup", "wordID": 770, "conditions": [24, 800, "a", 24000], "trial": 6, "serialpos": 10, "trial_type": "single-audio", "trial_index": 235, "time_elapsed": 1162022, "internal_node_id": "0.0-172.0"}}, {"uniqueid": "MTK1139:3NPI0JQDAPC8KUMNOL24V7NI7H7TPO", "current_trial": 236, "dateTime": 1513196276347, "trialdata": {"rt": -1000, "stimulus": "/static/audio/wordpool/RUST.wav", "key_press": -1, "type": "PRES_AUD", "word": "rust", "wordID": 1218, "conditions": [24, 800, "a", 24000], "trial": 6, "serialpos": 11, "trial_type": "single-audio", "trial_index": 236, "time_elapsed": 1163760, "internal_node_id": "0.0-173.0"}}, {"uniqueid": "MTK1139:3NPI0JQDAPC8KUMNOL24V7NI7H7TPO", "current_trial": 237, "dateTime": 1513196278152, "trialdata": {"rt": -1000, "stimulus": "/static/audio/wordpool/PECAN.wav", "key_press": -1, "type": "PRES_AUD", "word": "pecan", "wordID": 1035, "conditions": [24, 800, "a", 24000], "trial": 6, "serialpos": 12, "trial_type": "single-audio", "trial_index": 237, "time_elapsed": 1165565, "internal_node_id": "0.0-174.0"}}, {"uniqueid": "MTK1139:3NPI0JQDAPC8KUMNOL24V7NI7H7TPO", "current_trial": 238, "dateTime": 1513196280151, "trialdata": {"rt": -1000, "stimulus": "/static/audio/wordpool/SNAKE.wav", "key_press": -1, "type": "PRES_AUD", "word": "snake", "wordID": 1332, "conditions": [24, 800, "a", 24000], "trial": 6, "serialpos": 13, "trial_type": "single-audio", "trial_index": 238, "time_elapsed": 1167563, "internal_node_id": "0.0-175.0"}}, {"uniqueid": "MTK1139:3NPI0JQDAPC8KUMNOL24V7NI7H7TPO", "current_trial": 239, "dateTime": 1513196282001, "trialdata": {"rt": -1000, "stimulus": "/static/audio/wordpool/COBRA.wav", "key_press": -1, "type": "PRES_AUD", "word": "cobra", "wordID": 335, "conditions": [24, 800, "a", 24000], "trial": 6, "serialpos": 14, "trial_type": "single-audio", "trial_index": 239, "time_elapsed": 1169414, "internal_node_id": "0.0-176.0"}}, {"uniqueid": "MTK1139:3NPI0JQDAPC8KUMNOL24V7NI7H7TPO", "current_trial": 240, "dateTime": 1513196283620, "trialdata": {"rt": -1000, "stimulus": "/static/audio/wordpool/CLAMP.wav", "key_press": -1, "type": "PRES_AUD", "word": "clamp", "wordID": 315, "conditions": [24, 800, "a", 24000], "trial": 6, "serialpos": 15, "trial_type": "single-audio", "trial_index": 240, "time_elapsed": 1171033, "internal_node_id": "0.0-177.0"}}, {"uniqueid": "MTK1139:3NPI0JQDAPC8KUMNOL24V7NI7H7TPO", "current_trial": 241, "dateTime": 1513196285414, "trialdata": {"rt": -1000, "stimulus": "/static/audio/wordpool/CARRIAGE.wav", "key_press": -1, "type": "PRES_AUD", "word": "carriage", "wordID": 247, "conditions": [24, 800, "a", 24000], "trial": 6, "serialpos": 16, "trial_type": "single-audio", "trial_index": 241, "time_elapsed": 1172827, "internal_node_id": "0.0-178.0"}}, {"uniqueid": "MTK1139:3NPI0JQDAPC8KUMNOL24V7NI7H7TPO", "current_trial": 242, "dateTime": 1513196287240, "trialdata": {"rt": -1000, "stimulus": "/static/audio/wordpool/BARREL.wav", "key_press": -1, "type": "PRES_AUD", "word": "barrel", "wordID": 90, "conditions": [24, 800, "a", 24000], "trial": 6, "serialpos": 17, "trial_type": "single-audio", "trial_index": 242, "time_elapsed": 1174653, "internal_node_id": "0.0-179.0"}}, {"uniqueid": "MTK1139:3NPI0JQDAPC8KUMNOL24V7NI7H7TPO", "current_trial": 243, "dateTime": 1513196288874, "trialdata": {"rt": -1000, "stimulus": "/static/audio/wordpool/SHOULDER.wav", "key_press": -1, "type": "PRES_AUD", "word": "shoulder", "wordID": 1293, "conditions": [24, 800, "a", 24000], "trial": 6, "serialpos": 18, "trial_type": "single-audio", "trial_index": 243, "time_elapsed": 1176286, "internal_node_id": "0.0-180.0"}}, {"uniqueid": "MTK1139:3NPI0JQDAPC8KUMNOL24V7NI7H7TPO", "current_trial": 244, "dateTime": 1513196290819, "trialdata": {"rt": -1000, "stimulus": "/static/audio/wordpool/CHURCH.wav", "key_press": -1, "type": "PRES_AUD", "word": "church", "wordID": 306, "conditions": [24, 800, "a", 24000], "trial": 6, "serialpos": 19, "trial_type": "single-audio", "trial_index": 244, "time_elapsed": 1178232, "internal_node_id": "0.0-181.0"}}, {"uniqueid": "MTK1139:3NPI0JQDAPC8KUMNOL24V7NI7H7TPO", "current_trial": 245, "dateTime": 1513196292804, "trialdata": {"rt": -1000, "stimulus": "/static/audio/wordpool/GRAVE.wav", "key_press": -1, "type": "PRES_AUD", "word": "grave", "wordID": 657, "conditions": [24, 800, "a", 24000], "trial": 6, "serialpos": 20, "trial_type": "single-audio", "trial_index": 245, "time_elapsed": 1180216, "internal_node_id": "0.0-182.0"}}, {"uniqueid": "MTK1139:3NPI0JQDAPC8KUMNOL24V7NI7H7TPO", "current_trial": 246, "dateTime": 1513196294406, "trialdata": {"rt": -1000, "stimulus": "/static/audio/wordpool/CHEST.wav", "key_press": -1, "type": "PRES_AUD", "word": "chest", "wordID": 294, "conditions": [24, 800, "a", 24000], "trial": 6, "serialpos": 21, "trial_type": "single-audio", "trial_index": 246, "time_elapsed": 1181819, "internal_node_id": "0.0-183.0"}}, {"uniqueid": "MTK1139:3NPI0JQDAPC8KUMNOL24V7NI7H7TPO", "current_trial": 247, "dateTime": 1513196296275, "trialdata": {"rt": -1000, "stimulus": "/static/audio/wordpool/APRON.wav", "key_press": -1, "type": "PRES_AUD", "word": "apron", "wordID": 34, "conditions": [24, 800, "a", 24000], "trial": 6, "serialpos": 22, "trial_type": "single-audio", "trial_index": 247, "time_elapsed": 1183688, "internal_node_id": "0.0-184.0"}}, {"uniqueid": "MTK1139:3NPI0JQDAPC8KUMNOL24V7NI7H7TPO", "current_trial": 248, "dateTime": 1513196298197, "trialdata": {"rt": -1000, "stimulus": "/static/audio/wordpool/PEACH.wav", "key_press": -1, "type": "PRES_AUD", "word": "peach", "wordID": 1030, "conditions": [24, 800, "a", 24000], "trial": 6, "serialpos": 23, "trial_type": "single-audio", "trial_index": 248, "time_elapsed": 1185609, "internal_node_id": "0.0-185.0"}}, {"uniqueid": "MTK1139:3NPI0JQDAPC8KUMNOL24V7NI7H7TPO", "current_trial": 249, "dateTime": 1513196299422, "trialdata": {"rt": -1, "stimulus": "", "key_press": -1, "type": "PRE_RECALL_DELAY", "trial_type": "single-stim", "trial_index": 249, "time_elapsed": 1186834, "internal_node_id": "0.0-186.0-0.0"}}, {"uniqueid": "MTK1139:3NPI0JQDAPC8KUMNOL24V7NI7H7TPO", "current_trial": 250, "dateTime": 1513196299925, "trialdata": {"rt": -1000, "stimulus": "/static/audio/400Hz.wav", "key_press": -1, "type": "PRE_RECALL_ALERT", "trial_type": "single-audio", "trial_index": 250, "time_elapsed": 1187337, "internal_node_id": "0.0-187.0"}}, {"uniqueid": "MTK1139:3NPI0JQDAPC8KUMNOL24V7NI7H7TPO", "current_trial": 251, "dateTime": 1513196359946, "trialdata": {"rt": [2792, 6778, 7968, 9472, 11631, 13152, 14775, 20135, 23751, 26007, 28423, 36607, 41199], "recwords": ["peach", "church", "snake", "bobra", "rug", "rust", "skirt", "bloose", "grave", "barrel", "brandy", "souch", "slop"], "type": "FREE_RECALL", "conditions": [24, 800, "a", 24000], "trial": 6, "trial_type": "free-recall", "trial_index": 251, "time_elapsed": 1247347, "internal_node_id": "0.0-188.0-0.0"}}, {"uniqueid": "MTK1139:3NPI0JQDAPC8KUMNOL24V7NI7H7TPO", "current_trial": 252, "dateTime": 1513196363607, "trialdata": {"rt": 1659, "key_press": 78, "type": "INSTRUCTIONS", "trial_type": "text", "trial_index": 252, "time_elapsed": 1251019, "internal_node_id": "0.0-189.0"}}, {"uniqueid": "MTK1139:3NPI0JQDAPC8KUMNOL24V7NI7H7TPO", "current_trial": 253, "dateTime": 1513196377618, "trialdata": {"rt": [4363, 7803, 10931], "responses": ["13", "14", "19"], "num1": [4, 1, 5, 4], "num2": [4, 7, 5, 4], "num3": [5, 6, 9, 2], "type": "DISTRACTOR", "conditions": [24, 1600, "a", 12000], "trial": 7, "trial_type": "math-distractor", "trial_index": 253, "time_elapsed": 1265031, "internal_node_id": "0.0-190.0"}}, {"uniqueid": "MTK1139:3NPI0JQDAPC8KUMNOL24V7NI7H7TPO", "current_trial": 254, "dateTime": 1513196380624, "trialdata": {"rt": -1, "stimulus": "<p id=\"stim\">10</p>", "key_press": -1, "trial_type": "single-stim", "trial_index": 254, "time_elapsed": 1268036, "internal_node_id": "0.0-191.0-0.0"}}, {"uniqueid": "MTK1139:3NPI0JQDAPC8KUMNOL24V7NI7H7TPO", "current_trial": 255, "dateTime": 1513196381628, "trialdata": {"rt": -1, "stimulus": "<p id=\"stim\">9</p>", "key_press": -1, "trial_type": "single-stim", "trial_index": 255, "time_elapsed": 1269041, "internal_node_id": "0.0-191.0-1.0"}}, {"uniqueid": "MTK1139:3NPI0JQDAPC8KUMNOL24V7NI7H7TPO", "current_trial": 256, "dateTime": 1513196382632, "trialdata": {"rt": -1, "stimulus": "<p id=\"stim\">8</p>", "key_press": -1, "trial_type": "single-stim", "trial_index": 256, "time_elapsed": 1270045, "internal_node_id": "0.0-191.0-2.0"}}, {"uniqueid": "MTK1139:3NPI0JQDAPC8KUMNOL24V7NI7H7TPO", "current_trial": 257, "dateTime": 1513196383636, "trialdata": {"rt": -1, "stimulus": "<p id=\"stim\">7</p>", "key_press": -1, "trial_type": "single-stim", "trial_index": 257, "time_elapsed": 1271049, "internal_node_id": "0.0-191.0-3.0"}}, {"uniqueid": "MTK1139:3NPI0JQDAPC8KUMNOL24V7NI7H7TPO", "current_trial": 258, "dateTime": 1513196384640, "trialdata": {"rt": -1, "stimulus": "<p id=\"stim\">6</p>", "key_press": -1, "trial_type": "single-stim", "trial_index": 258, "time_elapsed": 1272053, "internal_node_id": "0.0-191.0-4.0"}}, {"uniqueid": "MTK1139:3NPI0JQDAPC8KUMNOL24V7NI7H7TPO", "current_trial": 259, "dateTime": 1513196385645, "trialdata": {"rt": -1, "stimulus": "<p id=\"stim\">5</p>", "key_press": -1, "trial_type": "single-stim", "trial_index": 259, "time_elapsed": 1273057, "internal_node_id": "0.0-191.0-5.0"}}, {"uniqueid": "MTK1139:3NPI0JQDAPC8KUMNOL24V7NI7H7TPO", "current_trial": 260, "dateTime": 1513196386648, "trialdata": {"rt": -1, "stimulus": "<p id=\"stim\">4</p>", "key_press": -1, "trial_type": "single-stim", "trial_index": 260, "time_elapsed": 1274061, "internal_node_id": "0.0-191.0-6.0"}}, {"uniqueid": "MTK1139:3NPI0JQDAPC8KUMNOL24V7NI7H7TPO", "current_trial": 261, "dateTime": 1513196387653, "trialdata": {"rt": -1, "stimulus": "<p id=\"stim\">3</p>", "key_press": -1, "trial_type": "single-stim", "trial_index": 261, "time_elapsed": 1275065, "internal_node_id": "0.0-191.0-7.0"}}, {"uniqueid": "MTK1139:3NPI0JQDAPC8KUMNOL24V7NI7H7TPO", "current_trial": 262, "dateTime": 1513196388657, "trialdata": {"rt": -1, "stimulus": "<p id=\"stim\">2</p>", "key_press": -1, "trial_type": "single-stim", "trial_index": 262, "time_elapsed": 1276069, "internal_node_id": "0.0-191.0-8.0"}}, {"uniqueid": "MTK1139:3NPI0JQDAPC8KUMNOL24V7NI7H7TPO", "current_trial": 263, "dateTime": 1513196389661, "trialdata": {"rt": -1, "stimulus": "<p id=\"stim\">1</p>", "key_press": -1, "trial_type": "single-stim", "trial_index": 263, "time_elapsed": 1277074, "internal_node_id": "0.0-191.0-9.0"}}, {"uniqueid": "MTK1139:3NPI0JQDAPC8KUMNOL24V7NI7H7TPO", "current_trial": 264, "dateTime": 1513196391164, "trialdata": {"rt": -1, "stimulus": "<p id=\"stim\">+</p>", "key_press": -1, "type": "FIXATION", "trial_type": "single-stim", "trial_index": 264, "time_elapsed": 1278577, "internal_node_id": "0.0-192.0-0.0"}}, {"uniqueid": "MTK1139:3NPI0JQDAPC8KUMNOL24V7NI7H7TPO", "current_trial": 265, "dateTime": 1513196393726, "trialdata": {"rt": -1000, "stimulus": "/static/audio/wordpool/BOYFRIEND.wav", "key_press": -1, "type": "PRES_AUD", "word": "boyfriend", "wordID": 161, "conditions": [24, 1600, "a", 12000], "trial": 7, "serialpos": 0, "trial_type": "single-audio", "trial_index": 265, "time_elapsed": 1281139, "internal_node_id": "0.0-193.0"}}, {"uniqueid": "MTK1139:3NPI0JQDAPC8KUMNOL24V7NI7H7TPO", "current_trial": 266, "dateTime": 1513196396362, "trialdata": {"rt": -1000, "stimulus": "/static/audio/wordpool/WAITER.wav", "key_press": -1, "type": "PRES_AUD", "word": "waiter", "wordID": 1579, "conditions": [24, 1600, "a", 12000], "trial": 7, "serialpos": 1, "trial_type": "single-audio", "trial_index": 266, "time_elapsed": 1283774, "internal_node_id": "0.0-194.0"}}, {"uniqueid": "MTK1139:3NPI0JQDAPC8KUMNOL24V7NI7H7TPO", "current_trial": 267, "dateTime": 1513196399079, "trialdata": {"rt": -1000, "stimulus": "/static/audio/wordpool/TWEEZERS.wav", "key_press": -1, "type": "PRES_AUD", "word": "tweezers", "wordID": 1525, "conditions": [24, 1600, "a", 12000], "trial": 7, "serialpos": 2, "trial_type": "single-audio", "trial_index": 267, "time_elapsed": 1286491, "internal_node_id": "0.0-195.0"}}, {"uniqueid": "MTK1139:3NPI0JQDAPC8KUMNOL24V7NI7H7TPO", "current_trial": 268, "dateTime": 1513196401484, "trialdata": {"rt": -1000, "stimulus": "/static/audio/wordpool/PICTURE.wav", "key_press": -1, "type": "PRES_AUD", "word": "picture", "wordID": 1060, "conditions": [24, 1600, "a", 12000], "trial": 7, "serialpos": 3, "trial_type": "single-audio", "trial_index": 268, "time_elapsed": 1288897, "internal_node_id": "0.0-196.0"}}, {"uniqueid": "MTK1139:3NPI0JQDAPC8KUMNOL24V7NI7H7TPO", "current_trial": 269, "dateTime": 1513196403908, "trialdata": {"rt": -1000, "stimulus": "/static/audio/wordpool/PORTRAIT.wav", "key_press": -1, "type": "PRES_AUD", "word": "portrait", "wordID": 1110, "conditions": [24, 1600, "a", 12000], "trial": 7, "serialpos": 4, "trial_type": "single-audio", "trial_index": 269, "time_elapsed": 1291321, "internal_node_id": "0.0-197.0"}}, {"uniqueid": "MTK1139:3NPI0JQDAPC8KUMNOL24V7NI7H7TPO", "current_trial": 270, "dateTime": 1513196406642, "trialdata": {"rt": -1000, "stimulus": "/static/audio/wordpool/DINER.wav", "key_press": -1, "type": "PRES_AUD", "word": "diner", "wordID": 466, "conditions": [24, 1600, "a", 12000], "trial": 7, "serialpos": 5, "trial_type": "single-audio", "trial_index": 270, "time_elapsed": 1294055, "internal_node_id": "0.0-198.0"}}, {"uniqueid": "MTK1139:3NPI0JQDAPC8KUMNOL24V7NI7H7TPO", "current_trial": 271, "dateTime": 1513196409162, "trialdata": {"rt": -1000, "stimulus": "/static/audio/wordpool/EGYPT.wav", "key_press": -1, "type": "PRES_AUD", "word": "egypt", "wordID": 518, "conditions": [24, 1600, "a", 12000], "trial": 7, "serialpos": 6, "trial_type": "single-audio", "trial_index": 271, "time_elapsed": 1296574, "internal_node_id": "0.0-199.0"}}, {"uniqueid": "MTK1139:3NPI0JQDAPC8KUMNOL24V7NI7H7TPO", "current_trial": 272, "dateTime": 1513196411959, "trialdata": {"rt": -1000, "stimulus"