{"condition": 0, "counterbalance": 1947, "assignmentId": "3KMS4QQVK3XXQY76G9S7IMMIMU2KF7", "workerId": "MTK1062", "hitId": "31SIZS5W59MEH7CGU77W6DGQ8EIRQ3", "currenttrial": 626, "bonus": 0, "data": [{"uniqueid": "MTK1062:3KMS4QQVK3XXQY76G9S7IMMIMU2KF7", "current_trial": 0, "dateTime": 1513023494405, "trialdata": {"rt": 1599, "key_press": 71, "type": "INSTRUCTIONS", "trial_type": "text", "trial_index": 0, "time_elapsed": 1601, "internal_node_id": "0.0-0.0"}}, {"uniqueid": "MTK1062:3KMS4QQVK3XXQY76G9S7IMMIMU2KF7", "current_trial": 1, "dateTime": 1513023497047, "trialdata": {"rt": 2641, "key_press": 71, "type": "INSTRUCTIONS", "trial_type": "text", "trial_index": 1, "time_elapsed": 4244, "internal_node_id": "0.0-1.0"}}, {"uniqueid": "MTK1062:3KMS4QQVK3XXQY76G9S7IMMIMU2KF7", "current_trial": 2, "dateTime": 1513023504499, "trialdata": {"rt": [7446], "responses": ["ocean"], "type": "AUDIO_TEST", "trial_type": "audio-test", "trial_index": 2, "time_elapsed": 11696, "internal_node_id": "0.0-2.0"}}, {"uniqueid": "MTK1062:3KMS4QQVK3XXQY76G9S7IMMIMU2KF7", "current_trial": 3, "dateTime": 1513023513250, "trialdata": {"rt": [3832, 8750], "responses": ["cystal", "crystal"], "type": "AUDIO_TEST", "trial_type": "audio-test", "trial_index": 3, "time_elapsed": 20447, "internal_node_id": "0.0-3.0"}}, {"uniqueid": "MTK1062:3KMS4QQVK3XXQY76G9S7IMMIMU2KF7", "current_trial": 4, "dateTime": 1513023517270, "trialdata": {"rt": [4017], "responses": ["spice"], "type": "AUDIO_TEST", "trial_type": "audio-test", "trial_index": 4, "time_elapsed": 24467, "internal_node_id": "0.0-4.0"}}, {"uniqueid": "MTK1062:3KMS4QQVK3XXQY76G9S7IMMIMU2KF7", "current_trial": 5, "dateTime": 1513023544865, "trialdata": {"rt": 26843, "responses": "{\"Q0\":\"12\",\"Q1\":\"8\",\"Q2\":\"5\"}", "type": "SLEEP_SURVEY", "trial_type": "survey-text", "trial_index": 5, "time_elapsed": 52062, "internal_node_id": "0.0-5.0"}}, {"uniqueid": "MTK1062:3KMS4QQVK3XXQY76G9S7IMMIMU2KF7", "current_trial": 6, "dateTime": 1513023547596, "trialdata": {"rt": 1729, "key_press": 32, "type": "INSTRUCTIONS", "trial_type": "text", "trial_index": 6, "time_elapsed": 54793, "internal_node_id": "0.0-6.0"}}, {"uniqueid": "MTK1062:3KMS4QQVK3XXQY76G9S7IMMIMU2KF7", "current_trial": 7, "dateTime": 1513023552421, "trialdata": {"rt": 4325, "key_press": 32, "type": "INSTRUCTIONS", "trial_type": "text", "trial_index": 7, "time_elapsed": 59618, "internal_node_id": "0.0-7.0"}}, {"uniqueid": "MTK1062:3KMS4QQVK3XXQY76G9S7IMMIMU2KF7", "current_trial": 8, "dateTime": 1513023554359, "trialdata": {"rt": 1436, "key_press": 32, "type": "INSTRUCTIONS", "trial_type": "text", "trial_index": 8, "time_elapsed": 61556, "internal_node_id": "0.0-8.0"}}, {"uniqueid": "MTK1062:3KMS4QQVK3XXQY76G9S7IMMIMU2KF7", "current_trial": 9, "dateTime": 1513023573363, "trialdata": {"rt": [2694, 4832, 6386, 8650, 10691, 12654, 14583, 16307, 17945], "responses": ["9", "18", "10", "16", "17", "23", "24", "7", "7"], "num1": [1, 8, 7, 2, 6, 5, 8, 2, 1, 5], "num2": [4, 6, 2, 5, 6, 9, 8, 3, 3, 6], "num3": [4, 4, 1, 9, 5, 9, 8, 2, 3, 1], "type": "DISTRACTOR", "conditions": [18, 1200, "a", 18000], "trial": 0, "trial_type": "math-distractor", "trial_index": 9, "time_elapsed": 80560, "internal_node_id": "0.0-9.0"}}, {"uniqueid": "MTK1062:3KMS4QQVK3XXQY76G9S7IMMIMU2KF7", "current_trial": 10, "dateTime": 1513023576366, "trialdata": {"rt": -1, "stimulus": "<p id=\"stim\">10</p>", "key_press": -1, "trial_type": "single-stim", "trial_index": 10, "time_elapsed": 83563, "internal_node_id": "0.0-10.0-0.0"}}, {"uniqueid": "MTK1062:3KMS4QQVK3XXQY76G9S7IMMIMU2KF7", "current_trial": 11, "dateTime": 1513023577367, "trialdata": {"rt": -1, "stimulus": "<p id=\"stim\">9</p>", "key_press": -1, "trial_type": "single-stim", "trial_index": 11, "time_elapsed": 84564, "internal_node_id": "0.0-10.0-1.0"}}, {"uniqueid": "MTK1062:3KMS4QQVK3XXQY76G9S7IMMIMU2KF7", "current_trial": 12, "dateTime": 1513023578368, "trialdata": {"rt": 316, "stimulus": "<p id=\"stim\">8</p>", "key_press": 13, "trial_type": "single-stim", "trial_index": 12, "time_elapsed": 85565, "internal_node_id": "0.0-10.0-2.0"}}, {"uniqueid": "MTK1062:3KMS4QQVK3XXQY76G9S7IMMIMU2KF7", "current_trial": 13, "dateTime": 1513023579370, "trialdata": {"rt": -1, "stimulus": "<p id=\"stim\">7</p>", "key_press": -1, "trial_type": "single-stim", "trial_index": 13, "time_elapsed": 86567, "internal_node_id": "0.0-10.0-3.0"}}, {"uniqueid": "MTK1062:3KMS4QQVK3XXQY76G9S7IMMIMU2KF7", "current_trial": 14, "dateTime": 1513023580373, "trialdata": {"rt": -1, "stimulus": "<p id=\"stim\">6</p>", "key_press": -1, "trial_type": "single-stim", "trial_index": 14, "time_elapsed": 87570, "internal_node_id": "0.0-10.0-4.0"}}, {"uniqueid": "MTK1062:3KMS4QQVK3XXQY76G9S7IMMIMU2KF7", "current_trial": 15, "dateTime": 1513023581373, "trialdata": {"rt": -1, "stimulus": "<p id=\"stim\">5</p>", "key_press": -1, "trial_type": "single-stim", "trial_index": 15, "time_elapsed": 88570, "internal_node_id": "0.0-10.0-5.0"}}, {"uniqueid": "MTK1062:3KMS4QQVK3XXQY76G9S7IMMIMU2KF7", "current_trial": 16, "dateTime": 1513023582374, "trialdata": {"rt": -1, "stimulus": "<p id=\"stim\">4</p>", "key_press": -1, "trial_type": "single-stim", "trial_index": 16, "time_elapsed": 89571, "internal_node_id": "0.0-10.0-6.0"}}, {"uniqueid": "MTK1062:3KMS4QQVK3XXQY76G9S7IMMIMU2KF7", "current_trial": 17, "dateTime": 1513023583375, "trialdata": {"rt": -1, "stimulus": "<p id=\"stim\">3</p>", "key_press": -1, "trial_type": "single-stim", "trial_index": 17, "time_elapsed": 90572, "internal_node_id": "0.0-10.0-7.0"}}, {"uniqueid": "MTK1062:3KMS4QQVK3XXQY76G9S7IMMIMU2KF7", "current_trial": 18, "dateTime": 1513023584376, "trialdata": {"rt": -1, "stimulus": "<p id=\"stim\">2</p>", "key_press": -1, "trial_type": "single-stim", "trial_index": 18, "time_elapsed": 91573, "internal_node_id": "0.0-10.0-8.0"}}, {"uniqueid": "MTK1062:3KMS4QQVK3XXQY76G9S7IMMIMU2KF7", "current_trial": 19, "dateTime": 1513023585378, "trialdata": {"rt": -1, "stimulus": "<p id=\"stim\">1</p>", "key_press": -1, "trial_type": "single-stim", "trial_index": 19, "time_elapsed": 92575, "internal_node_id": "0.0-10.0-9.0"}}, {"uniqueid": "MTK1062:3KMS4QQVK3XXQY76G9S7IMMIMU2KF7", "current_trial": 20, "dateTime": 1513023586879, "trialdata": {"rt": -1, "stimulus": "<p id=\"stim\">+</p>", "key_press": -1, "type": "FIXATION", "trial_type": "single-stim", "trial_index": 20, "time_elapsed": 94076, "internal_node_id": "0.0-11.0-0.0"}}, {"uniqueid": "MTK1062:3KMS4QQVK3XXQY76G9S7IMMIMU2KF7", "current_trial": 21, "dateTime": 1513023588969, "trialdata": {"rt": -1000, "stimulus": "/static/audio/wordpool/TERMITE.wav", "key_press": -1, "type": "PRES_AUD", "word": "termite", "wordID": 1450, "conditions": [18, 1200, "a", 18000], "trial": 0, "serialpos": 0, "trial_type": "single-audio", "trial_index": 21, "time_elapsed": 96166, "internal_node_id": "0.0-12.0"}}, {"uniqueid": "MTK1062:3KMS4QQVK3XXQY76G9S7IMMIMU2KF7", "current_trial": 22, "dateTime": 1513023591026, "trialdata": {"rt": -1000, "stimulus": "/static/audio/wordpool/MUSTARD.wav", "key_press": -1, "type": "PRES_AUD", "word": "mustard", "wordID": 934, "conditions": [18, 1200, "a", 18000], "trial": 0, "serialpos": 1, "trial_type": "single-audio", "trial_index": 22, "time_elapsed": 98223, "internal_node_id": "0.0-13.0"}}, {"uniqueid": "MTK1062:3KMS4QQVK3XXQY76G9S7IMMIMU2KF7", "current_trial": 23, "dateTime": 1513023593235, "trialdata": {"rt": -1000, "stimulus": "/static/audio/wordpool/SWAMP.wav", "key_press": -1, "type": "PRES_AUD", "word": "swamp", "wordID": 1415, "conditions": [18, 1200, "a", 18000], "trial": 0, "serialpos": 2, "trial_type": "single-audio", "trial_index": 23, "time_elapsed": 100432, "internal_node_id": "0.0-14.0"}}, {"uniqueid": "MTK1062:3KMS4QQVK3XXQY76G9S7IMMIMU2KF7", "current_trial": 24, "dateTime": 1513023595620, "trialdata": {"rt": -1000, "stimulus": "/static/audio/wordpool/TUBA.wav", "key_press": -1, "type": "PRES_AUD", "word": "tuba", "wordID": 1514, "conditions": [18, 1200, "a", 18000], "trial": 0, "serialpos": 3, "trial_type": "single-audio", "trial_index": 24, "time_elapsed": 102817, "internal_node_id": "0.0-15.0"}}, {"uniqueid": "MTK1062:3KMS4QQVK3XXQY76G9S7IMMIMU2KF7", "current_trial": 25, "dateTime": 1513023597917, "trialdata": {"rt": -1000, "stimulus": "/static/audio/wordpool/BOUQUET.wav", "key_press": -1, "type": "PRES_AUD", "word": "bouquet", "wordID": 156, "conditions": [18, 1200, "a", 18000], "trial": 0, "serialpos": 4, "trial_type": "single-audio", "trial_index": 25, "time_elapsed": 105114, "internal_node_id": "0.0-16.0"}}, {"uniqueid": "MTK1062:3KMS4QQVK3XXQY76G9S7IMMIMU2KF7", "current_trial": 26, "dateTime": 1513023599958, "trialdata": {"rt": -1000, "stimulus": "/static/audio/wordpool/DRESS.wav", "key_press": -1, "type": "PRES_AUD", "word": "dress", "wordID": 494, "conditions": [18, 1200, "a", 18000], "trial": 0, "serialpos": 5, "trial_type": "single-audio", "trial_index": 26, "time_elapsed": 107154, "internal_node_id": "0.0-17.0"}}, {"uniqueid": "MTK1062:3KMS4QQVK3XXQY76G9S7IMMIMU2KF7", "current_trial": 27, "dateTime": 1513023602072, "trialdata": {"rt": -1000, "stimulus": "/static/audio/wordpool/PADDING.wav", "key_press": -1, "type": "PRES_AUD", "word": "padding", "wordID": 998, "conditions": [18, 1200, "a", 18000], "trial": 0, "serialpos": 6, "trial_type": "single-audio", "trial_index": 27, "time_elapsed": 109269, "internal_node_id": "0.0-18.0"}}, {"uniqueid": "MTK1062:3KMS4QQVK3XXQY76G9S7IMMIMU2KF7", "current_trial": 28, "dateTime": 1513023604290, "trialdata": {"rt": -1000, "stimulus": "/static/audio/wordpool/SALAD.wav", "key_press": -1, "type": "PRES_AUD", "word": "salad", "wordID": 1223, "conditions": [18, 1200, "a", 18000], "trial": 0, "serialpos": 7, "trial_type": "single-audio", "trial_index": 28, "time_elapsed": 111487, "internal_node_id": "0.0-19.0"}}, {"uniqueid": "MTK1062:3KMS4QQVK3XXQY76G9S7IMMIMU2KF7", "current_trial": 29, "dateTime": 1513023606469, "trialdata": {"rt": -1000, "stimulus": "/static/audio/wordpool/RAFT.wav", "key_press": -1, "type": "PRES_AUD", "word": "raft", "wordID": 1158, "conditions": [18, 1200, "a", 18000], "trial": 0, "serialpos": 8, "trial_type": "single-audio", "trial_index": 29, "time_elapsed": 113666, "internal_node_id": "0.0-20.0"}}, {"uniqueid": "MTK1062:3KMS4QQVK3XXQY76G9S7IMMIMU2KF7", "current_trial": 30, "dateTime": 1513023608507, "trialdata": {"rt": -1000, "stimulus": "/static/audio/wordpool/MAILBOX.wav", "key_press": -1, "type": "PRES_AUD", "word": "mailbox", "wordID": 856, "conditions": [18, 1200, "a", 18000], "trial": 0, "serialpos": 9, "trial_type": "single-audio", "trial_index": 30, "time_elapsed": 115704, "internal_node_id": "0.0-21.0"}}, {"uniqueid": "MTK1062:3KMS4QQVK3XXQY76G9S7IMMIMU2KF7", "current_trial": 31, "dateTime": 1513023610714, "trialdata": {"rt": -1000, "stimulus": "/static/audio/wordpool/TOASTER.wav", "key_press": -1, "type": "PRES_AUD", "word": "toaster", "wordID": 1471, "conditions": [18, 1200, "a", 18000], "trial": 0, "serialpos": 10, "trial_type": "single-audio", "trial_index": 31, "time_elapsed": 117911, "internal_node_id": "0.0-22.0"}}, {"uniqueid": "MTK1062:3KMS4QQVK3XXQY76G9S7IMMIMU2KF7", "current_trial": 32, "dateTime": 1513023612956, "trialdata": {"rt": -1000, "stimulus": "/static/audio/wordpool/SALT.wav", "key_press": -1, "type": "PRES_AUD", "word": "salt", "wordID": 1228, "conditions": [18, 1200, "a", 18000], "trial": 0, "serialpos": 11, "trial_type": "single-audio", "trial_index": 32, "time_elapsed": 120153, "internal_node_id": "0.0-23.0"}}, {"uniqueid": "MTK1062:3KMS4QQVK3XXQY76G9S7IMMIMU2KF7", "current_trial": 33, "dateTime": 1513023615050, "trialdata": {"rt": -1000, "stimulus": "/static/audio/wordpool/PRINCESS.wav", "key_press": -1, "type": "PRES_AUD", "word": "princess", "wordID": 1124, "conditions": [18, 1200, "a", 18000], "trial": 0, "serialpos": 12, "trial_type": "single-audio", "trial_index": 33, "time_elapsed": 122247, "internal_node_id": "0.0-24.0"}}, {"uniqueid": "MTK1062:3KMS4QQVK3XXQY76G9S7IMMIMU2KF7", "current_trial": 34, "dateTime": 1513023617128, "trialdata": {"rt": -1000, "stimulus": "/static/audio/wordpool/PORK.wav", "key_press": -1, "type": "PRES_AUD", "word": "pork", "wordID": 1107, "conditions": [18, 1200, "a", 18000], "trial": 0, "serialpos": 13, "trial_type": "single-audio", "trial_index": 34, "time_elapsed": 124325, "internal_node_id": "0.0-25.0"}}, {"uniqueid": "MTK1062:3KMS4QQVK3XXQY76G9S7IMMIMU2KF7", "current_trial": 35, "dateTime": 1513023619175, "trialdata": {"rt": -1000, "stimulus": "/static/audio/wordpool/PERFUME.wav", "key_press": -1, "type": "PRES_AUD", "word": "perfume", "wordID": 1048, "conditions": [18, 1200, "a", 18000], "trial": 0, "serialpos": 14, "trial_type": "single-audio", "trial_index": 35, "time_elapsed": 126372, "internal_node_id": "0.0-26.0"}}, {"uniqueid": "MTK1062:3KMS4QQVK3XXQY76G9S7IMMIMU2KF7", "current_trial": 36, "dateTime": 1513023621550, "trialdata": {"rt": -1000, "stimulus": "/static/audio/wordpool/SWITCH.wav", "key_press": -1, "type": "PRES_AUD", "word": "switch", "wordID": 1421, "conditions": [18, 1200, "a", 18000], "trial": 0, "serialpos": 15, "trial_type": "single-audio", "trial_index": 36, "time_elapsed": 128747, "internal_node_id": "0.0-27.0"}}, {"uniqueid": "MTK1062:3KMS4QQVK3XXQY76G9S7IMMIMU2KF7", "current_trial": 37, "dateTime": 1513023623661, "trialdata": {"rt": -1000, "stimulus": "/static/audio/wordpool/CHIPMUNK.wav", "key_press": -1, "type": "PRES_AUD", "word": "chipmunk", "wordID": 303, "conditions": [18, 1200, "a", 18000], "trial": 0, "serialpos": 16, "trial_type": "single-audio", "trial_index": 37, "time_elapsed": 130858, "internal_node_id": "0.0-28.0"}}, {"uniqueid": "MTK1062:3KMS4QQVK3XXQY76G9S7IMMIMU2KF7", "current_trial": 38, "dateTime": 1513023625939, "trialdata": {"rt": -1000, "stimulus": "/static/audio/wordpool/JAPAN.wav", "key_press": -1, "type": "PRES_AUD", "word": "japan", "wordID": 748, "conditions": [18, 1200, "a", 18000], "trial": 0, "serialpos": 17, "trial_type": "single-audio", "trial_index": 38, "time_elapsed": 133136, "internal_node_id": "0.0-29.0"}}, {"uniqueid": "MTK1062:3KMS4QQVK3XXQY76G9S7IMMIMU2KF7", "current_trial": 39, "dateTime": 1513023627185, "trialdata": {"rt": -1, "stimulus": "", "key_press": -1, "type": "PRE_RECALL_DELAY", "trial_type": "single-stim", "trial_index": 39, "time_elapsed": 134382, "internal_node_id": "0.0-30.0-0.0"}}, {"uniqueid": "MTK1062:3KMS4QQVK3XXQY76G9S7IMMIMU2KF7", "current_trial": 40, "dateTime": 1513023627688, "trialdata": {"rt": -1000, "stimulus": "/static/audio/400Hz.wav", "key_press": -1, "type": "PRE_RECALL_ALERT", "trial_type": "single-audio", "trial_index": 40, "time_elapsed": 134885, "internal_node_id": "0.0-31.0"}}, {"uniqueid": "MTK1062:3KMS4QQVK3XXQY76G9S7IMMIMU2KF7", "current_trial": 41, "dateTime": 1513023687691, "trialdata": {"rt": [8854, 11188, 14293], "recwords": ["chipmunk", "japan", "termite"], "type": "FREE_RECALL", "conditions": [18, 1200, "a", 18000], "trial": 0, "trial_type": "free-recall", "trial_index": 41, "time_elapsed": 194887, "internal_node_id": "0.0-32.0-0.0"}}, {"uniqueid": "MTK1062:3KMS4QQVK3XXQY76G9S7IMMIMU2KF7", "current_trial": 42, "dateTime": 1513023727669, "trialdata": {"rt": 37975, "key_press": 32, "type": "INSTRUCTIONS", "trial_type": "text", "trial_index": 42, "time_elapsed": 234865, "internal_node_id": "0.0-33.0"}}, {"uniqueid": "MTK1062:3KMS4QQVK3XXQY76G9S7IMMIMU2KF7", "current_trial": 43, "dateTime": 1513023747671, "trialdata": {"rt": [4109, 5850, 7245, 8462, 10684, 12374, 14916, 16117, 17513], "responses": ["22", "14", "16", "4", "21", "16", "19", "11", "7"], "num1": [6, 5, 8, 2, 8, 6, 8, 9, 1, 7], "num2": [8, 6, 2, 2, 3, 8, 4, 1, 1, 8], "num3": [7, 3, 6, 2, 9, 2, 7, 1, 5, 3], "type": "DISTRACTOR", "conditions": [18, 1200, "v", 18000], "trial": 1, "trial_type": "math-distractor", "trial_index": 43, "time_elapsed": 254868, "internal_node_id": "0.0-34.0"}}, {"uniqueid": "MTK1062:3KMS4QQVK3XXQY76G9S7IMMIMU2KF7", "current_trial": 44, "dateTime": 1513023750673, "trialdata": {"rt": -1, "stimulus": "<p id=\"stim\">10</p>", "key_press": -1, "trial_type": "single-stim", "trial_index": 44, "time_elapsed": 257870, "internal_node_id": "0.0-35.0-0.0"}}, {"uniqueid": "MTK1062:3KMS4QQVK3XXQY76G9S7IMMIMU2KF7", "current_trial": 45, "dateTime": 1513023751673, "trialdata": {"rt": -1, "stimulus": "<p id=\"stim\">9</p>", "key_press": -1, "trial_type": "single-stim", "trial_index": 45, "time_elapsed": 258870, "internal_node_id": "0.0-35.0-1.0"}}, {"uniqueid": "MTK1062:3KMS4QQVK3XXQY76G9S7IMMIMU2KF7", "current_trial": 46, "dateTime": 1513023752674, "trialdata": {"rt": -1, "stimulus": "<p id=\"stim\">8</p>", "key_press": -1, "trial_type": "single-stim", "trial_index": 46, "time_elapsed": 259871, "internal_node_id": "0.0-35.0-2.0"}}, {"uniqueid": "MTK1062:3KMS4QQVK3XXQY76G9S7IMMIMU2KF7", "current_trial": 47, "dateTime": 1513023753675, "trialdata": {"rt": -1, "stimulus": "<p id=\"stim\">7</p>", "key_press": -1, "trial_type": "single-stim", "trial_index": 47, "time_elapsed": 260872, "internal_node_id": "0.0-35.0-3.0"}}, {"uniqueid": "MTK1062:3KMS4QQVK3XXQY76G9S7IMMIMU2KF7", "current_trial": 48, "dateTime": 1513023754675, "trialdata": {"rt": -1, "stimulus": "<p id=\"stim\">6</p>", "key_press": -1, "trial_type": "single-stim", "trial_index": 48, "time_elapsed": 261872, "internal_node_id": "0.0-35.0-4.0"}}, {"uniqueid": "MTK1062:3KMS4QQVK3XXQY76G9S7IMMIMU2KF7", "current_trial": 49, "dateTime": 1513023755676, "trialdata": {"rt": -1, "stimulus": "<p id=\"stim\">5</p>", "key_press": -1, "trial_type": "single-stim", "trial_index": 49, "time_elapsed": 262873, "internal_node_id": "0.0-35.0-5.0"}}, {"uniqueid": "MTK1062:3KMS4QQVK3XXQY76G9S7IMMIMU2KF7", "current_trial": 50, "dateTime": 1513023756677, "trialdata": {"rt": -1, "stimulus": "<p id=\"stim\">4</p>", "key_press": -1, "trial_type": "single-stim", "trial_index": 50, "time_elapsed": 263874, "internal_node_id": "0.0-35.0-6.0"}}, {"uniqueid": "MTK1062:3KMS4QQVK3XXQY76G9S7IMMIMU2KF7", "current_trial": 51, "dateTime": 1513023757677, "trialdata": {"rt": -1, "stimulus": "<p id=\"stim\">3</p>", "key_press": -1, "trial_type": "single-stim", "trial_index": 51, "time_elapsed": 264874, "internal_node_id": "0.0-35.0-7.0"}}, {"uniqueid": "MTK1062:3KMS4QQVK3XXQY76G9S7IMMIMU2KF7", "current_trial": 52, "dateTime": 1513023758679, "trialdata": {"rt": -1, "stimulus": "<p id=\"stim\">2</p>", "key_press": -1, "trial_type": "single-stim", "trial_index": 52, "time_elapsed": 265876, "internal_node_id": "0.0-35.0-8.0"}}, {"uniqueid": "MTK1062:3KMS4QQVK3XXQY76G9S7IMMIMU2KF7", "current_trial": 53, "dateTime": 1513023759680, "trialdata": {"rt": -1, "stimulus": "<p id=\"stim\">1</p>", "key_press": -1, "trial_type": "single-stim", "trial_index": 53, "time_elapsed": 266877, "internal_node_id": "0.0-35.0-9.0"}}, {"uniqueid": "MTK1062:3KMS4QQVK3XXQY76G9S7IMMIMU2KF7", "current_trial": 54, "dateTime": 1513023761182, "trialdata": {"rt": -1, "stimulus": "<p id=\"stim\">+</p>", "key_press": -1, "type": "FIXATION", "trial_type": "single-stim", "trial_index": 54, "time_elapsed": 268379, "internal_node_id": "0.0-36.0-0.0"}}, {"uniqueid": "MTK1062:3KMS4QQVK3XXQY76G9S7IMMIMU2KF7", "current_trial": 55, "dateTime": 1513023762383, "trialdata": {"rt": -1, "stimulus": "<p id=\"stim\">FRAME</p>", "key_press": -1, "type": "PRES_VIS", "word": "frame", "wordID": 599, "conditions": [18, 1200, "v", 18000], "trial": 1, "serialpos": 0, "trial_type": "single-stim", "trial_index": 55, "time_elapsed": 269580, "internal_node_id": "0.0-37.0"}}, {"uniqueid": "MTK1062:3KMS4QQVK3XXQY76G9S7IMMIMU2KF7", "current_trial": 56, "dateTime": 1513023764568, "trialdata": {"rt": -1, "stimulus": "<p id=\"stim\">HAWK</p>", "key_press": -1, "type": "PRES_VIS", "word": "hawk", "wordID": 691, "conditions": [18, 1200, "v", 18000], "trial": 1, "serialpos": 1, "trial_type": "single-stim", "trial_index": 56, "time_elapsed": 271765, "internal_node_id": "0.0-38.0"}}, {"uniqueid": "MTK1062:3KMS4QQVK3XXQY76G9S7IMMIMU2KF7", "current_trial": 57, "dateTime": 1513023766748, "trialdata": {"rt": -1, "stimulus": "<p id=\"stim\">BUNNY</p>", "key_press": -1, "type": "PRES_VIS", "word": "bunny", "wordID": 197, "conditions": [18, 1200, "v", 18000], "trial": 1, "serialpos": 2, "trial_type": "single-stim", "trial_index": 57, "time_elapsed": 273945, "internal_node_id": "0.0-39.0"}}, {"uniqueid": "MTK1062:3KMS4QQVK3XXQY76G9S7IMMIMU2KF7", "current_trial": 58, "dateTime": 1513023769071, "trialdata": {"rt": -1, "stimulus": "<p id=\"stim\">FINGER</p>", "key_press": -1, "type": "PRES_VIS", "word": "finger", "wordID": 566, "conditions": [18, 1200, "v", 18000], "trial": 1, "serialpos": 3, "trial_type": "single-stim", "trial_index": 58, "time_elapsed": 276268, "internal_node_id": "0.0-40.0"}}, {"uniqueid": "MTK1062:3KMS4QQVK3XXQY76G9S7IMMIMU2KF7", "current_trial": 59, "dateTime": 1513023771142, "trialdata": {"rt": -1, "stimulus": "<p id=\"stim\">JUGGLER</p>", "key_press": -1, "type": "PRES_VIS", "word": "juggler", "wordID": 762, "conditions": [18, 1200, "v", 18000], "trial": 1, "serialpos": 4, "trial_type": "single-stim", "trial_index": 59, "time_elapsed": 278339, "internal_node_id": "0.0-41.0"}}, {"uniqueid": "MTK1062:3KMS4QQVK3XXQY76G9S7IMMIMU2KF7", "current_trial": 60, "dateTime": 1513023773430, "trialdata": {"rt": -1, "stimulus": "<p id=\"stim\">RELISH</p>", "key_press": -1, "type": "PRES_VIS", "word": "relish", "wordID": 1182, "conditions": [18, 1200, "v", 18000], "trial": 1, "serialpos": 5, "trial_type": "single-stim", "trial_index": 60, "time_elapsed": 280627, "internal_node_id": "0.0-42.0"}}, {"uniqueid": "MTK1062:3KMS4QQVK3XXQY76G9S7IMMIMU2KF7", "current_trial": 61, "dateTime": 1513023775744, "trialdata": {"rt": -1, "stimulus": "<p id=\"stim\">ULCER</p>", "key_press": -1, "type": "PRES_VIS", "word": "ulcer", "wordID": 1532, "conditions": [18, 1200, "v", 18000], "trial": 1, "serialpos": 6, "trial_type": "single-stim", "trial_index": 61, "time_elapsed": 282941, "internal_node_id": "0.0-43.0"}}, {"uniqueid": "MTK1062:3KMS4QQVK3XXQY76G9S7IMMIMU2KF7", "current_trial": 62, "dateTime": 1513023778119, "trialdata": {"rt": -1, "stimulus": "<p id=\"stim\">CITRUS</p>", "key_press": -1, "type": "PRES_VIS", "word": "citrus", "wordID": 312, "conditions": [18, 1200, "v", 18000], "trial": 1, "serialpos": 7, "trial_type": "single-stim", "trial_index": 62, "time_elapsed": 285316, "internal_node_id": "0.0-44.0"}}, {"uniqueid": "MTK1062:3KMS4QQVK3XXQY76G9S7IMMIMU2KF7", "current_trial": 63, "dateTime": 1513023780382, "trialdata": {"rt": -1, "stimulus": "<p id=\"stim\">HOSTESS</p>", "key_press": -1, "type": "PRES_VIS", "word": "hostess", "wordID": 722, "conditions": [18, 1200, "v", 18000], "trial": 1, "serialpos": 8, "trial_type": "single-stim", "trial_index": 63, "time_elapsed": 287579, "internal_node_id": "0.0-45.0"}}, {"uniqueid": "MTK1062:3KMS4QQVK3XXQY76G9S7IMMIMU2KF7", "current_trial": 64, "dateTime": 1513023782394, "trialdata": {"rt": -1, "stimulus": "<p id=\"stim\">FRANCE</p>", "key_press": -1, "type": "PRES_VIS", "word": "france", "wordID": 600, "conditions": [18, 1200, "v", 18000], "trial": 1, "serialpos": 9, "trial_type": "single-stim", "trial_index": 64, "time_elapsed": 289591, "internal_node_id": "0.0-46.0"}}, {"uniqueid": "MTK1062:3KMS4QQVK3XXQY76G9S7IMMIMU2KF7", "current_trial": 65, "dateTime": 1513023784794, "trialdata": {"rt": -1, "stimulus": "<p id=\"stim\">PLAID</p>", "key_press": -1, "type": "PRES_VIS", "word": "plaid", "wordID": 1079, "conditions": [18, 1200, "v", 18000], "trial": 1, "serialpos": 10, "trial_type": "single-stim", "trial_index": 65, "time_elapsed": 291991, "internal_node_id": "0.0-47.0"}}, {"uniqueid": "MTK1062:3KMS4QQVK3XXQY76G9S7IMMIMU2KF7", "current_trial": 66, "dateTime": 1513023787109, "trialdata": {"rt": -1, "stimulus": "<p id=\"stim\">GAZELLE</p>", "key_press": -1, "type": "PRES_VIS", "word": "gazelle", "wordID": 627, "conditions": [18, 1200, "v", 18000], "trial": 1, "serialpos": 11, "trial_type": "single-stim", "trial_index": 66, "time_elapsed": 294306, "internal_node_id": "0.0-48.0"}}, {"uniqueid": "MTK1062:3KMS4QQVK3XXQY76G9S7IMMIMU2KF7", "current_trial": 67, "dateTime": 1513023789242, "trialdata": {"rt": -1, "stimulus": "<p id=\"stim\">PICTURE</p>", "key_press": -1, "type": "PRES_VIS", "word": "picture", "wordID": 1060, "conditions": [18, 1200, "v", 18000], "trial": 1, "serialpos": 12, "trial_type": "single-stim", "trial_index": 67, "time_elapsed": 296439, "internal_node_id": "0.0-49.0"}}, {"uniqueid": "MTK1062:3KMS4QQVK3XXQY76G9S7IMMIMU2KF7", "current_trial": 68, "dateTime": 1513023791384, "trialdata": {"rt": -1, "stimulus": "<p id=\"stim\">JUDGE</p>", "key_press": -1, "type": "PRES_VIS", "word": "judge", "wordID": 760, "conditions": [18, 1200, "v", 18000], "trial": 1, "serialpos": 13, "trial_type": "single-stim", "trial_index": 68, "time_elapsed": 298580, "internal_node_id": "0.0-50.0"}}, {"uniqueid": "MTK1062:3KMS4QQVK3XXQY76G9S7IMMIMU2KF7", "current_trial": 69, "dateTime": 1513023793697, "trialdata": {"rt": -1, "stimulus": "<p id=\"stim\">TORTOISE</p>", "key_press": -1, "type": "PRES_VIS", "word": "tortoise", "wordID": 1485, "conditions": [18, 1200, "v", 18000], "trial": 1, "serialpos": 14, "trial_type": "single-stim", "trial_index": 69, "time_elapsed": 300894, "internal_node_id": "0.0-51.0"}}, {"uniqueid": "MTK1062:3KMS4QQVK3XXQY76G9S7IMMIMU2KF7", "current_trial": 70, "dateTime": 1513023795990, "trialdata": {"rt": -1, "stimulus": "<p id=\"stim\">EYELASH</p>", "key_press": -1, "type": "PRES_VIS", "word": "eyelash", "wordID": 545, "conditions": [18, 1200, "v", 18000], "trial": 1, "serialpos": 15, "trial_type": "single-stim", "trial_index": 70, "time_elapsed": 303187, "internal_node_id": "0.0-52.0"}}, {"uniqueid": "MTK1062:3KMS4QQVK3XXQY76G9S7IMMIMU2KF7", "current_trial": 71, "dateTime": 1513023798244, "trialdata": {"rt": -1, "stimulus": "<p id=\"stim\">OZONE</p>", "key_press": -1, "type": "PRES_VIS", "word": "ozone", "wordID": 995, "conditions": [18, 1200, "v", 18000], "trial": 1, "serialpos": 16, "trial_type": "single-stim", "trial_index": 71, "time_elapsed": 305441, "internal_node_id": "0.0-53.0"}}, {"uniqueid": "MTK1062:3KMS4QQVK3XXQY76G9S7IMMIMU2KF7", "current_trial": 72, "dateTime": 1513023800411, "trialdata": {"rt": -1, "stimulus": "<p id=\"stim\">NOVEL</p>", "key_press": -1, "type": "PRES_VIS", "word": "novel", "wordID": 959, "conditions": [18, 1200, "v", 18000], "trial": 1, "serialpos": 17, "trial_type": "single-stim", "trial_index": 72, "time_elapsed": 307608, "internal_node_id": "0.0-54.0"}}, {"uniqueid": "MTK1062:3KMS4QQVK3XXQY76G9S7IMMIMU2KF7", "current_trial": 73, "dateTime": 1513023802557, "trialdata": {"rt": -1, "stimulus": "", "key_press": -1, "type": "PRE_RECALL_DELAY", "trial_type": "single-stim", "trial_index": 73, "time_elapsed": 309754, "internal_node_id": "0.0-55.0-0.0"}}, {"uniqueid": "MTK1062:3KMS4QQVK3XXQY76G9S7IMMIMU2KF7", "current_trial": 74, "dateTime": 1513023803059, "trialdata": {"rt": -1000, "stimulus": "/static/audio/400Hz.wav", "key_press": -1, "type": "PRE_RECALL_ALERT", "trial_type": "single-audio", "trial_index": 74, "time_elapsed": 310256, "internal_node_id": "0.0-56.0"}}, {"uniqueid": "MTK1062:3KMS4QQVK3XXQY76G9S7IMMIMU2KF7", "current_trial": 75, "dateTime": 1513023863062, "trialdata": {"rt": [3246, 5639, 7054, 8307], "recwords": ["frame", "hawk", "bunny", "france"], "type": "FREE_RECALL", "conditions": [18, 1200, "v", 18000], "trial": 1, "trial_type": "free-recall", "trial_index": 75, "time_elapsed": 370258, "internal_node_id": "0.0-57.0-0.0"}}, {"uniqueid": "MTK1062:3KMS4QQVK3XXQY76G9S7IMMIMU2KF7", "current_trial": 76, "dateTime": 1513023895222, "trialdata": {"rt": 30154, "key_press": 70, "type": "INSTRUCTIONS", "trial_type": "text", "trial_index": 76, "time_elapsed": 402415, "internal_node_id": "0.0-58.0"}}, {"uniqueid": "MTK1062:3KMS4QQVK3XXQY76G9S7IMMIMU2KF7", "current_trial": 77, "dateTime": 1513023920225, "trialdata": {"rt": [2113, 3932, 5312, 7222, 9271, 10754, 12245, 13660, 15267, 18000, 20371, 22432], "responses": ["14", "9", "14", "13", "25", "14", "13", "10", "12", "20", "18", "19"], "num1": [4, 2, 6, 6, 9, 6, 8, 2, 5, 8, 9, 4, 3], "num2": [4, 4, 5, 6, 9, 4, 3, 4, 4, 8, 3, 8, 1], "num3": [6, 3, 3, 1, 7, 4, 2, 4, 3, 4, 6, 7, 8], "type": "DISTRACTOR", "conditions": [24, 800, "v", 24000], "trial": 2, "trial_type": "math-distractor", "trial_index": 77, "time_elapsed": 427422, "internal_node_id": "0.0-59.0"}}, {"uniqueid": "MTK1062:3KMS4QQVK3XXQY76G9S7IMMIMU2KF7", "current_trial": 78, "dateTime": 1513023923227, "trialdata": {"rt": -1, "stimulus": "<p id=\"stim\">10</p>", "key_press": -1, "trial_type": "single-stim", "trial_index": 78, "time_elapsed": 430424, "internal_node_id": "0.0-60.0-0.0"}}, {"uniqueid": "MTK1062:3KMS4QQVK3XXQY76G9S7IMMIMU2KF7", "current_trial": 79, "dateTime": 1513023924228, "trialdata": {"rt": -1, "stimulus": "<p id=\"stim\">9</p>", "key_press": -1, "trial_type": "single-stim", "trial_index": 79, "time_elapsed": 431425, "internal_node_id": "0.0-60.0-1.0"}}, {"uniqueid": "MTK1062:3KMS4QQVK3XXQY76G9S7IMMIMU2KF7", "current_trial": 80, "dateTime": 1513023925228, "trialdata": {"rt": -1, "stimulus": "<p id=\"stim\">8</p>", "key_press": -1, "trial_type": "single-stim", "trial_index": 80, "time_elapsed": 432425, "internal_node_id": "0.0-60.0-2.0"}}, {"uniqueid": "MTK1062:3KMS4QQVK3XXQY76G9S7IMMIMU2KF7", "current_trial": 81, "dateTime": 1513023926232, "trialdata": {"rt": -1, "stimulus": "<p id=\"stim\">7</p>", "key_press": -1, "trial_type": "single-stim", "trial_index": 81, "time_elapsed": 433429, "internal_node_id": "0.0-60.0-3.0"}}, {"uniqueid": "MTK1062:3KMS4QQVK3XXQY76G9S7IMMIMU2KF7", "current_trial": 82, "dateTime": 1513023927234, "trialdata": {"rt": -1, "stimulus": "<p id=\"stim\">6</p>", "key_press": -1, "trial_type": "single-stim", "trial_index": 82, "time_elapsed": 434431, "internal_node_id": "0.0-60.0-4.0"}}, {"uniqueid": "MTK1062:3KMS4QQVK3XXQY76G9S7IMMIMU2KF7", "current_trial": 83, "dateTime": 1513023928235, "trialdata": {"rt": -1, "stimulus": "<p id=\"stim\">5</p>", "key_press": -1, "trial_type": "single-stim", "trial_index": 83, "time_elapsed": 435432, "internal_node_id": "0.0-60.0-5.0"}}, {"uniqueid": "MTK1062:3KMS4QQVK3XXQY76G9S7IMMIMU2KF7", "current_trial": 84, "dateTime": 1513023929236, "trialdata": {"rt": -1, "stimulus": "<p id=\"stim\">4</p>", "key_press": -1, "trial_type": "single-stim", "trial_index": 84, "time_elapsed": 436433, "internal_node_id": "0.0-60.0-6.0"}}, {"uniqueid": "MTK1062:3KMS4QQVK3XXQY76G9S7IMMIMU2KF7", "current_trial": 85, "dateTime": 1513023930237, "trialdata": {"rt": -1, "stimulus": "<p id=\"stim\">3</p>", "key_press": -1, "trial_type": "single-stim", "trial_index": 85, "time_elapsed": 437434, "internal_node_id": "0.0-60.0-7.0"}}, {"uniqueid": "MTK1062:3KMS4QQVK3XXQY76G9S7IMMIMU2KF7", "current_trial": 86, "dateTime": 1513023931238, "trialdata": {"rt": -1, "stimulus": "<p id=\"stim\">2</p>", "key_press": -1, "trial_type": "single-stim", "trial_index": 86, "time_elapsed": 438435, "internal_node_id": "0.0-60.0-8.0"}}, {"uniqueid": "MTK1062:3KMS4QQVK3XXQY76G9S7IMMIMU2KF7", "current_trial": 87, "dateTime": 1513023932239, "trialdata": {"rt": -1, "stimulus": "<p id=\"stim\">1</p>", "key_press": -1, "trial_type": "single-stim", "trial_index": 87, "time_elapsed": 439436, "internal_node_id": "0.0-60.0-9.0"}}, {"uniqueid": "MTK1062:3KMS4QQVK3XXQY76G9S7IMMIMU2KF7", "current_trial": 88, "dateTime": 1513023933740, "trialdata": {"rt": -1, "stimulus": "<p id=\"stim\">+</p>", "key_press": -1, "type": "FIXATION", "trial_type": "single-stim", "trial_index": 88, "time_elapsed": 440937, "internal_node_id": "0.0-61.0-0.0"}}, {"uniqueid": "MTK1062:3KMS4QQVK3XXQY76G9S7IMMIMU2KF7", "current_trial": 89, "dateTime": 1513023934541, "trialdata": {"rt": -1, "stimulus": "<p id=\"stim\">HEADBAND</p>", "key_press": -1, "type": "PRES_VIS", "word": "headband", "wordID": 695, "conditions": [24, 800, "v", 24000], "trial": 2, "serialpos": 0, "trial_type": "single-stim", "trial_index": 89, "time_elapsed": 441738, "internal_node_id": "0.0-62.0"}}, {"uniqueid": "MTK1062:3KMS4QQVK3XXQY76G9S7IMMIMU2KF7", "current_trial": 90, "dateTime": 1513023936416, "trialdata": {"rt": -1, "stimulus": "<p id=\"stim\">SHIRT</p>", "key_press": -1, "type": "PRES_VIS", "word": "shirt", "wordID": 1286, "conditions": [24, 800, "v", 24000], "trial": 2, "serialpos": 1, "trial_type": "single-stim", "trial_index": 90, "time_elapsed": 443613, "internal_node_id": "0.0-63.0"}}, {"uniqueid": "MTK1062:3KMS4QQVK3XXQY76G9S7IMMIMU2KF7", "current_trial": 91, "dateTime": 1513023938042, "trialdata": {"rt": -1, "stimulus": "<p id=\"stim\">TURNIP</p>", "key_press": -1, "type": "PRES_VIS", "word": "turnip", "wordID": 1520, "conditions": [24, 800, "v", 24000], "trial": 2, "serialpos": 2, "trial_type": "single-stim", "trial_index": 91, "time_elapsed": 445239, "internal_node_id": "0.0-64.0"}}, {"uniqueid": "MTK1062:3KMS4QQVK3XXQY76G9S7IMMIMU2KF7", "current_trial": 92, "dateTime": 1513023939689, "trialdata": {"rt": -1, "stimulus": "<p id=\"stim\">DASHBOARD</p>", "key_press": -1, "type": "PRES_VIS", "word": "dashboard", "wordID": 440, "conditions": [24, 800, "v", 24000], "trial": 2, "serialpos": 3, "trial_type": "single-stim", "trial_index": 92, "time_elapsed": 446886, "internal_node_id": "0.0-65.0"}}, {"uniqueid": "MTK1062:3KMS4QQVK3XXQY76G9S7IMMIMU2KF7", "current_trial": 93, "dateTime": 1513023941673, "trialdata": {"rt": -1, "stimulus": "<p id=\"stim\">STICKER</p>", "key_press": -1, "type": "PRES_VIS", "word": "sticker", "wordID": 1381, "conditions": [24, 800, "v", 24000], "trial": 2, "serialpos": 4, "trial_type": "single-stim", "trial_index": 93, "time_elapsed": 448870, "internal_node_id": "0.0-66.0"}}, {"uniqueid": "MTK1062:3KMS4QQVK3XXQY76G9S7IMMIMU2KF7", "current_trial": 94, "dateTime": 1513023943421, "trialdata": {"rt": -1, "stimulus": "<p id=\"stim\">CHAPEL</p>", "key_press": -1, "type": "PRES_VIS", "word": "chapel", "wordID": 279, "conditions": [24, 800, "v", 24000], "trial": 2, "serialpos": 5, "trial_type": "single-stim", "trial_index": 94, "time_elapsed": 450618, "internal_node_id": "0.0-67.0"}}, {"uniqueid": "MTK1062:3KMS4QQVK3XXQY76G9S7IMMIMU2KF7", "current_trial": 95, "dateTime": 1513023945157, "trialdata": {"rt": -1, "stimulus": "<p id=\"stim\">FOREST</p>", "key_press": -1, "type": "PRES_VIS", "word": "forest", "wordID": 592, "conditions": [24, 800, "v", 24000], "trial": 2, "serialpos": 6, "trial_type": "single-stim", "trial_index": 95, "time_elapsed": 452354, "internal_node_id": "0.0-68.0"}}, {"uniqueid": "MTK1062:3KMS4QQVK3XXQY76G9S7IMMIMU2KF7", "current_trial": 96, "dateTime": 1513023947095, "trialdata": {"rt": -1, "stimulus": "<p id=\"stim\">RUST</p>", "key_press": -1, "type": "PRES_VIS", "word": "rust", "wordID": 1218, "conditions": [24, 800, "v", 24000], "trial": 2, "serialpos": 7, "trial_type": "single-stim", "trial_index": 96, "time_elapsed": 454292, "internal_node_id": "0.0-69.0"}}, {"uniqueid": "MTK1062:3KMS4QQVK3XXQY76G9S7IMMIMU2KF7", "current_trial": 97, "dateTime": 1513023949055, "trialdata": {"rt": -1, "stimulus": "<p id=\"stim\">CANYON</p>", "key_press": -1, "type": "PRES_VIS", "word": "canyon", "wordID": 234, "conditions": [24, 800, "v", 24000], "trial": 2, "serialpos": 8, "trial_type": "single-stim", "trial_index": 97, "time_elapsed": 456252, "internal_node_id": "0.0-70.0"}}, {"uniqueid": "MTK1062:3KMS4QQVK3XXQY76G9S7IMMIMU2KF7", "current_trial": 98, "dateTime": 1513023950882, "trialdata": {"rt": -1, "stimulus": "<p id=\"stim\">ICEBERG</p>", "key_press": -1, "type": "PRES_VIS", "word": "iceberg", "wordID": 730, "conditions": [24, 800, "v", 24000], "trial": 2, "serialpos": 9, "trial_type": "single-stim", "trial_index": 98, "time_elapsed": 458079, "internal_node_id": "0.0-71.0"}}, {"uniqueid": "MTK1062:3KMS4QQVK3XXQY76G9S7IMMIMU2KF7", "current_trial": 99, "dateTime": 1513023952486, "trialdata": {"rt": -1, "stimulus": "<p id=\"stim\">BROOK</p>", "key_press": -1, "type": "PRES_VIS", "word": "brook", "wordID": 176, "conditions": [24, 800, "v", 24000], "trial": 2, "serialpos": 10, "trial_type": "single-stim", "trial_index": 99, "time_elapsed": 459683, "internal_node_id": "0.0-72.0"}}, {"uniqueid": "MTK1062:3KMS4QQVK3XXQY76G9S7IMMIMU2KF7", "current_trial": 100, "dateTime": 1513023954217, "trialdata": {"rt": -1, "stimulus": "<p id=\"stim\">CHURCH</p>", "key_press": -1, "type": "PRES_VIS", "word": "church", "wordID": 306, "conditions": [24, 800, "v", 24000], "trial": 2, "serialpos": 11, "trial_type": "single-stim", "trial_index": 100, "time_elapsed": 461414, "internal_node_id": "0.0-73.0"}}, {"uniqueid": "MTK1062:3KMS4QQVK3XXQY76G9S7IMMIMU2KF7", "current_trial": 101, "dateTime": 1513023955955, "trialdata": {"rt": -1, "stimulus": "<p id=\"stim\">KLEENEX</p>", "key_press": -1, "type": "PRES_VIS", "word": "kleenex", "wordID": 781, "conditions": [24, 800, "v", 24000], "trial": 2, "serialpos": 12, "trial_type": "single-stim", "trial_index": 101, "time_elapsed": 463152, "internal_node_id": "0.0-74.0"}}, {"uniqueid": "MTK1062:3KMS4QQVK3XXQY76G9S7IMMIMU2KF7", "current_trial": 102, "dateTime": 1513023957813, "trialdata": {"rt": -1, "stimulus": "<p id=\"stim\">STREAM</p>", "key_press": -1, "type": "PRES_VIS", "word": "stream", "wordID": 1391, "conditions": [24, 800, "v", 24000], "trial": 2, "serialpos": 13, "trial_type": "single-stim", "trial_index": 102, "time_elapsed": 465010, "internal_node_id": "0.0-75.0"}}, {"uniqueid": "MTK1062:3KMS4QQVK3XXQY76G9S7IMMIMU2KF7", "current_trial": 103, "dateTime": 1513023959561, "trialdata": {"rt": -1, "stimulus": "<p id=\"stim\">BADGE</p>", "key_press": -1, "type": "PRES_VIS", "word": "badge", "wordID": 67, "conditions": [24, 800, "v", 24000], "trial": 2, "serialpos": 14, "trial_type": "single-stim", "trial_index": 103, "time_elapsed": 466758, "internal_node_id": "0.0-76.0"}}, {"uniqueid": "MTK1062:3KMS4QQVK3XXQY76G9S7IMMIMU2KF7", "current_trial": 104, "dateTime": 1513023961194, "trialdata": {"rt": -1, "stimulus": "<p id=\"stim\">ZIPPER</p>", "key_press": -1, "type": "PRES_VIS", "word": "zipper", "wordID": 1635, "conditions": [24, 800, "v", 24000], "trial": 2, "serialpos": 15, "trial_type": "single-stim", "trial_index": 104, "time_elapsed": 468391, "internal_node_id": "0.0-77.0"}}, {"uniqueid": "MTK1062:3KMS4QQVK3XXQY76G9S7IMMIMU2KF7", "current_trial": 105, "dateTime": 1513023962967, "trialdata": {"rt": -1, "stimulus": "<p id=\"stim\">SLUG</p>", "key_press": -1, "type": "PRES_VIS", "word": "slug", "wordID": 1328, "conditions": [24, 800, "v", 24000], "trial": 2, "serialpos": 16, "trial_type": "single-stim", "trial_index": 105, "time_elapsed": 470164, "internal_node_id": "0.0-78.0"}}, {"uniqueid": "MTK1062:3KMS4QQVK3XXQY76G9S7IMMIMU2KF7", "current_trial": 106, "dateTime": 1513023964704, "trialdata": {"rt": -1, "stimulus": "<p id=\"stim\">TOMBSTONE</p>", "key_press": -1, "type": "PRES_VIS", "word": "tombstone", "wordID": 1477, "conditions": [24, 800, "v", 24000], "trial": 2, "serialpos": 17, "trial_type": "single-stim", "trial_index": 106, "time_elapsed": 471901, "internal_node_id": "0.0-79.0"}}, {"uniqueid": "MTK1062:3KMS4QQVK3XXQY76G9S7IMMIMU2KF7", "current_trial": 107, "dateTime": 1513023966619, "trialdata": {"rt": -1, "stimulus": "<p id=\"stim\">CREVICE</p>", "key_press": -1, "type": "PRES_VIS", "word": "crevice", "wordID": 404, "conditions": [24, 800, "v", 24000], "trial": 2, "serialpos": 18, "trial_type": "single-stim", "trial_index": 107, "time_elapsed": 473816, "internal_node_id": "0.0-80.0"}}, {"uniqueid": "MTK1062:3KMS4QQVK3XXQY76G9S7IMMIMU2KF7", "current_trial": 108, "dateTime": 1513023968511, "trialdata": {"rt": -1, "stimulus": "<p id=\"stim\">INFANT</p>", "key_press": -1, "type": "PRES_VIS", "word": "infant", "wordID": 736, "conditions": [24, 800, "v", 24000], "trial": 2, "serialpos": 19, "trial_type": "single-stim", "trial_index": 108, "time_elapsed": 475708, "internal_node_id": "0.0-81.0"}}, {"uniqueid": "MTK1062:3KMS4QQVK3XXQY76G9S7IMMIMU2KF7", "current_trial": 109, "dateTime": 1513023970160, "trialdata": {"rt": -1, "stimulus": "<p id=\"stim\">CLOTHES</p>", "key_press": -1, "type": "PRES_VIS", "word": "clothes", "wordID": 326, "conditions": [24, 800, "v", 24000], "trial": 2, "serialpos": 20, "trial_type": "single-stim", "trial_index": 109, "time_elapsed": 477357, "internal_node_id": "0.0-82.0"}}, {"uniqueid": "MTK1062:3KMS4QQVK3XXQY76G9S7IMMIMU2KF7", "current_trial": 110, "dateTime": 1513023972150, "trialdata": {"rt": -1, "stimulus": "<p id=\"stim\">WARDROBE</p>", "key_press": -1, "type": "PRES_VIS", "word": "wardrobe", "wordID": 1586, "conditions": [24, 800, "v", 24000], "trial": 2, "serialpos": 21, "trial_type": "single-stim", "trial_index": 110, "time_elapsed": 479347, "internal_node_id": "0.0-83.0"}}, {"uniqueid": "MTK1062:3KMS4QQVK3XXQY76G9S7IMMIMU2KF7", "current_trial": 111, "dateTime": 1513023973958, "trialdata": {"rt": -1, "stimulus": "<p id=\"stim\">POSTAGE</p>", "key_press": -1, "type": "PRES_VIS", "word": "postage", "wordID": 1112, "conditions": [24, 800, "v", 24000], "trial": 2, "serialpos": 22, "trial_type": "single-stim", "trial_index": 111, "time_elapsed": 481155, "internal_node_id": "0.0-84.0"}}, {"uniqueid": "MTK1062:3KMS4QQVK3XXQY76G9S7IMMIMU2KF7", "current_trial": 112, "dateTime": 1513023975728, "trialdata": {"rt": -1, "stimulus": "<p id=\"stim\">CHILD</p>", "key_press": -1, "type": "PRES_VIS", "word": "child", "wordID": 298, "conditions": [24, 800, "v", 24000], "trial": 2, "serialpos": 23, "trial_type": "single-stim", "trial_index": 112, "time_elapsed": 482924, "internal_node_id": "0.0-85.0"}}, {"uniqueid": "MTK1062:3KMS4QQVK3XXQY76G9S7IMMIMU2KF7", "current_trial": 113, "dateTime": 1513023978068, "trialdata": {"rt": -1, "stimulus": "", "key_press": -1, "type": "PRE_RECALL_DELAY", "trial_type": "single-stim", "trial_index": 113, "time_elapsed": 485265, "internal_node_id": "0.0-86.0-0.0"}}, {"uniqueid": "MTK1062:3KMS4QQVK3XXQY76G9S7IMMIMU2KF7", "current_trial": 114, "dateTime": 1513023978569, "trialdata": {"rt": -1000, "stimulus": "/static/audio/400Hz.wav", "key_press": -1, "type": "PRE_RECALL_ALERT", "trial_type": "single-audio", "trial_index": 114, "time_elapsed": 485766, "internal_node_id": "0.0-87.0"}}, {"uniqueid": "MTK1062:3KMS4QQVK3XXQY76G9S7IMMIMU2KF7", "current_trial": 115, "dateTime": 1513024038572, "trialdata": {"rt": [4789, 6657, 8580], "recwords": ["rust", "canyon", "iceberg"], "type": "FREE_RECALL", "conditions": [24, 800, "v", 24000], "trial": 2, "trial_type": "free-recall", "trial_index": 115, "time_elapsed": 545767, "internal_node_id": "0.0-88.0-0.0"}}, {"uniqueid": "MTK1062:3KMS4QQVK3XXQY76G9S7IMMIMU2KF7", "current_trial": 116, "dateTime": 1513024099146, "trialdata": {"rt": 58572, "key_press": 72, "type": "INSTRUCTIONS", "trial_type": "text", "trial_index": 116, "time_elapsed": 606343, "internal_node_id": "0.0-89.0"}}, {"uniqueid": "MTK1062:3KMS4QQVK3XXQY76G9S7IMMIMU2KF7", "current_trial": 117, "dateTime": 1513024125149, "trialdata": {"rt": [2415, 4465, 6458, 7739, 9540, 11488, 12748, 14396, 16021, 19348, 22209, 23962], "responses": ["16", "14", "18", "11", "19", "18", "11", "12", "14", "20", "16", "15"], "num1": [8, 5, 6, 9, 2, 8, 3, 7, 4, 9, 7, 4, 7], "num2": [1, 1, 6, 1, 8, 6, 7, 2, 5, 7, 9, 6, 4], "num3": [7, 8, 6, 1, 9, 6, 1, 3, 5, 4, 2, 5, 9], "type": "DISTRACTOR", "conditions": [12, 800, "a", 24000], "trial": 3, "trial_type": "math-distractor", "trial_index": 117, "time_elapsed": 632346, "internal_node_id": "0.0-90.0"}}, {"uniqueid": "MTK1062:3KMS4QQVK3XXQY76G9S7IMMIMU2KF7", "current_trial": 118, "dateTime": 1513024128151, "trialdata": {"rt": -1, "stimulus": "<p id=\"stim\">10</p>", "key_press": -1, "trial_type": "single-stim", "trial_index": 118, "time_elapsed": 635348, "internal_node_id": "0.0-91.0-0.0"}}, {"uniqueid": "MTK1062:3KMS4QQVK3XXQY76G9S7IMMIMU2KF7", "current_trial": 119, "dateTime": 1513024129153, "trialdata": {"rt": -1, "stimulus": "<p id=\"stim\">9</p>", "key_press": -1, "trial_type": "single-stim", "trial_index": 119, "time_elapsed": 636350, "internal_node_id": "0.0-91.0-1.0"}}, {"uniqueid": "MTK1062:3KMS4QQVK3XXQY76G9S7IMMIMU2KF7", "current_trial": 120, "dateTime": 1513024130154, "trialdata": {"rt": -1, "stimulus": "<p id=\"stim\">8</p>", "key_press": -1, "trial_type": "single-stim", "trial_index": 120, "time_elapsed": 637351, "internal_node_id": "0.0-91.0-2.0"}}, {"uniqueid": "MTK1062:3KMS4QQVK3XXQY76G9S7IMMIMU2KF7", "current_trial": 121, "dateTime": 1513024131207, "trialdata": {"rt": -1, "stimulus": "<p id=\"stim\">7</p>", "key_press": -1, "trial_type": "single-stim", "trial_index": 121, "time_elapsed": 638404, "internal_node_id": "0.0-91.0-3.0"}}, {"uniqueid": "MTK1062:3KMS4QQVK3XXQY76G9S7IMMIMU2KF7", "current_trial": 122, "dateTime": 1513024132212, "trialdata": {"rt": -1, "stimulus": "<p id=\"stim\">6</p>", "key_press": -1, "trial_type": "single-stim", "trial_index": 122, "time_elapsed": 639409, "internal_node_id": "0.0-91.0-4.0"}}, {"uniqueid": "MTK1062:3KMS4QQVK3XXQY76G9S7IMMIMU2KF7", "current_trial": 123, "dateTime": 1513024133216, "trialdata": {"rt": -1, "stimulus": "<p id=\"stim\">5</p>", "key_press": -1, "trial_type": "single-stim", "trial_index": 123, "time_elapsed": 640413, "internal_node_id": "0.0-91.0-5.0"}}, {"uniqueid": "MTK1062:3KMS4QQVK3XXQY76G9S7IMMIMU2KF7", "current_trial": 124, "dateTime": 1513024134218, "trialdata": {"rt": -1, "stimulus": "<p id=\"stim\">4</p>", "key_press": -1, "trial_type": "single-stim", "trial_index": 124, "time_elapsed": 641415, "internal_node_id": "0.0-91.0-6.0"}}, {"uniqueid": "MTK1062:3KMS4QQVK3XXQY76G9S7IMMIMU2KF7", "current_trial": 125, "dateTime": 1513024135220, "trialdata": {"rt": -1, "stimulus": "<p id=\"stim\">3</p>", "key_press": -1, "trial_type": "single-stim", "trial_index": 125, "time_elapsed": 642417, "internal_node_id": "0.0-91.0-7.0"}}, {"uniqueid": "MTK1062:3KMS4QQVK3XXQY76G9S7IMMIMU2KF7", "current_trial": 126, "dateTime": 1513024136220, "trialdata": {"rt": -1, "stimulus": "<p id=\"stim\">2</p>", "key_press": -1, "trial_type": "single-stim", "trial_index": 126, "time_elapsed": 643417, "internal_node_id": "0.0-91.0-8.0"}}, {"uniqueid": "MTK1062:3KMS4QQVK3XXQY76G9S7IMMIMU2KF7", "current_trial": 127, "dateTime": 1513024137222, "trialdata": {"rt": -1, "stimulus": "<p id=\"stim\">1</p>", "key_press": -1, "trial_type": "single-stim", "trial_index": 127, "time_elapsed": 644419, "internal_node_id": "0.0-91.0-9.0"}}, {"uniqueid": "MTK1062:3KMS4QQVK3XXQY76G9S7IMMIMU2KF7", "current_trial": 128, "dateTime": 1513024138723, "trialdata": {"rt": -1, "stimulus": "<p id=\"stim\">+</p>", "key_press": -1, "type": "FIXATION", "trial_type": "single-stim", "trial_index": 128, "time_elapsed": 645920, "internal_node_id": "0.0-92.0-0.0"}}, {"uniqueid": "MTK1062:3KMS4QQVK3XXQY76G9S7IMMIMU2KF7", "current_trial": 129, "dateTime": 1513024140564, "trialdata": {"rt": -1000, "stimulus": "/static/audio/wordpool/EGYPT.wav", "key_press": -1, "type": "PRES_AUD", "word": "egypt", "wordID": 518, "conditions": [12, 800, "a", 24000], "trial": 3, "serialpos": 0, "trial_type": "single-audio", "trial_index": 129, "time_elapsed": 647761, "internal_node_id": "0.0-93.0"}}, {"uniqueid": "MTK1062:3KMS4QQVK3XXQY76G9S7IMMIMU2KF7", "current_trial": 130, "dateTime": 1513024142506, "trialdata": {"rt": -1000, "stimulus": "/static/audio/wordpool/LACE.wav", "key_press": -1, "type": "PRES_AUD", "word": "lace", "wordID": 791, "conditions": [12, 800, "a", 24000], "trial": 3, "serialpos": 1, "trial_type": "single-audio", "trial_index": 130, "time_elapsed": 649703, "internal_node_id": "0.0-94.0"}}, {"uniqueid": "MTK1062:3KMS4QQVK3XXQY76G9S7IMMIMU2KF7", "current_trial": 131, "dateTime": 1513024144349, "trialdata": {"rt": -1000, "stimulus": "/static/audio/wordpool/BACKBONE.wav", "key_press": -1, "type": "PRES_AUD", "word": "backbone", "wordID": 65, "conditions": [12, 800, "a", 24000], "trial": 3, "serialpos": 2, "trial_type": "single-audio", "trial_index": 131, "time_elapsed": 651546, "internal_node_id": "0.0-95.0"}}, {"uniqueid": "MTK1062:3KMS4QQVK3XXQY76G9S7IMMIMU2KF7", "current_trial": 132, "dateTime": 1513024146118, "trialdata": {"rt": -1000, "stimulus": "/static/audio/wordpool/EUROPE.wav", "key_press": -1, "type": "PRES_AUD", "word": "europe", "wordID": 540, "conditions": [12, 800, "a", 24000], "trial": 3, "serialpos": 3, "trial_type": "single-audio", "trial_index": 132, "time_elapsed": 653315, "internal_node_id": "0.0-96.0"}}, {"uniqueid": "MTK1062:3KMS4QQVK3XXQY76G9S7IMMIMU2KF7", "current_trial": 133, "dateTime": 1513024147931, "trialdata": {"rt": -1000, "stimulus": "/static/audio/wordpool/DOUGHNUT.wav", "key_press": -1, "type": "PRES_AUD", "word": "doughnut", "wordID": 489, "conditions": [12, 800, "a", 24000], "trial": 3, "serialpos": 4, "trial_type": "single-audio", "trial_index": 133, "time_elapsed": 655128, "internal_node_id": "0.0-97.0"}}, {"uniqueid": "MTK1062:3KMS4QQVK3XXQY76G9S7IMMIMU2KF7", "current_trial": 134, "dateTime": 1513024149782, "trialdata": {"rt": -1000, "stimulus": "/static/audio/wordpool/ROBBER.wav", "key_press": -1, "type": "PRES_AUD", "word": "robber", "wordID": 1196, "conditions": [12, 800, "a", 24000], "trial": 3, "serialpos": 5, "trial_type": "single-audio", "trial_index": 134, "time_elapsed": 656979, "internal_node_id": "0.0-98.0"}}, {"uniqueid": "MTK1062:3KMS4QQVK3XXQY76G9S7IMMIMU2KF7", "current_trial": 135, "dateTime": 1513024151655, "trialdata": {"rt": -1000, "stimulus": "/static/audio/wordpool/VIKING.wav", "key_press": -1, "type": "PRES_AUD", "word": "viking", "wordID": 1564, "conditions": [12, 800, "a", 24000], "trial": 3, "serialpos": 6, "trial_type": "single-audio", "trial_index": 135, "time_elapsed": 658852, "internal_node_id": "0.0-99.0"}}, {"uniqueid": "MTK1062:3KMS4QQVK3XXQY76G9S7IMMIMU2KF7", "current_trial": 136, "dateTime": 1513024153446, "trialdata": {"rt": -1000, "stimulus": "/static/audio/wordpool/FREEZER.wav", "key_press": -1, "type": "PRES_AUD", "word": "freezer", "wordID": 603, "conditions": [12, 800, "a", 24000], "trial": 3, "serialpos": 7, "trial_type": "single-audio", "trial_index": 136, "time_elapsed": 660643, "internal_node_id": "0.0-100.0"}}, {"uniqueid": "MTK1062:3KMS4QQVK3XXQY76G9S7IMMIMU2KF7", "current_trial": 137, "dateTime": 1513024155155, "trialdata": {"rt": -1000, "stimulus": "/static/audio/wordpool/GOBLIN.wav", "key_press": -1, "type": "PRES_AUD", "word": "goblin", "wordID": 644, "conditions": [12, 800, "a", 24000], "trial": 3, "serialpos": 8, "trial_type": "single-audio", "trial_index": 137, "time_elapsed": 662352, "internal_node_id": "0.0-101.0"}}, {"uniqueid": "MTK1062:3KMS4QQVK3XXQY76G9S7IMMIMU2KF7", "current_trial": 138, "dateTime": 1513024157084, "trialdata": {"rt": -1000, "stimulus": "/static/audio/wordpool/DRAGON.wav", "key_press": -1, "type": "PRES_AUD", "word": "dragon", "wordID": 491, "conditions": [12, 800, "a", 24000], "trial": 3, "serialpos": 9, "trial_type": "single-audio", "trial_index": 138, "time_elapsed": 664281, "internal_node_id": "0.0-102.0"}}, {"uniqueid": "MTK1062:3KMS4QQVK3XXQY76G9S7IMMIMU2KF7", "current_trial": 139, "dateTime": 1513024158828, "trialdata": {"rt": -1000, "stimulus": "/static/audio/wordpool/COMET.wav", "key_press": -1, "type": "PRES_AUD", "word": "comet", "wordID": 352, "conditions": [12, 800, "a", 24000], "trial": 3, "serialpos": 10, "trial_type": "single-audio", "trial_index": 139, "time_elapsed": 666025, "internal_node_id": "0.0-103.0"}}, {"uniqueid": "MTK1062:3KMS4QQVK3XXQY76G9S7IMMIMU2KF7", "current_trial": 140, "dateTime": 1513024160570, "trialdata": {"rt": -1000, "stimulus": "/static/audio/wordpool/SCALLOP.wav", "key_press": -1, "type": "PRES_AUD", "word": "scallop", "wordID": 1241, "conditions": [12, 800, "a", 24000], "trial": 3, "serialpos": 11, "trial_type": "single-audio", "trial_index": 140, "time_elapsed": 667767, "internal_node_id": "0.0-104.0"}}, {"uniqueid": "MTK1062:3KMS4QQVK3XXQY76G9S7IMMIMU2KF7", "current_trial": 141, "dateTime": 1513024161831, "trialdata": {"rt": -1, "stimulus": "", "key_press": -1, "type": "PRE_RECALL_DELAY", "trial_type": "single-stim", "trial_index": 141, "time_elapsed": 669028, "internal_node_id": "0.0-105.0-0.0"}}, {"uniqueid": "MTK1062:3KMS4QQVK3XXQY76G9S7IMMIMU2KF7", "current_trial": 142, "dateTime": 1513024162334, "trialdata": {"rt": -1000, "stimulus": "/static/audio/400Hz.wav", "key_press": -1, "type": "PRE_RECALL_ALERT", "trial_type": "single-audio", "trial_index": 142, "time_elapsed": 669531, "internal_node_id": "0.0-106.0"}}, {"uniqueid": "MTK1062:3KMS4QQVK3XXQY76G9S7IMMIMU2KF7", "current_trial": 143, "dateTime": 1513024222339, "trialdata": {"rt": [8873, 10849, 12278, 14925, 15090], "recwords": ["goblin", "dragon", "mace", "europe", ""], "type": "FREE_RECALL", "conditions": [12, 800, "a", 24000], "trial": 3, "trial_type": "free-recall", "trial_index": 143, "time_elapsed": 729534, "internal_node_id": "0.0-107.0-0.0"}}, {"uniqueid": "MTK1062:3KMS4QQVK3XXQY76G9S7IMMIMU2KF7", "current_trial": 144, "dateTime": 1513024245200, "trialdata": {"rt": 20860, "key_press": 71, "type": "INSTRUCTIONS", "trial_type": "text", "trial_index": 144, "time_elapsed": 752397, "internal_node_id": "0.0-108.0"}}, {"uniqueid": "MTK1062:3KMS4QQVK3XXQY76G9S7IMMIMU2KF7", "current_trial": 145, "dateTime": 1513024271202, "trialdata": {"rt": [3994, 6268, 8703, 10219, 12101, 14339, 15932, 18112, 19802, 21579, 23127], "responses": ["14", "19", "22", "11", "17", "10", "11", "17", "15", "14", "11"], "num1": [4, 6, 9, 2, 8, 2, 2, 3, 8, 6, 1, 3], "num2": [3, 5, 3, 8, 4, 3, 6, 7, 3, 5, 8, 6], "num3": [7, 8, 9, 1, 5, 5, 3, 7, 4, 3, 2, 9], "type": "DISTRACTOR", "conditions": [12, 1600, "v", 24000], "trial": 4, "trial_type": "math-distractor", "trial_index": 145, "time_elapsed": 778399, "internal_node_id": "0.0-109.0"}}, {"uniqueid": "MTK1062:3KMS4QQVK3XXQY76G9S7IMMIMU2KF7", "current_trial": 146, "dateTime": 1513024274204, "trialdata": {"rt": -1, "stimulus": "<p id=\"stim\">10</p>", "key_press": -1, "trial_type": "single-stim", "trial_index": 146, "time_elapsed": 781401, "internal_node_id": "0.0-110.0-0.0"}}, {"uniqueid": "MTK1062:3KMS4QQVK3XXQY76G9S7IMMIMU2KF7", "current_trial": 147, "dateTime": 1513024275206, "trialdata": {"rt": -1, "stimulus": "<p id=\"stim\">9</p>", "key_press": -1, "trial_type": "single-stim", "trial_index": 147, "time_elapsed": 782403, "internal_node_id": "0.0-110.0-1.0"}}, {"uniqueid": "MTK1062:3KMS4QQVK3XXQY76G9S7IMMIMU2KF7", "current_trial": 148, "dateTime": 1513024276208, "trialdata": {"rt": -1, "stimulus": "<p id=\"stim\">8</p>", "key_press": -1, "trial_type": "single-stim", "trial_index": 148, "time_elapsed": 783405, "internal_node_id": "0.0-110.0-2.0"}}, {"uniqueid": "MTK1062:3KMS4QQVK3XXQY76G9S7IMMIMU2KF7", "current_trial": 149, "dateTime": 1513024277210, "trialdata": {"rt": -1, "stimulus": "<p id=\"stim\">7</p>", "key_press": -1, "trial_type": "single-stim", "trial_index": 149, "time_elapsed": 784406, "internal_node_id": "0.0-110.0-3.0"}}, {"uniqueid": "MTK1062:3KMS4QQVK3XXQY76G9S7IMMIMU2KF7", "current_trial": 150, "dateTime": 1513024278212, "trialdata": {"rt": -1, "stimulus": "<p id=\"stim\">6</p>", "key_press": -1, "trial_type": "single-stim", "trial_index": 150, "time_elapsed": 785409, "internal_node_id": "0.0-110.0-4.0"}}, {"uniqueid": "MTK1062:3KMS4QQVK3XXQY76G9S7IMMIMU2KF7", "current_trial": 151, "dateTime": 1513024279214, "trialdata": {"rt": -1, "stimulus": "<p id=\"stim\">5</p>", "key_press": -1, "trial_type": "single-stim", "trial_index": 151, "time_elapsed": 786411, "internal_node_id": "0.0-110.0-5.0"}}, {"uniqueid": "MTK1062:3KMS4QQVK3XXQY76G9S7IMMIMU2KF7", "current_trial": 152, "dateTime": 1513024280215, "trialdata": {"rt": -1, "stimulus": "<p id=\"stim\">4</p>", "key_press": -1, "trial_type": "single-stim", "trial_index": 152, "time_elapsed": 787412, "internal_node_id": "0.0-110.0-6.0"}}, {"uniqueid": "MTK1062:3KMS4QQVK3XXQY76G9S7IMMIMU2KF7", "current_trial": 153, "dateTime": 1513024281215, "trialdata": {"rt": -1, "stimulus": "<p id=\"stim\">3</p>", "key_press": -1, "trial_type": "single-stim", "trial_index": 153, "time_elapsed": 788412, "internal_node_id": "0.0-110.0-7.0"}}, {"uniqueid": "MTK1062:3KMS4QQVK3XXQY76G9S7IMMIMU2KF7", "current_trial": 154, "dateTime": 1513024282216, "trialdata": {"rt": -1, "stimulus": "<p id=\"stim\">2</p>", "key_press": -1, "trial_type": "single-stim", "trial_index": 154, "time_elapsed": 789413, "internal_node_id": "0.0-110.0-8.0"}}, {"uniqueid": "MTK1062:3KMS4QQVK3XXQY76G9S7IMMIMU2KF7", "current_trial": 155, "dateTime": 1513024283218, "trialdata": {"rt": -1, "stimulus": "<p id=\"stim\">1</p>", "key_press": -1, "trial_type": "single-stim", "trial_index": 155, "time_elapsed": 790415, "internal_node_id": "0.0-110.0-9.0"}}, {"uniqueid": "MTK1062:3KMS4QQVK3XXQY76G9S7IMMIMU2KF7", "current_trial": 156, "dateTime": 1513024284719, "trialdata": {"rt": -1, "stimulus": "<p id=\"stim\">+</p>", "key_press": -1, "type": "FIXATION", "trial_type": "single-stim", "trial_index": 156, "time_elapsed": 791916, "internal_node_id": "0.0-111.0-0.0"}}, {"uniqueid": "MTK1062:3KMS4QQVK3XXQY76G9S7IMMIMU2KF7", "current_trial": 157, "dateTime": 1513024286322, "trialdata": {"rt": -1, "stimulus": "<p id=\"stim\">WRIST</p>", "key_press": -1, "type": "PRES_VIS", "word": "wrist", "wordID": 1625, "conditions": [12, 1600, "v", 24000], "trial": 4, "serialpos": 0, "trial_type": "single-stim", "trial_index": 157, "time_elapsed": 793518, "internal_node_id": "0.0-112.0"}}, {"uniqueid": "MTK1062:3KMS4QQVK3XXQY76G9S7IMMIMU2KF7", "current_trial": 158, "dateTime": 1513024289052, "trialdata": {"rt": -1, "stimulus": "<p id=\"stim\">ACTOR</p>", "key_press": -1, "type": "PRES_VIS", "word": "actor", "wordID": 4, "conditions": [12, 1600, "v", 24000], "trial": 4, "serialpos": 1, "trial_type": "single-stim", "trial_index": 158, "time_elapsed": 796249, "internal_node_id": "0.0-113.0"}}, {"uniqueid": "MTK1062:3KMS4QQVK3XXQY76G9S7IMMIMU2KF7", "current_trial": 159, "dateTime": 1513024291814, "trialdata": {"rt": -1, "stimulus": "<p id=\"stim\">BANK</p>", "key_press": -1, "type": "PRES_VIS", "word": "bank", "wordID": 82, "conditions": [12, 1600, "v", 24000], "trial": 4, "serialpos": 2, "trial_type": "single-stim", "trial_index": 159, "time_elapsed": 799011, "internal_node_id": "0.0-114.0"}}, {"uniqueid": "MTK1062:3KMS4QQVK3XXQY76G9S7IMMIMU2KF7", "current_trial": 160, "dateTime": 1513024294411, "trialdata": {"rt": -1, "stimulus": "<p id=\"stim\">PISTON</p>", "key_press": -1, "type": "PRES_VIS", "word": "piston", "wordID": 1075, "conditions": [12, 1600, "v", 24000], "trial": 4, "serialpos": 3, "trial_type": "single-stim", "trial_index": 160, "time_elapsed": 801608, "internal_node_id": "0.0-115.0"}}, {"uniqueid": "MTK1062:3KMS4QQVK3XXQY76G9S7IMMIMU2KF7", "current_trial": 161, "dateTime": 1513024296994, "trialdata": {"rt": -1, "stimulus": "<p id=\"stim\">CAFE</p>", "key_press": -1, "type": "PRES_VIS", "word": "cafe", "wordID": 215, "conditions": [12, 1600, "v", 24000], "trial": 4, "serialpos": 4, "trial_type": "single-stim", "trial_index": 161, "time_elapsed": 804191, "internal_node_id": "0.0-116.0"}}, {"uniqueid": "MTK1062:3KMS4QQVK3XXQY76G9S7IMMIMU2KF7", "current_trial": 162, "dateTime": 1513024299696, "trialdata": {"rt": -1, "stimulus": "<p id=\"stim\">HARP</p>", "key_press": -1, "type": "PRES_VIS", "word": "harp", "wordID": 688, "conditions": [12, 1600, "v", 24000], "trial": 4, "serialpos": 5, "trial_type": "single-stim", "trial_index": 162, "time_elapsed": 806893, "internal_node_id": "0.0-117.0"}}, {"uniqueid": "MTK1062:3KMS4QQVK3XXQY76G9S7IMMIMU2KF7", "current_trial": 163, "dateTime": 1513024302377, "trialdata": {"rt": -1, "stimulus": "<p id=\"stim\">RECORD</p>", "key_press": -1, "type": "PRES_VIS", "word": "record", "wordID": 1175, "conditions": [12, 1600, "v", 24000], "trial": 4, "serialpos": 6, "trial_type": "single-stim", "trial_index": 163, "time_elapsed": 809574, "internal_node_id": "0.0-118.0"}}, {"uniqueid": "MTK1062:3KMS4QQVK3XXQY76G9S7IMMIMU2KF7", "current_trial": 164, "dateTime": 1513024305116, "trialdata": {"rt": -1, "stimulus": "<p id=\"stim\">WHISTLE</p>", "key_press": -1, "type": "PRES_VIS", "word": "whistle", "wordID": 1605, "conditions": [12, 1600, "v", 24000], "trial": 4, "serialpos": 7, "trial_type": "single-stim", "trial_index": 164, "time_elapsed": 812313, "internal_node_id": "0.0-119.0"}}, {"uniqueid": "MTK1062:3KMS4QQVK3XXQY76G9S7IMMIMU2KF7", "current_trial": 165, "dateTime": 1513024307914, "trialdata": {"rt": -1, "stimulus": "<p id=\"stim\">FIREMAN</p>", "key_press": -1, "type": "PRES_VIS", "word": "fireman", "wordID": 568, "conditions": [12, 1600, "v", 24000], "trial": 4, "serialpos": 8, "trial_type": "single-stim", "trial_index": 165, "time_elapsed": 815111, "internal_node_id": "0.0-120.0"}}, {"uniqueid": "MTK1062:3KMS4QQVK3XXQY76G9S7IMMIMU2KF7", "current_trial": 166, "dateTime": 1513024310413, "trialdata": {"rt": -1, "stimulus": "<p id=\"stim\">FILM</p>", "key_press": -1, "type": "PRES_VIS", "word": "film", "wordID": 564, "conditions": [12, 1600, "v", 24000], "trial": 4, "serialpos": 9, "trial_type": "single-stim", "trial_index": 166, "time_elapsed": 817610, "internal_node_id": "0.0-121.0"}}, {"uniqueid": "MTK1062:3KMS4QQVK3XXQY76G9S7IMMIMU2KF7", "current_trial": 167, "dateTime": 1513024312842, "trialdata": {"rt": -1, "stimulus": "<p id=\"stim\">KITCHEN</p>", "key_press": -1, "type": "PRES_VIS", "word": "kitchen", "wordID": 777, "conditions": [12, 1600, "v", 24000], "trial": 4, "serialpos": 10, "trial_type": "single-stim", "trial_index": 167, "time_elapsed": 820039, "internal_node_id": "0.0-122.0"}}, {"uniqueid": "MTK1062:3KMS4QQVK3XXQY76G9S7IMMIMU2KF7", "current_trial": 168, "dateTime": 1513024315354, "trialdata": {"rt": -1, "stimulus": "<p id=\"stim\">CUPBOARD</p>", "key_press": -1, "type": "PRES_VIS", "word": "cupboard", "wordID": 424, "conditions": [12, 1600, "v", 24000], "trial": 4, "serialpos": 11, "trial_type": "single-stim", "trial_index": 168, "time_elapsed": 822551, "internal_node_id": "0.0-123.0"}}, {"uniqueid": "MTK1062:3KMS4QQVK3XXQY76G9S7IMMIMU2KF7", "current_trial": 169, "dateTime": 1513024317622, "trialdata": {"rt": -1, "stimulus": "", "key_press": -1, "type": "PRE_RECALL_DELAY", "trial_type": "single-stim", "trial_index": 169, "time_elapsed": 824819, "internal_node_id": "0.0-124.0-0.0"}}, {"uniqueid": "MTK1062:3KMS4QQVK3XXQY76G9S7IMMIMU2KF7", "current_trial": 170, "dateTime": 1513024318123, "trialdata": {"rt": -1000, "stimulus": "/static/audio/400Hz.wav", "key_press": -1, "type": "PRE_RECALL_ALERT", "trial_type": "single-audio", "trial_index": 170, "time_elapsed": 825320, "internal_node_id": "0.0-125.0"}}, {"uniqueid": "MTK1062:3KMS4QQVK3XXQY76G9S7IMMIMU2KF7", "current_trial": 171, "dateTime": 1513024378127, "trialdata": {"rt": [5221, 6845, 7714], "recwords": ["bank", "piston", "cafe"], "type": "FREE_RECALL", "conditions": [12, 1600, "v", 24000], "trial": 4, "trial_type": "free-recall", "trial_index": 171, "time_elapsed": 885321, "internal_node_id": "0.0-126.0-0.0"}}, {"uniqueid": "MTK1062:3KMS4QQVK3XXQY76G9S7IMMIMU2KF7", "current_trial": 172, "dateTime": 1513024392901, "trialdata": {"rt": 12773, "key_press": 74, "type": "INSTRUCTIONS", "trial_type": "text", "trial_index": 172, "time_elapsed": 900098, "internal_node_id": "0.0-127.0"}}, {"uniqueid": "MTK1062:3KMS4QQVK3XXQY76G9S7IMMIMU2KF7", "current_trial": 173, "dateTime": 1513024418904, "trialdata": {"rt": [1760, 3683, 7325, 9679, 11460, 12801, 14543, 15718, 17703, 20552, 22627], "responses": ["9", "16", "165", "24", "9", "5", "12", "11", "21", "21", "16"], "num1": [5, 2, 6, 9, 4, 3, 4, 5, 4, 9, 4, 2], "num2": [2, 7, 3, 9, 3, 1, 1, 5, 8, 5, 8, 7], "num3": [2, 7, 8, 6, 2, 1, 7, 1, 9, 7, 4, 8], "type": "DISTRACTOR", "conditions": [12, 1600, "a", 24000], "trial": 5, "trial_type": "math-distractor", "trial_index": 173, "time_elapsed": 926101, "internal_node_id": "0.0-128.0"}}, {"uniqueid": "MTK1062:3KMS4QQVK3XXQY76G9S7IMMIMU2KF7", "current_trial": 174, "dateTime": 1513024421906, "trialdata": {"rt": -1, "stimulus": "<p id=\"stim\">10</p>", "key_press": -1, "trial_type": "single-stim", "trial_index": 174, "time_elapsed": 929103, "internal_node_id": "0.0-129.0-0.0"}}, {"uniqueid": "MTK1062:3KMS4QQVK3XXQY76G9S7IMMIMU2KF7", "current_trial": 175, "dateTime": 1513024422907, "trialdata": {"rt": -1, "stimulus": "<p id=\"stim\">9</p>", "key_press": -1, "trial_type": "single-stim", "trial_index": 175, "time_elapsed": 930104, "internal_node_id": "0.0-129.0-1.0"}}, {"uniqueid": "MTK1062:3KMS4QQVK3XXQY76G9S7IMMIMU2KF7", "current_trial": 176, "dateTime": 1513024423909, "trialdata": {"rt": -1, "stimulus": "<p id=\"stim\">8</p>", "key_press": -1, "trial_type": "single-stim", "trial_index": 176, "time_elapsed": 931106, "internal_node_id": "0.0-129.0-2.0"}}, {"uniqueid": "MTK1062:3KMS4QQVK3XXQY76G9S7IMMIMU2KF7", "current_trial": 177, "dateTime": 1513024424910, "trialdata": {"rt": -1, "stimulus": "<p id=\"stim\">7</p>", "key_press": -1, "trial_type": "single-stim", "trial_index": 177, "time_elapsed": 932107, "internal_node_id": "0.0-129.0-3.0"}}, {"uniqueid": "MTK1062:3KMS4QQVK3XXQY76G9S7IMMIMU2KF7", "current_trial": 178, "dateTime": 1513024425910, "trialdata": {"rt": -1, "stimulus": "<p id=\"stim\">6</p>", "key_press": -1, "trial_type": "single-stim", "trial_index": 178, "time_elapsed": 933107, "internal_node_id": "0.0-129.0-4.0"}}, {"uniqueid": "MTK1062:3KMS4QQVK3XXQY76G9S7IMMIMU2KF7", "current_trial": 179, "dateTime": 1513024426912, "trialdata": {"rt": -1, "stimulus": "<p id=\"stim\">5</p>", "key_press": -1, "trial_type": "single-stim", "trial_index": 179, "time_elapsed": 934109, "internal_node_id": "0.0-129.0-5.0"}}, {"uniqueid": "MTK1062:3KMS4QQVK3XXQY76G9S7IMMIMU2KF7", "current_trial": 180, "dateTime": 1513024427915, "trialdata": {"rt": -1, "stimulus": "<p id=\"stim\">4</p>", "key_press": -1, "trial_type": "single-stim", "trial_index": 180, "time_elapsed": 935112, "internal_node_id": "0.0-129.0-6.0"}}, {"uniqueid": "MTK1062:3KMS4QQVK3XXQY76G9S7IMMIMU2KF7", "current_trial": 181, "dateTime": 1513024428915, "trialdata": {"rt": -1, "stimulus": "<p id=\"stim\">3</p>", "key_press": -1, "trial_type": "single-stim", "trial_index": 181, "time_elapsed": 936112, "internal_node_id": "0.0-129.0-7.0"}}, {"uniqueid": "MTK1062:3KMS4QQVK3XXQY76G9S7IMMIMU2KF7", "current_trial": 182, "dateTime": 1513024429917, "trialdata": {"rt": -1, "stimulus": "<p id=\"stim\">2</p>", "key_press": -1, "trial_type": "single-stim", "trial_index": 182, "time_elapsed": 937114, "internal_node_id": "0.0-129.0-8.0"}}, {"uniqueid": "MTK1062:3KMS4QQVK3XXQY76G9S7IMMIMU2KF7", "current_trial": 183, "dateTime": 1513024430919, "trialdata": {"rt": -1, "stimulus": "<p id=\"stim\">1</p>", "key_press": -1, "trial_type": "single-stim", "trial_index": 183, "time_elapsed": 938116, "internal_node_id": "0.0-129.0-9.0"}}, {"uniqueid": "MTK1062:3KMS4QQVK3XXQY76G9S7IMMIMU2KF7", "current_trial": 184, "dateTime": 1513024432420, "trialdata": {"rt": -1, "stimulus": "<p id=\"stim\">+</p>", "key_press": -1, "type": "FIXATION", "trial_type": "single-stim", "trial_index": 184, "time_elapsed": 939617, "internal_node_id": "0.0-130.0-0.0"}}, {"uniqueid": "MTK1062:3KMS4QQVK3XXQY76G9S7IMMIMU2KF7", "current_trial": 185, "dateTime": 1513024435210, "trialdata": {"rt": -1000, "stimulus": "/static/audio/wordpool/LIPSTICK.wav", "key_press": -1, "type": "PRES_AUD", "word": "lipstick", "wordID": 828, "conditions": [12, 1600, "a", 24000], "trial": 5, "serialpos": 0, "trial_type": "single-audio", "trial_index": 185, "time_elapsed": 942407, "internal_node_id": "0.0-131.0"}}, {"uniqueid": "MTK1062:3KMS4QQVK3XXQY76G9S7IMMIMU2KF7", "current_trial": 186, "dateTime": 1513024437657, "trialdata": {"rt": -1000, "stimulus": "/static/audio/wordpool/HEART.wav", "key_press": -1, "type": "PRES_AUD", "word": "heart", "wordID": 696, "conditions": [12, 1600, "a", 24000], "trial": 5, "serialpos": 1, "trial_type": "single-audio", "trial_index": 186, "time_elapsed": 944854, "internal_node_id": "0.0-132.0"}}, {"uniqueid": "MTK1062:3KMS4QQVK3XXQY76G9S7IMMIMU2KF7", "current_trial": 187, "dateTime": 1513024440348, "trialdata": {"rt": -1000, "stimulus": "/static/audio/wordpool/COBRA.wav", "key_press": -1, "type": "PRES_AUD", "word": "cobra", "wordID": 335, "conditions": [12, 1600, "a", 24000], "trial": 5, "serialpos": 2, "trial_type": "single-audio", "trial_index": 187, "time_elapsed": 947545, "internal_node_id": "0.0-133.0"}}, {"uniqueid": "MTK1062:3KMS4QQVK3XXQY76G9S7IMMIMU2KF7", "current_trial": 188, "dateTime": 1513024443149, "trialdata": {"rt": -1000, "stimulus": "/static/audio/wordpool/HIGHWAY.wav", "key_press": -1, "type": "PRES_AUD", "word": "highway", "wordID": 706, "conditions": [12, 1600, "a", 24000], "trial": 5, "serialpos": 3, "trial_type": "single-audio", "trial_index": 188, "time_elapsed": 950346, "internal_node_id": "0.0-134.0"}}, {"uniqueid": "MTK1062:3KMS4QQVK3XXQY76G9S7IMMIMU2KF7", "current_trial": 189, "dateTime": 1513024445902, "trialdata": {"rt": -1000, "stimulus": "/static/audio/wordpool/GLASS.wav", "key_press": -1, "type": "PRES_AUD", "word": "glass", "wordID": 638, "conditions": [12, 1600, "a", 24000], "trial": 5, "serialpos": 4, "trial_type": "single-audio", "trial_index": 189, "time_elapsed": 953099, "internal_node_id": "0.0-135.0"}}, {"uniqueid": "MTK1062:3KMS4QQVK3XXQY76G9S7IMMIMU2KF7", "current_trial": 190, "dateTime": 1513024448530, "trialdata": {"rt": -1000, "stimulus": "/static/audio/wordpool/BUTCHER.wav", "key_press": -1, "type": "PRES_AUD", "word": "butcher", "wordID": 202, "conditions": [12, 1600, "a", 24000], "trial": 5, "serialpos": 5, "trial_type": "single-audio", "trial_index": 190, "time_elapsed": 955727, "internal_node_id": "0.0-136.0"}}, {"uniqueid": "MTK1062:3KMS4QQVK3XXQY76G9S7IMMIMU2KF7", "current_trial": 191, "dateTime": 1513024451312, "trialdata": {"rt": -1000, "stimulus": "/static/audio/wordpool/PASTRY.wav", "key_press": -1, "type": "PRES_AUD", "word": "pastry", "wordID": 1021, "conditions": [12, 1600, "a", 24000], "trial": 5, "serialpos": 6, "trial_type": "single-audio", "trial_index": 191, "time_elapsed": 958509, "internal_node_id": "0.0-137.0"}}, {"uniqueid": "MTK1062:3KMS4QQVK3XXQY76G9S7IMMIMU2KF7", "current_trial": 192, "dateTime": 1513024454101, "trialdata": {"rt": -1000, "stimulus": "/static/audio/wordpool/CRAB.wav", "key_press": -1, "type": "PRES_AUD", "word": "crab", "wordID": 396, "conditions": [12, 1600, "a", 24000], "trial": 5, "serialpos": 7, "trial_type": "single-audio", "trial_index": 192, "time_elapsed": 961298, "internal_node_id": "0.0-138.0"}}, {"uniqueid": "MTK1062:3KMS4QQVK3XXQY76G9S7IMMIMU2KF7", "current_trial": 193, "dateTime": 1513024456819, "trialdata": {"rt": -1000, "stimulus": "/static/audio/wordpool/SNAKE.wav", "key_press": -1, "type": "PRES_AUD", "word": "snake", "wordID": 1332, "conditions": [12, 1600, "a", 24000], "trial": 5, "serialpos": 8, "trial_type": "single-audio", "trial_index": 193, "time_elapsed": 964016, "internal_node_id": "0.0-139.0"}}, {"uniqueid": "MTK1062:3KMS4QQVK3XXQY76G9S7IMMIMU2KF7", "current_trial": 194, "dateTime": 1513024459564, "trialdata": {"rt": -1000, "stimulus": "/static/audio/wordpool/FLUTE.wav", "key_press": -1, "type": "PRES_AUD", "word": "flute", "wordID": 584, "conditions": [12, 1600, "a", 24000], "trial": 5, "serialpos": 9, "trial_type": "single-audio", "trial_index": 194, "time_elapsed": 966761, "internal_node_id": "0.0-140.0"}}, {"uniqueid": "MTK1062:3KMS4QQVK3XXQY76G9S7IMMIMU2KF7", "current_trial": 195, "dateTime": 1513024462176, "trialdata": {"rt": -1000, "stimulus": "/static/audio/wordpool/PIANO.wav", "key_press": -1, "type": "PRES_AUD", "word": "piano", "wordID": 1056, "conditions": [12, 1600, "a", 24000], "trial": 5, "serialpos": 10, "trial_type": "single-audio", "trial_index": 195, "time_elapsed": 969373, "internal_node_id": "0.0-141.0"}}, {"uniqueid": "MTK1062:3KMS4QQVK3XXQY76G9S7IMMIMU2KF7", "current_trial": 196, "dateTime": 1513024464905, "trialdata": {"rt": -1000, "stimulus": "/static/audio/wordpool/LIVER.wav", "key_press": -1, "type": "PRES_AUD", "word": "liver", "wordID": 832, "conditions": [12, 1600, "a", 24000], "trial": 5, "serialpos": 11, "trial_type": "single-audio", "trial_index": 196, "time_elapsed": 972102, "internal_node_id": "0.0-142.0"}}, {"uniqueid": "MTK1062:3KMS4QQVK3XXQY76G9S7IMMIMU2KF7", "current_trial": 197, "dateTime": 1513024466305, "trialdata": {"rt": -1, "stimulus": "", "key_press": -1, "type": "PRE_RECALL_DELAY", "trial_type": "single-stim", "trial_index": 197, "time_elapsed": 973502, "internal_node_id": "0.0-143.0-0.0"}}, {"uniqueid": "MTK1062:3KMS4QQVK3XXQY76G9S7IMMIMU2KF7", "current_trial": 198, "dateTime": 1513024466806, "trialdata": {"rt": -1000, "stimulus": "/static/audio/400Hz.wav", "key_press": -1, "type": "PRE_RECALL_ALERT", "trial_type": "single-audio", "trial_index": 198, "time_elapsed": 974003, "internal_node_id": "0.0-144.0"}}, {"uniqueid": "MTK1062:3KMS4QQVK3XXQY76G9S7IMMIMU2KF7", "current_trial": 199, "dateTime": 1513024526810, "trialdata": {"rt": [5163, 6481, 8181, 9181], "recwords": ["crab", "snake", "flute", "river"], "type": "FREE_RECALL", "conditions": [12, 1600, "a", 24000], "trial": 5, "trial_type": "free-recall", "trial_index": 199, "time_elapsed": 1034005, "internal_node_id": "0.0-145.0-0.0"}}, {"uniqueid": "MTK1062:3KMS4QQVK3XXQY76G9S7IMMIMU2KF7", "current_trial": 200, "dateTime": 1513024542511, "trialdata": {"rt": 13701, "key_press": 75, "type": "INSTRUCTIONS", "trial_type": "text", "trial_index": 200, "time_elapsed": 1049708, "internal_node_id": "0.0-146.0"}}, {"uniqueid": "MTK1062:3KMS4QQVK3XXQY76G9S7IMMIMU2KF7", "current_trial": 201, "dateTime": 1513024556514, "trialdata": {"rt": [5357, 7414, 9909, 11473], "responses": ["12", "18", "8", "10"], "num1": [4, 8, 2, 4, 9], "num2": [1, 5, 3, 4, 5], "num3": [7, 5, 3, 2, 2], "type": "DISTRACTOR", "conditions": [12, 800, "v", 12000], "trial": 6, "trial_type": "math-distractor", "trial_index": 201, "time_elapsed": 1063711, "internal_node_id": "0.0-147.0"}}, {"uniqueid": "MTK1062:3KMS4QQVK3XXQY76G9S7IMMIMU2KF7", "current_trial": 202, "dateTime": 1513024559516, "trialdata": {"rt": -1, "stimulus": "<p id=\"stim\">10</p>", "key_press": -1, "trial_type": "single-stim", "trial_index": 202, "time_elapsed": 1066713, "internal_node_id": "0.0-148.0-0.0"}}, {"uniqueid": "MTK1062:3KMS4QQVK3XXQY76G9S7IMMIMU2KF7", "current_trial": 203, "dateTime": 1513024560518, "trialdata": {"rt": -1, "stimulus": "<p id=\"stim\">9</p>", "key_press": -1, "trial_type": "single-stim", "trial_index": 203, "time_elapsed": 1067715, "internal_node_id": "0.0-148.0-1.0"}}, {"uniqueid": "MTK1062:3KMS4QQVK3XXQY76G9S7IMMIMU2KF7", "current_trial": 204, "dateTime": 1513024561519, "trialdata": {"rt": -1, "stimulus": "<p id=\"stim\">8</p>", "key_press": -1, "trial_type": "single-stim", "trial_index": 204, "time_elapsed": 1068716, "internal_node_id": "0.0-148.0-2.0"}}, {"uniqueid": "MTK1062:3KMS4QQVK3XXQY76G9S7IMMIMU2KF7", "current_trial": 205, "dateTime": 1513024562520, "trialdata": {"rt": -1, "stimulus": "<p id=\"stim\">7</p>", "key_press": -1, "trial_type": "single-stim", "trial_index": 205, "time_elapsed": 1069717, "internal_node_id": "0.0-148.0-3.0"}}, {"uniqueid": "MTK1062:3KMS4QQVK3XXQY76G9S7IMMIMU2KF7", "current_trial": 206, "dateTime": 1513024563522, "trialdata": {"rt": -1, "stimulus": "<p id=\"stim\">6</p>", "key_press": -1, "trial_type": "single-stim", "trial_index": 206, "time_elapsed": 1070719, "internal_node_id": "0.0-148.0-4.0"}}, {"uniqueid": "MTK1062:3KMS4QQVK3XXQY76G9S7IMMIMU2KF7", "current_trial": 207, "dateTime": 1513024564523, "trialdata": {"rt": -1, "stimulus": "<p id=\"stim\">5</p>", "key_press": -1, "trial_type": "single-stim", "trial_index": 207, "time_elapsed": 1071720, "internal_node_id": "0.0-148.0-5.0"}}, {"uniqueid": "MTK1062:3KMS4QQVK3XXQY76G9S7IMMIMU2KF7", "current_trial": 208, "dateTime": 1513024565526, "trialdata": {"rt": -1, "stimulus": "<p id=\"stim\">4</p>", "key_press": -1, "trial_type": "single-stim", "trial_index": 208, "time_elapsed": 1072721, "internal_node_id": "0.0-148.0-6.0"}}, {"uniqueid": "MTK1062:3KMS4QQVK3XXQY76G9S7IMMIMU2KF7", "current_trial": 209, "dateTime": 1513024566531, "trialdata": {"rt": -1, "stimulus": "<p id=\"stim\">3</p>", "key_press": -1, "trial_type": "single-stim", "trial_index": 209, "time_elapsed": 1073728, "internal_node_id": "0.0-148.0-7.0"}}, {"uniqueid": "MTK1062:3KMS4QQVK3XXQY76G9S7IMMIMU2KF7", "current_trial": 210, "dateTime": 1513024567532, "trialdata": {"rt": -1, "stimulus": "<p id=\"stim\">2</p>", "key_press": -1, "trial_type": "single-stim", "trial_index": 210, "time_elapsed": 1074729, "internal_node_id": "0.0-148.0-8.0"}}, {"uniqueid": "MTK1062:3KMS4QQVK3XXQY76G9S7IMMIMU2KF7", "current_trial": 211, "dateTime": 1513024568533, "trialdata": {"rt": -1, "stimulus": "<p id=\"stim\">1</p>", "key_press": -1, "trial_type": "single-stim", "trial_index": 211, "time_elapsed": 1075730, "internal_node_id": "0.0-148.0-9.0"}}, {"uniqueid": "MTK1062:3KMS4QQVK3XXQY76G9S7IMMIMU2KF7", "current_trial": 212, "dateTime": 1513024570034, "trialdata": {"rt": -1, "stimulus": "<p id=\"stim\">+</p>", "key_press": -1, "type": "FIXATION", "trial_type": "single-stim", "trial_index": 212, "time_elapsed": 1077231, "internal_node_id": "0.0-149.0-0.0"}}, {"uniqueid": "MTK1062:3KMS4QQVK3XXQY76G9S7IMMIMU2KF7", "current_trial": 213, "dateTime": 1513024570835, "trialdata": {"rt": -1, "stimulus": "<p id=\"stim\">TRACTOR</p>", "key_press": -1, "type": "PRES_VIS", "word": "tractor", "wordID": 1492, "conditions": [12, 800, "v", 12000], "trial": 6, "serialpos": 0, "trial_type": "single-stim", "trial_index": 213, "time_elapsed": 1078032, "internal_node_id": "0.0-150.0"}}, {"uniqueid": "MTK1062:3KMS4QQVK3XXQY76G9S7IMMIMU2KF7", "current_trial": 214, "dateTime": 1513024572600, "trialdata": {"rt": -1, "stimulus": "<p id=\"stim\">CURTAIN</p>", "key_press": -1, "type": "PRES_VIS", "word": "curtain", "wordID": 426, "conditions": [12, 800, "v", 12000], "trial": 6, "serialpos": 1, "trial_type": "single-stim", "trial_index": 214, "time_elapsed": 1079797, "internal_node_id": "0.0-151.0"}}, {"uniqueid": "MTK1062:3KMS4QQVK3XXQY76G9S7IMMIMU2KF7", "current_trial": 215, "dateTime": 1513024574238, "trialdata": {"rt": -1, "stimulus": "<p id=\"stim\">PATIENT</p>", "key_press": -1, "type": "PRES_VIS", "word": "patient", "wordID": 1023, "conditions": [12, 800, "v", 12000], "trial": 6, "serialpos": 2, "trial_type": "single-stim", "trial_index": 215, "time_elapsed": 1081435, "internal_node_id": "0.0-152.0"}}, {"uniqueid": "MTK1062:3KMS4QQVK3XXQY76G9S7IMMIMU2KF7", "current_trial": 216, "dateTime": 1513024575935, "trialdata": {"rt": -1, "stimulus": "<p id=\"stim\">BLENDER</p>", "key_press": -1, "type": "PRES_VIS", "word": "blender", "wordID": 135, "conditions": [12, 800, "v", 12000], "trial": 6, "serialpos": 3, "trial_type": "single-stim", "trial_index": 216, "time_elapsed": 1083132, "internal_node_id": "0.0-153.0"}}, {"uniqueid": "MTK1062:3KMS4QQVK3XXQY76G9S7IMMIMU2KF7", "current_trial": 217, "dateTime": 1513024577749, "trialdata": {"rt": -1, "stimulus": "<p id=\"stim\">CAPTIVE</p>", "key_press": -1, "type": "PRES_VIS", "word": "captive", "wordID": 239, "conditions": [12, 800, "v", 12000], "trial": 6, "serialpos": 4, "trial_type": "single-stim", "trial_index": 217, "time_elapsed": 1084946, "internal_node_id": "0.0-154.0"}}, {"uniqueid": "MTK1062:3KMS4QQVK3XXQY76G9S7IMMIMU2KF7", "current_trial": 218, "dateTime": 1513024579513, "trialdata": {"rt": -1, "stimulus": "<p id=\"stim\">NURSE</p>", "key_press": -1, "type": "PRES_VIS", "word": "nurse", "wordID": 962, "conditions": [12, 800, "v", 12000], "trial": 6, "serialpos": 5, "trial_type": "single-stim", "trial_index": 218, "time_elapsed": 1086710, "internal_node_id": "0.0-155.0"}}, {"uniqueid": "MTK1062:3KMS4QQVK3XXQY76G9S7IMMIMU2KF7", "current_trial": 219, "dateTime": 1513024581183, "trialdata": {"rt": -1, "stimulus": "<p id=\"stim\">STATUE</p>", "key_press": -1, "type": "PRES_VIS", "word": "statue", "wordID": 1373, "conditions": [12, 800, "v", 12000], "trial": 6, "serialpos": 6, "trial_type": "single-stim", "trial_index": 219, "time_elapsed": 1088380, "internal_node_id": "0.0-156.0"}}, {"uniqueid": "MTK1062:3KMS4QQVK3XXQY76G9S7IMMIMU2KF7", "current_trial": 220, "dateTime": 1513024583076, "trialdata": {"rt": -1, "stimulus": "<p id=\"stim\">CLOUD</p>", "key_press": -1, "type": "PRES_VIS", "word": "cloud", "wordID": 327, "conditions": [12, 800, "v", 12000], "trial": 6, "serialpos": 7, "trial_type": "single-stim", "trial_index": 220, "time_elapsed": 1090273, "internal_node_id": "0.0-157.0"}}, {"uniqueid": "MTK1062:3KMS4QQVK3XXQY76G9S7IMMIMU2KF7", "current_trial": 221, "dateTime": 1513024584777, "trialdata": {"rt": -1, "stimulus": "<p id=\"stim\">VELVET</p>", "key_press": -1, "type": "PRES_VIS", "word": "velvet", "wordID": 1554, "conditions": [12, 800, "v", 12000], "trial": 6, "serialpos": 8, "trial_type": "single-stim", "trial_index": 221, "time_elapsed": 1091974, "internal_node_id": "0.0-158.0"}}, {"uniqueid": "MTK1062:3KMS4QQVK3XXQY76G9S7IMMIMU2KF7", "current_trial": 222, "dateTime": 1513024586379, "trialdata": {"rt": -1, "stimulus": "<p id=\"stim\">SILK</p>", "key_press": -1, "type": "PRES_VIS", "word": "silk", "wordID": 1306, "conditions": [12, 800, "v", 12000], "trial": 6, "serialpos": 9, "trial_type": "single-stim", "trial_index": 222, "time_elapsed": 1093576, "internal_node_id": "0.0-159.0"}}, {"uniqueid": "MTK1062:3KMS4QQVK3XXQY76G9S7IMMIMU2KF7", "current_trial": 223, "dateTime": 1513024588031, "trialdata": {"rt": -1, "stimulus": "<p id=\"stim\">POCKET</p>", "key_press": -1, "type": "PRES_VIS", "word": "pocket", "wordID": 1092, "conditions": [12, 800, "v", 12000], "trial": 6, "serialpos": 10, "trial_type": "single-stim", "trial_index": 223, "time_elapsed": 1095228, "internal_node_id": "0.0-160.0"}}, {"uniqueid": "MTK1062:3KMS4QQVK3XXQY76G9S7IMMIMU2KF7", "current_trial": 224, "dateTime": 1513024589992, "trialdata": {"rt": -1, "stimulus": "<p id=\"stim\">BUCKET</p>", "key_press": -1, "type": "PRES_VIS", "word": "bucket", "wordID": 183, "conditions": [12, 800, "v", 12000], "trial": 6, "serialpos": 11, "trial_type": "single-stim", "trial_index": 224, "time_elapsed": 1097188, "internal_node_id": "0.0-161.0"}}, {"uniqueid": "MTK1062:3KMS4QQVK3XXQY76G9S7IMMIMU2KF7", "current_trial": 225, "dateTime": 1513024592367, "trialdata": {"rt": -1, "stimulus": "", "key_press": -1, "type": "PRE_RECALL_DELAY", "trial_type": "single-stim", "trial_index": 225, "time_elapsed": 1099564, "internal_node_id": "0.0-162.0-0.0"}}, {"uniqueid": "MTK1062:3KMS4QQVK3XXQY76G9S7IMMIMU2KF7", "current_trial": 226, "dateTime": 1513024592869, "trialdata": {"rt": -1000, "stimulus": "/static/audio/400Hz.wav", "key_press": -1, "type": "PRE_RECALL_ALERT", "trial_type": "single-audio", "trial_index": 226, "time_elapsed": 1100066, "internal_node_id": "0.0-163.0"}}, {"uniqueid": "MTK1062:3KMS4QQVK3XXQY76G9S7IMMIMU2KF7", "current_trial": 227, "dateTime": 1513024652873, "trialdata": {"rt": [], "recwords": [], "type": "FREE_RECALL", "conditions": [12, 800, "v", 12000], "trial": 6, "trial_type": "free-recall", "trial_index": 227, "time_elapsed": 1160068, "internal_node_id": "0.0-164.0-0.0"}}, {"uniqueid": "MTK1062:3KMS4QQVK3XXQY76G9S7IMMIMU2KF7", "current_trial": 228, "dateTime": 1513024659835, "trialdata": {"rt": 4960, "key_press": 75, "type": "INSTRUCTIONS", "trial_type": "text", "trial_index": 228, "time_elapsed": 1167032, "internal_node_id": "0.0-165.0"}}, {"uniqueid": "MTK1062:3KMS4QQVK3XXQY76G9S7IMMIMU2KF7", "current_trial": 229, "dateTime": 1513024685837, "trialdata": {"rt": [1973, 3127, 5043, 8203, 9668, 11364, 12782, 15709, 18042, 19710, 21242, 23996], "responses": ["12", "12", "22", "17", "12", "9", "12", "16", "19", "11", "14", "20"], "num1": [6, 4, 7, 6, 6, 1, 2, 4, 3, 7, 5, 9, 4], "num2": [2, 6, 7, 5, 5, 6, 7, 7, 7, 1, 2, 8, 4], "num3": [4, 2, 8, 6, 1, 2, 3, 5, 9, 3, 7, 3, 7], "type": "DISTRACTOR", "conditions": [24, 1600, "v", 24000], "trial": 7, "trial_type": "math-distractor", "trial_index": 229, "time_elapsed": 1193034, "internal_node_id": "0.0-166.0"}}, {"uniqueid": "MTK1062:3KMS4QQVK3XXQY76G9S7IMMIMU2KF7", "current_trial": 230, "dateTime": 1513024688839, "trialdata": {"rt": -1, "stimulus": "<p id=\"stim\">10</p>", "key_press": -1, "trial_type": "single-stim", "trial_index": 230, "time_elapsed": 1196036, "internal_node_id": "0.0-167.0-0.0"}}, {"uniqueid": "MTK1062:3KMS4QQVK3XXQY76G9S7IMMIMU2KF7", "current_trial": 231, "dateTime": 1513024689839, "trialdata": {"rt": -1, "stimulus": "<p id=\"stim\">9</p>", "key_press": -1, "trial_type": "single-stim", "trial_index": 231, "time_elapsed": 1197036, "internal_node_id": "0.0-167.0-1.0"}}, {"uniqueid": "MTK1062:3KMS4QQVK3XXQY76G9S7IMMIMU2KF7", "current_trial": 232, "dateTime": 1513024690840, "trialdata": {"rt": -1, "stimulus": "<p id=\"stim\">8</p>", "key_press": -1, "trial_type": "single-stim", "trial_index": 232, "time_elapsed": 1198037, "internal_node_id": "0.0-167.0-2.0"}}, {"uniqueid": "MTK1062:3KMS4QQVK3XXQY76G9S7IMMIMU2KF7", "current_trial": 233, "dateTime": 1513024691841, "trialdata": {"rt": -1, "stimulus": "<p id=\"stim\">7</p>", "key_press": -1, "trial_type": "single-stim", "trial_index": 233, "time_elapsed": 1199038, "internal_node_id": "0.0-167.0-3.0"}}, {"uniqueid": "MTK1062:3KMS4QQVK3XXQY76G9S7IMMIMU2KF7", "current_trial": 234, "dateTime": 1513024692841, "trialdata": {"rt": -1, "stimulus": "<p id=\"stim\">6</p>", "key_press": -1, "trial_type": "single-stim", "trial_index": 234, "time_elapsed": 1200038, "internal_node_id": "0.0-167.0-4.0"}}, {"uniqueid": "MTK1062:3KMS4QQVK3XXQY76G9S7IMMIMU2KF7", "current_trial": 235, "dateTime": 1513024693843, "trialdata": {"rt": -1, "stimulus": "<p id=\"stim\">5</p>", "key_press": -1, "trial_type": "single-stim", "trial_index": 235, "time_elapsed": 1201040, "internal_node_id": "0.0-167.0-5.0"}}, {"uniqueid": "MTK1062:3KMS4QQVK3XXQY76G9S7IMMIMU2KF7", "current_trial": 236, "dateTime": 1513024694845, "trialdata": {"rt": -1, "stimulus": "<p id=\"stim\">4</p>", "key_press": -1, "trial_type": "single-stim", "trial_index": 236, "time_elapsed": 1202042, "internal_node_id": "0.0-167.0-6.0"}}, {"uniqueid": "MTK1062:3KMS4QQVK3XXQY76G9S7IMMIMU2KF7", "current_trial": 237, "dateTime": 1513024695845, "trialdata": {"rt": -1, "stimulus": "<p id=\"stim\">3</p>", "key_press": -1, "trial_type": "single-stim", "trial_index": 237, "time_elapsed": 1203042, "internal_node_id": "0.0-167.0-7.0"}}, {"uniqueid": "MTK1062:3KMS4QQVK3XXQY76G9S7IMMIMU2KF7", "current_trial": 238, "dateTime": 1513024696846, "trialdata": {"rt": -1, "stimulus": "<p id=\"stim\">2</p>", "key_press": -1, "trial_type": "single-stim", "trial_index": 238, "time_elapsed": 1204043, "internal_node_id": "0.0-167.0-8.0"}}, {"uniqueid": "MTK1062:3KMS4QQVK3XXQY76G9S7IMMIMU2KF7", "current_trial": 239, "dateTime": 1513024697847, "trialdata": {"rt": -1, "stimulus": "<p id=\"stim\">1</p>", "key_press": -1, "trial_type": "single-stim", "trial_index": 239, "time_elapsed": 1205044, "internal_node_id": "0.0-167.0-9.0"}}, {"uniqueid": "MTK1062:3KMS4QQVK3XXQY76G9S7IMMIMU2KF7", "current_trial": 240, "dateTime": 1513024699348, "trialdata": {"rt": -1, "stimulus": "<p id=\"stim\">+</p>", "key_press": -1, "type": "FIXATION", "trial_type": "single-stim", "trial_index": 240, "time_elapsed": 1206545, "internal_node_id": "0.0-168.0-0.0"}}, {"uniqueid": "MTK1062:3KMS4QQVK3XXQY76G9S7IMMIMU2KF7", "current_trial": 241, "dateTime": 1513024700949, "trialdata": {"rt": -1, "stimulus": "<p id=\"stim\">PUPPY</p>", "key_press": -1, "type": "PRES_VIS", "word": "puppy", "wordID": 1143, "conditions": [24, 1600, "v", 24000], "trial": 7, "serialpos": 0, "trial_type": "single-stim", "trial_index": 241, "time_elapsed": 1208146, "internal_node_id": "0.0-169.0"}}, {"uniqueid": "MTK1062:3KMS4QQVK3XXQY76G9S7IMMIMU2KF7", "current_trial": 242, "dateTime": 1513024703444, "trialdata": {"rt": -1, "stimulus": "<p id=\"stim\">SHERIFF</p>", "key_press": -1, "type": "PRES_VIS", "word": "sheriff", "wordID": 1283, "conditions": [24, 1600, "v", 24000], "trial": 7, "serialpos": 1, "trial_type": "single-stim", "trial_index": 242, "time_elapsed": 1210641, "internal_node_id": "0.0-170.0"}}, {"uniqueid": "MTK1062:3KMS4QQVK3XXQY76G9S7IMMIMU2KF7", "current_trial": 243, "dateTime": 1513024705894, "trialdata": {"rt": -1, "stimulus": "<p id=\"stim\">SIBLING</p>", "key_press": -1, "type": "PRES_VIS", "word": "sibling", "wordID": 1300, "conditions": [24, 1600, "v", 24000], "trial": 7, "serialpos": 2, "trial_type": "single-stim", "trial_index": 243, "time_elapsed": 1213091, "internal_node_id": "0.0-171.0"}}, {"uniqueid": "MTK1062:3KMS4QQVK3XXQY76G9S7IMMIMU2KF7", "current_trial": 244, "dateTime": 1513024708646, "trialdata": {"rt": -1, "stimulus": "<p id=\"stim\">STUDENT</p>", "key_press": -1, "type": "PRES_VIS", "word": "student", "wordID": 1394, "conditions": [24, 1600, "v", 24000], "trial": 7, "serialpos": 3, "trial_type": "single-stim", "trial_index": 244, "time_elapsed": 1215843, "internal_node_id": "0.0-172.0"}}, {"uniqueid": "MTK1062:3KMS4QQVK3XXQY76G9S7IMMIMU2KF7", "current_trial": 245, "dateTime": 1513024711220, "trialdata": {"rt": -1, "stimulus": "<p id=\"stim\">DRIVER</p>", "key_press": -1, "type": "PRES_VIS", "word": "driver", "wordID": 498, "conditions": [24, 1600, "v", 24000], "trial": 7, "serialpos": 4, "trial_type": "single-stim", "trial_index": 245, "time_elapsed": 1218417, "internal_node_id": "0.0-173.0"}}, {"uniqueid": "MTK1062:3KMS4QQVK3XXQY76G9S7IMMIMU2KF7", "current_trial": 246, "dateTime": 1513024714009, "trialdata": {"rt": -1, "stimulus": "<p id=\"stim\">SAUSAGE</p>", "key_press": -1, "type": "PRES_VIS", "word": "sausage", "wordID": 1237, "conditions": [24, 1600, "v", 24000], "trial": 7, "serialpos": 5, "trial_type": "single-stim", "trial_index": 246, "time_elapsed": 1221206, "internal_node_id": "0.0-174.0"}}, {"uniqueid": "MTK1062:3KMS4QQVK3XXQY76G9S7IMMIMU2KF7", "current_trial": 247, "dateTime": 1513024716622, "trialdata": {"rt": -1, "stimulus": "<p id=\"stim\">BRANDY</p>", "key_press": -1, "type": "PRES_VIS", "word": "brandy", "wordID": 168, "conditions": [24, 1600, "v", 24000], "trial": 7, "serialpos": 6, "trial_type": "single-stim", "trial_index": 247, "time_elapsed": 1223819, "internal_node_id": "0.0-175.0"}}, {"uniqueid": "MTK1062:3KMS4QQVK3XXQY76G9S7IMMIMU2KF7", "current_trial": 248, "dateTime": 1513024719200, "trialdata": {"rt": -1, "stimulus": "<p id=\"stim\">SCOTCH</p>", "key_press": -1, "type": "PRES_VIS", "word": "scotch", "wordID": 1250, "conditions": [24, 1600, "v", 24000], "trial": 7, "serialpos": 7, "trial_type": "single-stim", "trial_index": 248, "time_elapsed": 1226397, "internal_node_id": "0.0-176.0"}}, {"uniqueid": "MTK1062:3KMS4QQVK3XXQY76G9S7IMMIMU2KF7", "current_trial": 249, "dateTime": 1513024721914, "trialdata": {"rt": -1, "stimulus": "<p id=\"stim\">COUNTY</p>", "key_press": -1, "type": "PRES_VIS", "word": "county", "wordID": 388, "conditions": [24, 1600, "v", 24000], "trial": 7, "serialpos": 8, "trial_type": "single-stim", "trial_index": 249, "time_elapsed": 1229111, "internal_node_id": "0.0-177.0"}}, {"uniqueid": "MTK1062:3KMS4QQVK3XXQY76G9S7IMMIMU2KF7", "current_trial": 250, "dateTime": 1513024724512, "trialdata": {"rt": -1, "stimulus": "<p id=\"stim\">CARROT</p>", "key_press": -1, "type": "PRES_VIS", "word": "carrot", "wordID": 248, "conditions": [24, 1600, "v", 24000], "trial": 7, "serialpos": 9, "trial_type": "single-stim", "trial_index": 250, "time_elapsed": 1231709, "internal_node_id": "0.0-178.0"}}, {"uniqueid": "MTK1062:3KMS4QQVK3XXQY76G9S7IMMIMU2KF7", "current_trial": 251, "dateTime": 1513024727211, "trialdata": {"rt": -1, "stimulus": "<p id=\"stim\">TRUCK</p>", "key_press": -1, "type": "PRES_VIS", "word": "truck", "wordID": 1511, "conditions": [24, 1600, "v", 24000], "trial": 7, "serialpos": 10, "trial_type": "single-stim", "trial_index": 251, "time_elapsed": 1234408, "internal_node_id": "0.0-179.0"}}, {"uniqueid": "MTK1062:3KMS4QQVK3XXQY76G9S7IMMIMU2KF7", "current_trial": 252, "dateTime": 1513024729700, "trialdata": {"rt": -1, "stimulus": "<p id=\"stim\">CLAM</p>", "key_press": -1, "type": "PRES_VIS", "word": "clam", "wordID": 314, "conditions": [24, 1600, "v", 24000], "trial": 7, "serialpos": 11, "trial_type": "single-stim", "trial_index": 252, "time_elapsed": 1236897, "internal_node_id": "0.0-180.0"}}, {"uniqueid": "MTK1062:3KMS4QQVK3XXQY76G9S7IMMIMU2KF7", "current_trial": 253, "dateTime": 1513024732378, "trialdata": {"rt": -1, "stimulus": "<p id=\"stim\">SALMON</p>", "key_press": -1, "type": "PRES_VIS", "word": "salmon", "wordID": 1226, "conditions": [24, 1600, "v", 24000], "trial": 7, "serialpos": 12, "trial_type": "single-stim", "trial_index": 253, "time_elapsed": 1239575, "internal_node_id": "0.0-181.0"}}, {"uniqueid": "MTK1062:3KMS4QQVK3XXQY76G9S7IMMIMU2KF7", "current_trial": 254, "dateTime": 1513024734978, "trialdata": {"rt": -1, "stimulus": "<p id=\"stim\">WINDOW</p>", "key_press": -1, "type": "PRES_VIS", "word": "window", "wordID": 1610, "conditions": [24, 1600, "v", 24000], "trial": 7, "serialpos": 13, "trial_type": "single-stim", "trial_index": 254, "time_elapsed": 1242175, "internal_node_id": "0.0-182.0"}}, {"uniqueid": "MTK1062:3KMS4QQVK3XXQY76G9S7IMMIMU2KF7", "current_trial": 255, "dateTime": 1513024737409, "trialdata": {"rt": -1, "stimulus": "<p id=\"stim\">PLIERS</p>", "key_press": -1, "type": "PRES_VIS", "word": "pliers", "wordID": 1088, "conditions": [24, 1600, "v", 24000], "trial": 7, "serialpos": 14, "trial_type": "single-stim", "trial_index": 255, "time_elapsed": 1244606, "internal_node_id": "0.0-183.0"}}, {"uniqueid": "MTK1062:3KMS4QQVK3XXQY76G9S7IMMIMU2KF7", "current_trial": 256, "dateTime": 1513024740149, "trialdata": {"rt": -1, "stimulus": "<p id=\"stim\">SHELTER</p>", "key_press": -1, "type": "PRES_VIS", "word": "shelter", "wordID": 1281, "conditions": [24, 1600, "v", 24000], "trial": 7, "serialpos": 15, "trial_type": "single-stim", "trial_index": 256, "time_elapsed": 1247346, "internal_node_id": "0.0-184.0"}}, {"uniqueid": "MTK1062:3KMS4QQVK3XXQY76G9S7IMMIMU2KF7", "current_trial": 257, "dateTime": 1513024742701, "trialdata": {"rt": -1, "stimulus": "<p id=\"stim\">BEEF</p>", "key_press": -1, "type": "PRES_VIS", "word": "beef", "wordID": 112, "conditions": [24, 1600, "v", 24000], "trial": 7, "serialpos": 16, "trial_type": "single-stim", "trial_index": 257, "time_elapsed": 1249898, "internal_node_id": "0.0-185.0"}}, {"uniqueid": "MTK1062:3KMS4QQVK3XXQY76G9S7IMMIMU2KF7", "current_trial": 258, "dateTime": 1513024745184, "trialdata": {"rt": -1, "stimulus": "<p id=\"stim\">SISTER</p>", "key_press": -1, "type": "PRES_VIS", "word": "sister", "wordID": 1311, "conditions": [24, 1600, "v", 24000], "trial": 7, "serialpos": 17, "trial_type": "single-stim", "trial_index": 258, "time_elapsed": 1252381, "internal_node_id": "0.0-186.0"}}, {"uniqueid": "MTK1062:3KMS4QQVK3XXQY76G9S7IMMIMU2KF7", "current_trial": 259, "dateTime": 1513024747615, "trialdata": {"rt": -1, "stimulus": "<p id=\"stim\">BOYFRIEND</p>", "key_press": -1, "type": "PRES_VIS", "word": "boyfriend", "wordID": 161, "conditions": [24, 1600, "v", 24000], "trial": 7, "serialpos": 18, "trial_type": "single-stim", "trial_index": 259, "time_elapsed": 1254812, "internal_node_id": "0.0-187.0"}}, {"uniqueid": "MTK1062:3KMS4QQVK3XXQY76G9S7IMMIMU2KF7", "current_trial": 260, "dateTime": 1513024750159, "trialdata": {"rt": -1, "stimulus": "<p id=\"stim\">FLOWER</p>", "key_press": -1, "type": "PRES_VIS", "word": "flower", "wordID": 583, "conditions": [24, 1600, "v", 24000], "trial": 7, "serialpos": 19, "trial_type": "single-stim", "trial_index": 260, "time_elapsed": 1257356, "internal_node_id": "0.0-188.0"}}, {"uniqueid": "MTK1062:3KMS4QQVK3XXQY76G9S7IMMIMU2KF7", "current_trial": 261, "dateTime": 1513024752639, "trialdata": {"rt": -1, "stimulus": "<p id=\"stim\">FRUIT</p>", "key_press": -1, "type": "PRES_VIS", "word": "fruit", "wordID": 609, "conditions": [24, 1600, "v", 24000], "trial": 7, "serialpos": 20, "trial_type": "single-stim", "trial_index": 261, "time_elapsed": 1259836, "internal_node_id": "0.0-189.0"}}, {"uniqueid": "MTK1062:3KMS4QQVK3XXQY76G9S7IMMIMU2KF7", "current_trial": 262, "dateTime": 1513024755383, "trialdata": {"rt": -1, "stimulus": "<p id=\"stim\">STOMACH</p>", "key_press": -1, "type": "PRES_VIS", "word": "stomach", "wordID": 1383, "conditions": [24, 1600, "v", 24000], "trial": 7, "serialpos": 21, "trial_type": "single-stim", "trial_index": 262, "time_elapsed": 1262580, "internal_node_id": "0.0-190.0"}}, {"uniqueid": "MTK1062:3KMS4QQVK3XXQY76G9S7IMMIMU2KF7", "current_trial": 263, "dateTime": 1513024757886, "trialdata": {"rt": -1, "stimulus": "<p id=\"stim\">BARREL</p>", "key_press": -1, "type": "PRES_VIS", "word": "barrel", "wordID": 90, "conditions": [24, 1600, "v", 24000], "trial": 7, "serialpos": 22, "trial_type": "single-stim", "trial_index": 263, "time_elapsed": 1265083, "internal_node_id": "0.0-191.0"}}, {"uniqueid": "MTK1062:3KMS4QQVK3XXQY76G9S7IMMIMU2KF7", "current_trial": 264, "dateTime": 1513024760670, "trialdata": {"rt": -1, "stimulus": "<p id=\"stim\">TROUT</p>", "key_press": -1, "type": "PRES_VIS", "word": "trout", "wordID": 1510, "conditions": [24, 1600, "v", 24000], "trial": 7, "serialpos": 23, "trial_type": "single-stim", "trial_index": 264, "time_elapsed": 1267867, "internal_node_id": "0.0-192.0"}}, {"uniqueid": "MTK1062:3KMS4QQVK3XXQY76G9S7IMMIMU2KF7", "current_trial": 265, "dateTime": 1513024763110, "trialdata": {"rt": -1, "stimulus": "", "key_press": -1, "type": "PRE_RECALL_DELAY", "trial_type": "single-stim", "trial_index": 265, "time_elapsed": 1270307, "internal_node_id": "0.0-193.0-0.0"}}, {"uniqueid": "MTK1062:3KMS4QQVK3XXQY76G9S7IMMIMU2KF7", "current_trial": 266, "dateTime": 1513024763615, "trialdata": {"rt": -1000, "stimulus": "/static/audio/400Hz.wav", "key_press": -1, "type": "PRE_RECALL_ALERT", "trial_type": "single-audio", "trial_index": 266, "time_elapsed": 1270812, "internal_node_id": "0.0-194.0"}}, {"uniqueid": "MTK1062:3KMS4QQVK3XXQY76G9S7IMMIMU2KF7", "current_trial": 267, "dateTime": 1513024823623, "trialdata": {"rt": [6399, 7824, 9756], "recwords": ["truck", "clam", "salmon"], "type": "FREE_RECALL", "conditions": [24, 1600, "v", 24000], "trial": 7, "trial_type": "free-recall", "trial_index": 267, "time_elapsed": 1330817, "internal_node_id": "0.0-195.0-0.0"}}, {"uniqueid": "MTK1062:3KMS4QQVK3XXQY76G9S7IMMIMU2KF7", "current_trial": 268, "dateTime": 1513024900978, "trialdata": {"rt": 75351, "key_press": 74, "type": "INSTRUCTIONS", "trial_type": "text", "trial_index": 268, "time_elapsed": 1408174, "internal_node_id": "0.0-196.0"}}, {"uniqueid": "MTK1062:3KMS4QQVK3XXQY76G9S7IMMIMU2KF7", "current_trial": 269, "dateTime": 1513024914980, "trialdata": {"rt": [3692, 6694, 8564], "responses": ["23", "20", "18"], "num1": [9, 8, 4, 7], "num2": [5, 8, 5, 5], "num3": [9, 4, 9, 9], "type": "DISTRACTOR", "conditions": [24, 800, "v", 12000], "trial": 8, "trial_type": "math-distractor", "trial_index": 269, "time_elapsed": 1422177, "internal_node_id": "0.0-197.0"}}, {"uniqueid": "MTK1062:3KMS4QQVK3XXQY76G9S7IMMIMU2KF7", "current_trial": 270, "dateTime": 1513024917984, "trialdata": {"rt": -1, "stimulus": "<p id=\"stim\">10</p>", "key_press": -1, "trial_type": "single-stim", "trial_index": 270, "time_elapsed": 1425181, "internal_node_id": "0.0-198.0-0.0"}}, {"uniqueid": "MTK1062:3KMS4QQVK3XXQY76G9S7IMMIMU2KF7", "current_trial": 271, "dateTime": 1513024918986, "trialdata": {"rt": -1, "stimulus": "<p id=\"stim\">9</p>", "key_press": -1, "trial_type": "single-stim", "trial_index": 271, "time_elapsed": 1426183, "internal_node_id": "0.0-198.0-1.0"}}, {"uniqueid": "MTK1062:3KMS4QQVK3XXQY76G9S7IMMIMU2KF7", "current_trial": 272, "dateTime": 1513024919989, "trialdata": {"rt": -1, "stimulus": "<p id=\"stim\">8</p>", "key_press": -1, "trial_type": "single-stim", "trial_index": 272, "time_elapsed": 1427186, "internal_node_id": "0.0-198.0-2.0"}}, {"uniqueid": "MTK1062:3KMS4QQVK3XXQY76G9S7IMMIMU2KF7", "current_trial": 273, "dateTime": 1513024920991, "trialdata": {"rt": -1, "stimulus": "<p id=\"stim\">7</p>", "key_press": -1, "trial_type": "single-stim", "trial_index": 273, "time_elapsed": 1428188, "internal_node_id": "0.0-198.0-3.0"}}, {"uniqueid": "MTK1062:3KMS4QQVK3XXQY76G9S7IMMIMU2KF7", "current_trial": 274, "dateTime": 1513024921992, "trialdata": {"rt": -1, "stimulus": "<p id