{"condition": 0, "counterbalance": 1166, "assignmentId": "3EG49X351VJ7R5D2EZ4SEAH7PF3X6H", "workerId": "MTK1263", "hitId": "3BKZLF990Z6NE8O282ZQE99NC5UYQI", "currenttrial": 626, "bonus": 0, "data": [{"uniqueid": "MTK1263:3EG49X351VJ7R5D2EZ4SEAH7PF3X6H", "current_trial": 0, "dateTime": 1513477273510, "trialdata": {"rt": 262205, "key_press": 13, "type": "INSTRUCTIONS", "trial_type": "text", "trial_index": 0, "time_elapsed": 262207, "internal_node_id": "0.0-0.0"}}, {"uniqueid": "MTK1263:3EG49X351VJ7R5D2EZ4SEAH7PF3X6H", "current_trial": 1, "dateTime": 1513477283141, "trialdata": {"rt": 9629, "key_press": 175, "type": "INSTRUCTIONS", "trial_type": "text", "trial_index": 1, "time_elapsed": 271838, "internal_node_id": "0.0-1.0"}}, {"uniqueid": "MTK1263:3EG49X351VJ7R5D2EZ4SEAH7PF3X6H", "current_trial": 2, "dateTime": 1513477515593, "trialdata": {"rt": [232380], "responses": ["ocean"], "type": "AUDIO_TEST", "trial_type": "audio-test", "trial_index": 2, "time_elapsed": 504290, "internal_node_id": "0.0-2.0"}}, {"uniqueid": "MTK1263:3EG49X351VJ7R5D2EZ4SEAH7PF3X6H", "current_trial": 3, "dateTime": 1513477557698, "trialdata": {"rt": [42100], "responses": ["crystal"], "type": "AUDIO_TEST", "trial_type": "audio-test", "trial_index": 3, "time_elapsed": 546395, "internal_node_id": "0.0-3.0"}}, {"uniqueid": "MTK1263:3EG49X351VJ7R5D2EZ4SEAH7PF3X6H", "current_trial": 4, "dateTime": 1513477572203, "trialdata": {"rt": [14500], "responses": ["spice"], "type": "AUDIO_TEST", "trial_type": "audio-test", "trial_index": 4, "time_elapsed": 560900, "internal_node_id": "0.0-4.0"}}, {"uniqueid": "MTK1263:3EG49X351VJ7R5D2EZ4SEAH7PF3X6H", "current_trial": 5, "dateTime": 1513477604984, "trialdata": {"rt": 32006, "responses": "{\"Q0\":\"1:00 am\",\"Q1\":\"8:00 am\",\"Q2\":\"4\"}", "type": "SLEEP_SURVEY", "trial_type": "survey-text", "trial_index": 5, "time_elapsed": 593681, "internal_node_id": "0.0-5.0"}}, {"uniqueid": "MTK1263:3EG49X351VJ7R5D2EZ4SEAH7PF3X6H", "current_trial": 6, "dateTime": 1513477688212, "trialdata": {"rt": 82212, "key_press": 13, "type": "INSTRUCTIONS", "trial_type": "text", "trial_index": 6, "time_elapsed": 676909, "internal_node_id": "0.0-6.0"}}, {"uniqueid": "MTK1263:3EG49X351VJ7R5D2EZ4SEAH7PF3X6H", "current_trial": 7, "dateTime": 1513477724598, "trialdata": {"rt": 35856, "key_press": 13, "type": "INSTRUCTIONS", "trial_type": "text", "trial_index": 7, "time_elapsed": 713295, "internal_node_id": "0.0-7.0"}}, {"uniqueid": "MTK1263:3EG49X351VJ7R5D2EZ4SEAH7PF3X6H", "current_trial": 8, "dateTime": 1513477750413, "trialdata": {"rt": 25303, "key_press": 13, "type": "INSTRUCTIONS", "trial_type": "text", "trial_index": 8, "time_elapsed": 739110, "internal_node_id": "0.0-8.0"}}, {"uniqueid": "MTK1263:3EG49X351VJ7R5D2EZ4SEAH7PF3X6H", "current_trial": 9, "dateTime": 1513477769451, "trialdata": {"rt": [9125, 17912], "responses": ["10", "17"], "num1": [4, 7, 9], "num2": [2, 7, 3], "num3": [4, 3, 8], "type": "DISTRACTOR", "conditions": [18, 1200, "v", 18000], "trial": 0, "trial_type": "math-distractor", "trial_index": 9, "time_elapsed": 758147, "internal_node_id": "0.0-9.0"}}, {"uniqueid": "MTK1263:3EG49X351VJ7R5D2EZ4SEAH7PF3X6H", "current_trial": 10, "dateTime": 1513477772468, "trialdata": {"rt": -1, "stimulus": "<p id=\"stim\">10</p>", "key_press": -1, "trial_type": "single-stim", "trial_index": 10, "time_elapsed": 761164, "internal_node_id": "0.0-10.0-0.0"}}, {"uniqueid": "MTK1263:3EG49X351VJ7R5D2EZ4SEAH7PF3X6H", "current_trial": 11, "dateTime": 1513477773497, "trialdata": {"rt": -1, "stimulus": "<p id=\"stim\">9</p>", "key_press": -1, "trial_type": "single-stim", "trial_index": 11, "time_elapsed": 762194, "internal_node_id": "0.0-10.0-1.0"}}, {"uniqueid": "MTK1263:3EG49X351VJ7R5D2EZ4SEAH7PF3X6H", "current_trial": 12, "dateTime": 1513477774485, "trialdata": {"rt": -1, "stimulus": "<p id=\"stim\">8</p>", "key_press": -1, "trial_type": "single-stim", "trial_index": 12, "time_elapsed": 763181, "internal_node_id": "0.0-10.0-2.0"}}, {"uniqueid": "MTK1263:3EG49X351VJ7R5D2EZ4SEAH7PF3X6H", "current_trial": 13, "dateTime": 1513477775485, "trialdata": {"rt": -1, "stimulus": "<p id=\"stim\">7</p>", "key_press": -1, "trial_type": "single-stim", "trial_index": 13, "time_elapsed": 764181, "internal_node_id": "0.0-10.0-3.0"}}, {"uniqueid": "MTK1263:3EG49X351VJ7R5D2EZ4SEAH7PF3X6H", "current_trial": 14, "dateTime": 1513477776469, "trialdata": {"rt": -1, "stimulus": "<p id=\"stim\">6</p>", "key_press": -1, "trial_type": "single-stim", "trial_index": 14, "time_elapsed": 765165, "internal_node_id": "0.0-10.0-4.0"}}, {"uniqueid": "MTK1263:3EG49X351VJ7R5D2EZ4SEAH7PF3X6H", "current_trial": 15, "dateTime": 1513477777469, "trialdata": {"rt": -1, "stimulus": "<p id=\"stim\">5</p>", "key_press": -1, "trial_type": "single-stim", "trial_index": 15, "time_elapsed": 766165, "internal_node_id": "0.0-10.0-5.0"}}, {"uniqueid": "MTK1263:3EG49X351VJ7R5D2EZ4SEAH7PF3X6H", "current_trial": 16, "dateTime": 1513477778486, "trialdata": {"rt": -1, "stimulus": "<p id=\"stim\">4</p>", "key_press": -1, "trial_type": "single-stim", "trial_index": 16, "time_elapsed": 767183, "internal_node_id": "0.0-10.0-6.0"}}, {"uniqueid": "MTK1263:3EG49X351VJ7R5D2EZ4SEAH7PF3X6H", "current_trial": 17, "dateTime": 1513477779483, "trialdata": {"rt": -1, "stimulus": "<p id=\"stim\">3</p>", "key_press": -1, "trial_type": "single-stim", "trial_index": 17, "time_elapsed": 768180, "internal_node_id": "0.0-10.0-7.0"}}, {"uniqueid": "MTK1263:3EG49X351VJ7R5D2EZ4SEAH7PF3X6H", "current_trial": 18, "dateTime": 1513477780500, "trialdata": {"rt": -1, "stimulus": "<p id=\"stim\">2</p>", "key_press": -1, "trial_type": "single-stim", "trial_index": 18, "time_elapsed": 769197, "internal_node_id": "0.0-10.0-8.0"}}, {"uniqueid": "MTK1263:3EG49X351VJ7R5D2EZ4SEAH7PF3X6H", "current_trial": 19, "dateTime": 1513477781487, "trialdata": {"rt": -1, "stimulus": "<p id=\"stim\">1</p>", "key_press": -1, "trial_type": "single-stim", "trial_index": 19, "time_elapsed": 770184, "internal_node_id": "0.0-10.0-9.0"}}, {"uniqueid": "MTK1263:3EG49X351VJ7R5D2EZ4SEAH7PF3X6H", "current_trial": 20, "dateTime": 1513477783018, "trialdata": {"rt": -1, "stimulus": "<p id=\"stim\">+</p>", "key_press": -1, "type": "FIXATION", "trial_type": "single-stim", "trial_index": 20, "time_elapsed": 771715, "internal_node_id": "0.0-11.0-0.0"}}, {"uniqueid": "MTK1263:3EG49X351VJ7R5D2EZ4SEAH7PF3X6H", "current_trial": 21, "dateTime": 1513477784233, "trialdata": {"rt": -1, "stimulus": "<p id=\"stim\">ASIA</p>", "key_press": -1, "type": "PRES_VIS", "word": "asia", "wordID": 45, "conditions": [18, 1200, "v", 18000], "trial": 0, "serialpos": 0, "trial_type": "single-stim", "trial_index": 21, "time_elapsed": 772929, "internal_node_id": "0.0-12.0"}}, {"uniqueid": "MTK1263:3EG49X351VJ7R5D2EZ4SEAH7PF3X6H", "current_trial": 22, "dateTime": 1513477786273, "trialdata": {"rt": -1, "stimulus": "<p id=\"stim\">ANKLE</p>", "key_press": -1, "type": "PRES_VIS", "word": "ankle", "wordID": 23, "conditions": [18, 1200, "v", 18000], "trial": 0, "serialpos": 1, "trial_type": "single-stim", "trial_index": 22, "time_elapsed": 774970, "internal_node_id": "0.0-13.0"}}, {"uniqueid": "MTK1263:3EG49X351VJ7R5D2EZ4SEAH7PF3X6H", "current_trial": 23, "dateTime": 1513477788459, "trialdata": {"rt": -1, "stimulus": "<p id=\"stim\">GARLIC</p>", "key_press": -1, "type": "PRES_VIS", "word": "garlic", "wordID": 623, "conditions": [18, 1200, "v", 18000], "trial": 0, "serialpos": 2, "trial_type": "single-stim", "trial_index": 23, "time_elapsed": 777156, "internal_node_id": "0.0-14.0"}}, {"uniqueid": "MTK1263:3EG49X351VJ7R5D2EZ4SEAH7PF3X6H", "current_trial": 24, "dateTime": 1513477790670, "trialdata": {"rt": -1, "stimulus": "<p id=\"stim\">TEMPLE</p>", "key_press": -1, "type": "PRES_VIS", "word": "temple", "wordID": 1447, "conditions": [18, 1200, "v", 18000], "trial": 0, "serialpos": 3, "trial_type": "single-stim", "trial_index": 24, "time_elapsed": 779367, "internal_node_id": "0.0-15.0"}}, {"uniqueid": "MTK1263:3EG49X351VJ7R5D2EZ4SEAH7PF3X6H", "current_trial": 25, "dateTime": 1513477793012, "trialdata": {"rt": -1, "stimulus": "<p id=\"stim\">WRENCH</p>", "key_press": -1, "type": "PRES_VIS", "word": "wrench", "wordID": 1624, "conditions": [18, 1200, "v", 18000], "trial": 0, "serialpos": 4, "trial_type": "single-stim", "trial_index": 25, "time_elapsed": 781709, "internal_node_id": "0.0-16.0"}}, {"uniqueid": "MTK1263:3EG49X351VJ7R5D2EZ4SEAH7PF3X6H", "current_trial": 26, "dateTime": 1513477795280, "trialdata": {"rt": -1, "stimulus": "<p id=\"stim\">NIGHTGOWN</p>", "key_press": -1, "type": "PRES_VIS", "word": "nightgown", "wordID": 952, "conditions": [18, 1200, "v", 18000], "trial": 0, "serialpos": 5, "trial_type": "single-stim", "trial_index": 26, "time_elapsed": 783976, "internal_node_id": "0.0-17.0"}}, {"uniqueid": "MTK1263:3EG49X351VJ7R5D2EZ4SEAH7PF3X6H", "current_trial": 27, "dateTime": 1513477797377, "trialdata": {"rt": -1, "stimulus": "<p id=\"stim\">CLAMP</p>", "key_press": -1, "type": "PRES_VIS", "word": "clamp", "wordID": 315, "conditions": [18, 1200, "v", 18000], "trial": 0, "serialpos": 6, "trial_type": "single-stim", "trial_index": 27, "time_elapsed": 786073, "internal_node_id": "0.0-18.0"}}, {"uniqueid": "MTK1263:3EG49X351VJ7R5D2EZ4SEAH7PF3X6H", "current_trial": 28, "dateTime": 1513477799528, "trialdata": {"rt": -1, "stimulus": "<p id=\"stim\">SKETCH</p>", "key_press": -1, "type": "PRES_VIS", "word": "sketch", "wordID": 1314, "conditions": [18, 1200, "v", 18000], "trial": 0, "serialpos": 7, "trial_type": "single-stim", "trial_index": 28, "time_elapsed": 788225, "internal_node_id": "0.0-19.0"}}, {"uniqueid": "MTK1263:3EG49X351VJ7R5D2EZ4SEAH7PF3X6H", "current_trial": 29, "dateTime": 1513477801732, "trialdata": {"rt": -1, "stimulus": "<p id=\"stim\">LOFT</p>", "key_press": -1, "type": "PRES_VIS", "word": "loft", "wordID": 839, "conditions": [18, 1200, "v", 18000], "trial": 0, "serialpos": 8, "trial_type": "single-stim", "trial_index": 29, "time_elapsed": 790428, "internal_node_id": "0.0-20.0"}}, {"uniqueid": "MTK1263:3EG49X351VJ7R5D2EZ4SEAH7PF3X6H", "current_trial": 30, "dateTime": 1513477804110, "trialdata": {"rt": -1, "stimulus": "<p id=\"stim\">PEBBLE</p>", "key_press": -1, "type": "PRES_VIS", "word": "pebble", "wordID": 1034, "conditions": [18, 1200, "v", 18000], "trial": 0, "serialpos": 9, "trial_type": "single-stim", "trial_index": 30, "time_elapsed": 792807, "internal_node_id": "0.0-21.0"}}, {"uniqueid": "MTK1263:3EG49X351VJ7R5D2EZ4SEAH7PF3X6H", "current_trial": 31, "dateTime": 1513477806454, "trialdata": {"rt": -1, "stimulus": "<p id=\"stim\">PIANO</p>", "key_press": -1, "type": "PRES_VIS", "word": "piano", "wordID": 1056, "conditions": [18, 1200, "v", 18000], "trial": 0, "serialpos": 10, "trial_type": "single-stim", "trial_index": 31, "time_elapsed": 795151, "internal_node_id": "0.0-22.0"}}, {"uniqueid": "MTK1263:3EG49X351VJ7R5D2EZ4SEAH7PF3X6H", "current_trial": 32, "dateTime": 1513477808595, "trialdata": {"rt": -1, "stimulus": "<p id=\"stim\">MARSH</p>", "key_press": -1, "type": "PRES_VIS", "word": "marsh", "wordID": 873, "conditions": [18, 1200, "v", 18000], "trial": 0, "serialpos": 11, "trial_type": "single-stim", "trial_index": 32, "time_elapsed": 797292, "internal_node_id": "0.0-23.0"}}, {"uniqueid": "MTK1263:3EG49X351VJ7R5D2EZ4SEAH7PF3X6H", "current_trial": 33, "dateTime": 1513477811006, "trialdata": {"rt": -1, "stimulus": "<p id=\"stim\">RAFT</p>", "key_press": -1, "type": "PRES_VIS", "word": "raft", "wordID": 1158, "conditions": [18, 1200, "v", 18000], "trial": 0, "serialpos": 12, "trial_type": "single-stim", "trial_index": 33, "time_elapsed": 799702, "internal_node_id": "0.0-24.0"}}, {"uniqueid": "MTK1263:3EG49X351VJ7R5D2EZ4SEAH7PF3X6H", "current_trial": 34, "dateTime": 1513477813241, "trialdata": {"rt": -1, "stimulus": "<p id=\"stim\">FLIPPER</p>", "key_press": -1, "type": "PRES_VIS", "word": "flipper", "wordID": 579, "conditions": [18, 1200, "v", 18000], "trial": 0, "serialpos": 13, "trial_type": "single-stim", "trial_index": 34, "time_elapsed": 801938, "internal_node_id": "0.0-25.0"}}, {"uniqueid": "MTK1263:3EG49X351VJ7R5D2EZ4SEAH7PF3X6H", "current_trial": 35, "dateTime": 1513477815446, "trialdata": {"rt": -1, "stimulus": "<p id=\"stim\">CASHIER</p>", "key_press": -1, "type": "PRES_VIS", "word": "cashier", "wordID": 253, "conditions": [18, 1200, "v", 18000], "trial": 0, "serialpos": 14, "trial_type": "single-stim", "trial_index": 35, "time_elapsed": 804143, "internal_node_id": "0.0-26.0"}}, {"uniqueid": "MTK1263:3EG49X351VJ7R5D2EZ4SEAH7PF3X6H", "current_trial": 36, "dateTime": 1513477817744, "trialdata": {"rt": -1, "stimulus": "<p id=\"stim\">SHORTCAKE</p>", "key_press": -1, "type": "PRES_VIS", "word": "shortcake", "wordID": 1291, "conditions": [18, 1200, "v", 18000], "trial": 0, "serialpos": 15, "trial_type": "single-stim", "trial_index": 36, "time_elapsed": 806440, "internal_node_id": "0.0-27.0"}}, {"uniqueid": "MTK1263:3EG49X351VJ7R5D2EZ4SEAH7PF3X6H", "current_trial": 37, "dateTime": 1513477820057, "trialdata": {"rt": -1, "stimulus": "<p id=\"stim\">SODA</p>", "key_press": -1, "type": "PRES_VIS", "word": "soda", "wordID": 1340, "conditions": [18, 1200, "v", 18000], "trial": 0, "serialpos": 16, "trial_type": "single-stim", "trial_index": 37, "time_elapsed": 808754, "internal_node_id": "0.0-28.0"}}, {"uniqueid": "MTK1263:3EG49X351VJ7R5D2EZ4SEAH7PF3X6H", "current_trial": 38, "dateTime": 1513477822324, "trialdata": {"rt": -1, "stimulus": "<p id=\"stim\">CABBAGE</p>", "key_press": -1, "type": "PRES_VIS", "word": "cabbage", "wordID": 209, "conditions": [18, 1200, "v", 18000], "trial": 0, "serialpos": 17, "trial_type": "single-stim", "trial_index": 38, "time_elapsed": 811020, "internal_node_id": "0.0-29.0"}}, {"uniqueid": "MTK1263:3EG49X351VJ7R5D2EZ4SEAH7PF3X6H", "current_trial": 39, "dateTime": 1513477824819, "trialdata": {"rt": -1, "stimulus": "", "key_press": -1, "type": "PRE_RECALL_DELAY", "trial_type": "single-stim", "trial_index": 39, "time_elapsed": 813516, "internal_node_id": "0.0-30.0-0.0"}}, {"uniqueid": "MTK1263:3EG49X351VJ7R5D2EZ4SEAH7PF3X6H", "current_trial": 40, "dateTime": 1513477827413, "trialdata": {"rt": -1000, "stimulus": "/static/audio/400Hz.wav", "key_press": -1, "type": "PRE_RECALL_ALERT", "trial_type": "single-audio", "trial_index": 40, "time_elapsed": 816110, "internal_node_id": "0.0-31.0"}}, {"uniqueid": "MTK1263:3EG49X351VJ7R5D2EZ4SEAH7PF3X6H", "current_trial": 41, "dateTime": 1513477887442, "trialdata": {"rt": [19345, 28669, 33527, 40198, 49330, 51791, 56757], "recwords": ["asia", "ankle", "temple", "wrench", "sketch", "loft", "pebble"], "type": "FREE_RECALL", "conditions": [18, 1200, "v", 18000], "trial": 0, "trial_type": "free-recall", "trial_index": 41, "time_elapsed": 876133, "internal_node_id": "0.0-32.0-0.0"}}, {"uniqueid": "MTK1263:3EG49X351VJ7R5D2EZ4SEAH7PF3X6H", "current_trial": 42, "dateTime": 1513477897908, "trialdata": {"rt": 8454, "key_press": 13, "type": "INSTRUCTIONS", "trial_type": "text", "trial_index": 42, "time_elapsed": 886605, "internal_node_id": "0.0-33.0"}}, {"uniqueid": "MTK1263:3EG49X351VJ7R5D2EZ4SEAH7PF3X6H", "current_trial": 43, "dateTime": 1513477917957, "trialdata": {"rt": [9559], "responses": ["7"], "num1": [1, 9], "num2": [3, 8], "num3": [3, 1], "type": "DISTRACTOR", "conditions": [18, 1200, "a", 18000], "trial": 1, "trial_type": "math-distractor", "trial_index": 43, "time_elapsed": 906654, "internal_node_id": "0.0-34.0"}}, {"uniqueid": "MTK1263:3EG49X351VJ7R5D2EZ4SEAH7PF3X6H", "current_trial": 44, "dateTime": 1513477920988, "trialdata": {"rt": -1, "stimulus": "<p id=\"stim\">10</p>", "key_press": -1, "trial_type": "single-stim", "trial_index": 44, "time_elapsed": 909685, "internal_node_id": "0.0-35.0-0.0"}}, {"uniqueid": "MTK1263:3EG49X351VJ7R5D2EZ4SEAH7PF3X6H", "current_trial": 45, "dateTime": 1513477921991, "trialdata": {"rt": -1, "stimulus": "<p id=\"stim\">9</p>", "key_press": -1, "trial_type": "single-stim", "trial_index": 45, "time_elapsed": 910688, "internal_node_id": "0.0-35.0-1.0"}}, {"uniqueid": "MTK1263:3EG49X351VJ7R5D2EZ4SEAH7PF3X6H", "current_trial": 46, "dateTime": 1513477922978, "trialdata": {"rt": -1, "stimulus": "<p id=\"stim\">8</p>", "key_press": -1, "trial_type": "single-stim", "trial_index": 46, "time_elapsed": 911674, "internal_node_id": "0.0-35.0-2.0"}}, {"uniqueid": "MTK1263:3EG49X351VJ7R5D2EZ4SEAH7PF3X6H", "current_trial": 47, "dateTime": 1513477923978, "trialdata": {"rt": -1, "stimulus": "<p id=\"stim\">7</p>", "key_press": -1, "trial_type": "single-stim", "trial_index": 47, "time_elapsed": 912675, "internal_node_id": "0.0-35.0-3.0"}}, {"uniqueid": "MTK1263:3EG49X351VJ7R5D2EZ4SEAH7PF3X6H", "current_trial": 48, "dateTime": 1513477924978, "trialdata": {"rt": -1, "stimulus": "<p id=\"stim\">6</p>", "key_press": -1, "trial_type": "single-stim", "trial_index": 48, "time_elapsed": 913675, "internal_node_id": "0.0-35.0-4.0"}}, {"uniqueid": "MTK1263:3EG49X351VJ7R5D2EZ4SEAH7PF3X6H", "current_trial": 49, "dateTime": 1513477925993, "trialdata": {"rt": -1, "stimulus": "<p id=\"stim\">5</p>", "key_press": -1, "trial_type": "single-stim", "trial_index": 49, "time_elapsed": 914689, "internal_node_id": "0.0-35.0-5.0"}}, {"uniqueid": "MTK1263:3EG49X351VJ7R5D2EZ4SEAH7PF3X6H", "current_trial": 50, "dateTime": 1513477926996, "trialdata": {"rt": -1, "stimulus": "<p id=\"stim\">4</p>", "key_press": -1, "trial_type": "single-stim", "trial_index": 50, "time_elapsed": 915693, "internal_node_id": "0.0-35.0-6.0"}}, {"uniqueid": "MTK1263:3EG49X351VJ7R5D2EZ4SEAH7PF3X6H", "current_trial": 51, "dateTime": 1513477927995, "trialdata": {"rt": -1, "stimulus": "<p id=\"stim\">3</p>", "key_press": -1, "trial_type": "single-stim", "trial_index": 51, "time_elapsed": 916691, "internal_node_id": "0.0-35.0-7.0"}}, {"uniqueid": "MTK1263:3EG49X351VJ7R5D2EZ4SEAH7PF3X6H", "current_trial": 52, "dateTime": 1513477928987, "trialdata": {"rt": -1, "stimulus": "<p id=\"stim\">2</p>", "key_press": -1, "trial_type": "single-stim", "trial_index": 52, "time_elapsed": 917683, "internal_node_id": "0.0-35.0-8.0"}}, {"uniqueid": "MTK1263:3EG49X351VJ7R5D2EZ4SEAH7PF3X6H", "current_trial": 53, "dateTime": 1513477929985, "trialdata": {"rt": -1, "stimulus": "<p id=\"stim\">1</p>", "key_press": -1, "trial_type": "single-stim", "trial_index": 53, "time_elapsed": 918682, "internal_node_id": "0.0-35.0-9.0"}}, {"uniqueid": "MTK1263:3EG49X351VJ7R5D2EZ4SEAH7PF3X6H", "current_trial": 54, "dateTime": 1513477931495, "trialdata": {"rt": -1, "stimulus": "<p id=\"stim\">+</p>", "key_press": -1, "type": "FIXATION", "trial_type": "single-stim", "trial_index": 54, "time_elapsed": 920191, "internal_node_id": "0.0-36.0-0.0"}}, {"uniqueid": "MTK1263:3EG49X351VJ7R5D2EZ4SEAH7PF3X6H", "current_trial": 55, "dateTime": 1513477933693, "trialdata": {"rt": -1000, "stimulus": "/static/audio/wordpool/POPCORN.wav", "key_press": -1, "type": "PRES_AUD", "word": "popcorn", "wordID": 1103, "conditions": [18, 1200, "a", 18000], "trial": 1, "serialpos": 0, "trial_type": "single-audio", "trial_index": 55, "time_elapsed": 922390, "internal_node_id": "0.0-37.0"}}, {"uniqueid": "MTK1263:3EG49X351VJ7R5D2EZ4SEAH7PF3X6H", "current_trial": 56, "dateTime": 1513477935869, "trialdata": {"rt": -1000, "stimulus": "/static/audio/wordpool/VIRUS.wav", "key_press": -1, "type": "PRES_AUD", "word": "virus", "wordID": 1571, "conditions": [18, 1200, "a", 18000], "trial": 1, "serialpos": 1, "trial_type": "single-audio", "trial_index": 56, "time_elapsed": 924566, "internal_node_id": "0.0-38.0"}}, {"uniqueid": "MTK1263:3EG49X351VJ7R5D2EZ4SEAH7PF3X6H", "current_trial": 57, "dateTime": 1513477937995, "trialdata": {"rt": -1000, "stimulus": "/static/audio/wordpool/GLOBE.wav", "key_press": -1, "type": "PRES_AUD", "word": "globe", "wordID": 640, "conditions": [18, 1200, "a", 18000], "trial": 1, "serialpos": 2, "trial_type": "single-audio", "trial_index": 57, "time_elapsed": 926692, "internal_node_id": "0.0-39.0"}}, {"uniqueid": "MTK1263:3EG49X351VJ7R5D2EZ4SEAH7PF3X6H", "current_trial": 58, "dateTime": 1513477940082, "trialdata": {"rt": -1000, "stimulus": "/static/audio/wordpool/DRINK.wav", "key_press": -1, "type": "PRES_AUD", "word": "drink", "wordID": 497, "conditions": [18, 1200, "a", 18000], "trial": 1, "serialpos": 3, "trial_type": "single-audio", "trial_index": 58, "time_elapsed": 928779, "internal_node_id": "0.0-40.0"}}, {"uniqueid": "MTK1263:3EG49X351VJ7R5D2EZ4SEAH7PF3X6H", "current_trial": 59, "dateTime": 1513477942458, "trialdata": {"rt": -1000, "stimulus": "/static/audio/wordpool/HELMET.wav", "key_press": -1, "type": "PRES_AUD", "word": "helmet", "wordID": 701, "conditions": [18, 1200, "a", 18000], "trial": 1, "serialpos": 4, "trial_type": "single-audio", "trial_index": 59, "time_elapsed": 931154, "internal_node_id": "0.0-41.0"}}, {"uniqueid": "MTK1263:3EG49X351VJ7R5D2EZ4SEAH7PF3X6H", "current_trial": 60, "dateTime": 1513477944722, "trialdata": {"rt": -1000, "stimulus": "/static/audio/wordpool/COD.wav", "key_press": -1, "type": "PRES_AUD", "word": "cod", "wordID": 339, "conditions": [18, 1200, "a", 18000], "trial": 1, "serialpos": 5, "trial_type": "single-audio", "trial_index": 60, "time_elapsed": 933419, "internal_node_id": "0.0-42.0"}}, {"uniqueid": "MTK1263:3EG49X351VJ7R5D2EZ4SEAH7PF3X6H", "current_trial": 61, "dateTime": 1513477947056, "trialdata": {"rt": -1000, "stimulus": "/static/audio/wordpool/CATCHER.wav", "key_press": -1, "type": "PRES_AUD", "word": "catcher", "wordID": 257, "conditions": [18, 1200, "a", 18000], "trial": 1, "serialpos": 6, "trial_type": "single-audio", "trial_index": 61, "time_elapsed": 935753, "internal_node_id": "0.0-43.0"}}, {"uniqueid": "MTK1263:3EG49X351VJ7R5D2EZ4SEAH7PF3X6H", "current_trial": 62, "dateTime": 1513477949363, "trialdata": {"rt": -1000, "stimulus": "/static/audio/wordpool/LAGOON.wav", "key_press": -1, "type": "PRES_AUD", "word": "lagoon", "wordID": 794, "conditions": [18, 1200, "a", 18000], "trial": 1, "serialpos": 7, "trial_type": "single-audio", "trial_index": 62, "time_elapsed": 938060, "internal_node_id": "0.0-44.0"}}, {"uniqueid": "MTK1263:3EG49X351VJ7R5D2EZ4SEAH7PF3X6H", "current_trial": 63, "dateTime": 1513477951501, "trialdata": {"rt": -1000, "stimulus": "/static/audio/wordpool/CELLAR.wav", "key_press": -1, "type": "PRES_AUD", "word": "cellar", "wordID": 266, "conditions": [18, 1200, "a", 18000], "trial": 1, "serialpos": 8, "trial_type": "single-audio", "trial_index": 63, "time_elapsed": 940198, "internal_node_id": "0.0-45.0"}}, {"uniqueid": "MTK1263:3EG49X351VJ7R5D2EZ4SEAH7PF3X6H", "current_trial": 64, "dateTime": 1513477953540, "trialdata": {"rt": -1000, "stimulus": "/static/audio/wordpool/ICING.wav", "key_press": -1, "type": "PRES_AUD", "word": "icing", "wordID": 731, "conditions": [18, 1200, "a", 18000], "trial": 1, "serialpos": 9, "trial_type": "single-audio", "trial_index": 64, "time_elapsed": 942237, "internal_node_id": "0.0-46.0"}}, {"uniqueid": "MTK1263:3EG49X351VJ7R5D2EZ4SEAH7PF3X6H", "current_trial": 65, "dateTime": 1513477955929, "trialdata": {"rt": -1000, "stimulus": "/static/audio/wordpool/FOOT.wav", "key_press": -1, "type": "PRES_AUD", "word": "foot", "wordID": 589, "conditions": [18, 1200, "a", 18000], "trial": 1, "serialpos": 10, "trial_type": "single-audio", "trial_index": 65, "time_elapsed": 944626, "internal_node_id": "0.0-47.0"}}, {"uniqueid": "MTK1263:3EG49X351VJ7R5D2EZ4SEAH7PF3X6H", "current_trial": 66, "dateTime": 1513477958209, "trialdata": {"rt": -1000, "stimulus": "/static/audio/wordpool/PIGMENT.wav", "key_press": -1, "type": "PRES_AUD", "word": "pigment", "wordID": 1065, "conditions": [18, 1200, "a", 18000], "trial": 1, "serialpos": 11, "trial_type": "single-audio", "trial_index": 66, "time_elapsed": 946906, "internal_node_id": "0.0-48.0"}}, {"uniqueid": "MTK1263:3EG49X351VJ7R5D2EZ4SEAH7PF3X6H", "current_trial": 67, "dateTime": 1513477960489, "trialdata": {"rt": -1000, "stimulus": "/static/audio/wordpool/SLUG.wav", "key_press": -1, "type": "PRES_AUD", "word": "slug", "wordID": 1328, "conditions": [18, 1200, "a", 18000], "trial": 1, "serialpos": 12, "trial_type": "single-audio", "trial_index": 67, "time_elapsed": 949186, "internal_node_id": "0.0-49.0"}}, {"uniqueid": "MTK1263:3EG49X351VJ7R5D2EZ4SEAH7PF3X6H", "current_trial": 68, "dateTime": 1513477962614, "trialdata": {"rt": -1000, "stimulus": "/static/audio/wordpool/SUNSET.wav", "key_press": -1, "type": "PRES_AUD", "word": "sunset", "wordID": 1407, "conditions": [18, 1200, "a", 18000], "trial": 1, "serialpos": 13, "trial_type": "single-audio", "trial_index": 68, "time_elapsed": 951311, "internal_node_id": "0.0-50.0"}}, {"uniqueid": "MTK1263:3EG49X351VJ7R5D2EZ4SEAH7PF3X6H", "current_trial": 69, "dateTime": 1513477964745, "trialdata": {"rt": -1000, "stimulus": "/static/audio/wordpool/RECEIPT.wav", "key_press": -1, "type": "PRES_AUD", "word": "receipt", "wordID": 1172, "conditions": [18, 1200, "a", 18000], "trial": 1, "serialpos": 14, "trial_type": "single-audio", "trial_index": 69, "time_elapsed": 953442, "internal_node_id": "0.0-51.0"}}, {"uniqueid": "MTK1263:3EG49X351VJ7R5D2EZ4SEAH7PF3X6H", "current_trial": 70, "dateTime": 1513477966865, "trialdata": {"rt": -1000, "stimulus": "/static/audio/wordpool/POLICE.wav", "key_press": -1, "type": "PRES_AUD", "word": "police", "wordID": 1097, "conditions": [18, 1200, "a", 18000], "trial": 1, "serialpos": 15, "trial_type": "single-audio", "trial_index": 70, "time_elapsed": 955562, "internal_node_id": "0.0-52.0"}}, {"uniqueid": "MTK1263:3EG49X351VJ7R5D2EZ4SEAH7PF3X6H", "current_trial": 71, "dateTime": 1513477969261, "trialdata": {"rt": -1000, "stimulus": "/static/audio/wordpool/SOFTBALL.wav", "key_press": -1, "type": "PRES_AUD", "word": "softball", "wordID": 1342, "conditions": [18, 1200, "a", 18000], "trial": 1, "serialpos": 16, "trial_type": "single-audio", "trial_index": 71, "time_elapsed": 957958, "internal_node_id": "0.0-53.0"}}, {"uniqueid": "MTK1263:3EG49X351VJ7R5D2EZ4SEAH7PF3X6H", "current_trial": 72, "dateTime": 1513477971451, "trialdata": {"rt": -1000, "stimulus": "/static/audio/wordpool/SWAMP.wav", "key_press": -1, "type": "PRES_AUD", "word": "swamp", "wordID": 1415, "conditions": [18, 1200, "a", 18000], "trial": 1, "serialpos": 17, "trial_type": "single-audio", "trial_index": 72, "time_elapsed": 960148, "internal_node_id": "0.0-54.0"}}, {"uniqueid": "MTK1263:3EG49X351VJ7R5D2EZ4SEAH7PF3X6H", "current_trial": 73, "dateTime": 1513477972743, "trialdata": {"rt": -1, "stimulus": "", "key_press": -1, "type": "PRE_RECALL_DELAY", "trial_type": "single-stim", "trial_index": 73, "time_elapsed": 961440, "internal_node_id": "0.0-55.0-0.0"}}, {"uniqueid": "MTK1263:3EG49X351VJ7R5D2EZ4SEAH7PF3X6H", "current_trial": 74, "dateTime": 1513477973266, "trialdata": {"rt": -1000, "stimulus": "/static/audio/400Hz.wav", "key_press": -1, "type": "PRE_RECALL_ALERT", "trial_type": "single-audio", "trial_index": 74, "time_elapsed": 961962, "internal_node_id": "0.0-56.0"}}, {"uniqueid": "MTK1263:3EG49X351VJ7R5D2EZ4SEAH7PF3X6H", "current_trial": 75, "dateTime": 1513478033289, "trialdata": {"rt": [5929, 10233, 14051, 16800, 20765, 22617, 25814, 30979, 35613, 37983, 40027, 43047, 46365, 49707, 57772], "recwords": ["popcorn", "virus", "globe", "dfrink", "helmet", "cod", "catche", "lagoon", "cellar", "icing", "foot", "pigment", "slug", "sunset", "receipt"], "type": "FREE_RECALL", "conditions": [18, 1200, "a", 18000], "trial": 1, "trial_type": "free-recall", "trial_index": 75, "time_elapsed": 1021984, "internal_node_id": "0.0-57.0-0.0"}}, {"uniqueid": "MTK1263:3EG49X351VJ7R5D2EZ4SEAH7PF3X6H", "current_trial": 76, "dateTime": 1513478074273, "trialdata": {"rt": 38964, "key_press": 13, "type": "INSTRUCTIONS", "trial_type": "text", "trial_index": 76, "time_elapsed": 1062964, "internal_node_id": "0.0-58.0"}}, {"uniqueid": "MTK1263:3EG49X351VJ7R5D2EZ4SEAH7PF3X6H", "current_trial": 77, "dateTime": 1513478099295, "trialdata": {"rt": [7053, 13070, 19397], "responses": ["16", "17", "20"], "num1": [2, 7, 9, 2], "num2": [9, 6, 7, 9], "num3": [5, 4, 4, 1], "type": "DISTRACTOR", "conditions": [24, 800, "a", 24000], "trial": 2, "trial_type": "math-distractor", "trial_index": 77, "time_elapsed": 1087992, "internal_node_id": "0.0-59.0"}}, {"uniqueid": "MTK1263:3EG49X351VJ7R5D2EZ4SEAH7PF3X6H", "current_trial": 78, "dateTime": 1513478102334, "trialdata": {"rt": -1, "stimulus": "<p id=\"stim\">10</p>", "key_press": -1, "trial_type": "single-stim", "trial_index": 78, "time_elapsed": 1091031, "internal_node_id": "0.0-60.0-0.0"}}, {"uniqueid": "MTK1263:3EG49X351VJ7R5D2EZ4SEAH7PF3X6H", "current_trial": 79, "dateTime": 1513478103332, "trialdata": {"rt": -1, "stimulus": "<p id=\"stim\">9</p>", "key_press": -1, "trial_type": "single-stim", "trial_index": 79, "time_elapsed": 1092029, "internal_node_id": "0.0-60.0-1.0"}}, {"uniqueid": "MTK1263:3EG49X351VJ7R5D2EZ4SEAH7PF3X6H", "current_trial": 80, "dateTime": 1513478104317, "trialdata": {"rt": -1, "stimulus": "<p id=\"stim\">8</p>", "key_press": -1, "trial_type": "single-stim", "trial_index": 80, "time_elapsed": 1093013, "internal_node_id": "0.0-60.0-2.0"}}, {"uniqueid": "MTK1263:3EG49X351VJ7R5D2EZ4SEAH7PF3X6H", "current_trial": 81, "dateTime": 1513478105314, "trialdata": {"rt": -1, "stimulus": "<p id=\"stim\">7</p>", "key_press": -1, "trial_type": "single-stim", "trial_index": 81, "time_elapsed": 1094011, "internal_node_id": "0.0-60.0-3.0"}}, {"uniqueid": "MTK1263:3EG49X351VJ7R5D2EZ4SEAH7PF3X6H", "current_trial": 82, "dateTime": 1513478106329, "trialdata": {"rt": -1, "stimulus": "<p id=\"stim\">6</p>", "key_press": -1, "trial_type": "single-stim", "trial_index": 82, "time_elapsed": 1095026, "internal_node_id": "0.0-60.0-4.0"}}, {"uniqueid": "MTK1263:3EG49X351VJ7R5D2EZ4SEAH7PF3X6H", "current_trial": 83, "dateTime": 1513478107331, "trialdata": {"rt": -1, "stimulus": "<p id=\"stim\">5</p>", "key_press": -1, "trial_type": "single-stim", "trial_index": 83, "time_elapsed": 1096028, "internal_node_id": "0.0-60.0-5.0"}}, {"uniqueid": "MTK1263:3EG49X351VJ7R5D2EZ4SEAH7PF3X6H", "current_trial": 84, "dateTime": 1513478108322, "trialdata": {"rt": -1, "stimulus": "<p id=\"stim\">4</p>", "key_press": -1, "trial_type": "single-stim", "trial_index": 84, "time_elapsed": 1097019, "internal_node_id": "0.0-60.0-6.0"}}, {"uniqueid": "MTK1263:3EG49X351VJ7R5D2EZ4SEAH7PF3X6H", "current_trial": 85, "dateTime": 1513478109322, "trialdata": {"rt": -1, "stimulus": "<p id=\"stim\">3</p>", "key_press": -1, "trial_type": "single-stim", "trial_index": 85, "time_elapsed": 1098019, "internal_node_id": "0.0-60.0-7.0"}}, {"uniqueid": "MTK1263:3EG49X351VJ7R5D2EZ4SEAH7PF3X6H", "current_trial": 86, "dateTime": 1513478110336, "trialdata": {"rt": -1, "stimulus": "<p id=\"stim\">2</p>", "key_press": -1, "trial_type": "single-stim", "trial_index": 86, "time_elapsed": 1099033, "internal_node_id": "0.0-60.0-8.0"}}, {"uniqueid": "MTK1263:3EG49X351VJ7R5D2EZ4SEAH7PF3X6H", "current_trial": 87, "dateTime": 1513478111337, "trialdata": {"rt": -1, "stimulus": "<p id=\"stim\">1</p>", "key_press": -1, "trial_type": "single-stim", "trial_index": 87, "time_elapsed": 1100034, "internal_node_id": "0.0-60.0-9.0"}}, {"uniqueid": "MTK1263:3EG49X351VJ7R5D2EZ4SEAH7PF3X6H", "current_trial": 88, "dateTime": 1513478112865, "trialdata": {"rt": -1, "stimulus": "<p id=\"stim\">+</p>", "key_press": -1, "type": "FIXATION", "trial_type": "single-stim", "trial_index": 88, "time_elapsed": 1101562, "internal_node_id": "0.0-61.0-0.0"}}, {"uniqueid": "MTK1263:3EG49X351VJ7R5D2EZ4SEAH7PF3X6H", "current_trial": 89, "dateTime": 1513478114794, "trialdata": {"rt": -1000, "stimulus": "/static/audio/wordpool/KNAPSACK.wav", "key_press": -1, "type": "PRES_AUD", "word": "knapsack", "wordID": 782, "conditions": [24, 800, "a", 24000], "trial": 2, "serialpos": 0, "trial_type": "single-audio", "trial_index": 89, "time_elapsed": 1103491, "internal_node_id": "0.0-62.0"}}, {"uniqueid": "MTK1263:3EG49X351VJ7R5D2EZ4SEAH7PF3X6H", "current_trial": 90, "dateTime": 1513478116466, "trialdata": {"rt": -1000, "stimulus": "/static/audio/wordpool/LASER.wav", "key_press": -1, "type": "PRES_AUD", "word": "laser", "wordID": 800, "conditions": [24, 800, "a", 24000], "trial": 2, "serialpos": 1, "trial_type": "single-audio", "trial_index": 90, "time_elapsed": 1105163, "internal_node_id": "0.0-63.0"}}, {"uniqueid": "MTK1263:3EG49X351VJ7R5D2EZ4SEAH7PF3X6H", "current_trial": 91, "dateTime": 1513478118338, "trialdata": {"rt": -1000, "stimulus": "/static/audio/wordpool/SNAIL.wav", "key_press": -1, "type": "PRES_AUD", "word": "snail", "wordID": 1331, "conditions": [24, 800, "a", 24000], "trial": 2, "serialpos": 2, "trial_type": "single-audio", "trial_index": 91, "time_elapsed": 1107034, "internal_node_id": "0.0-64.0"}}, {"uniqueid": "MTK1263:3EG49X351VJ7R5D2EZ4SEAH7PF3X6H", "current_trial": 92, "dateTime": 1513478120199, "trialdata": {"rt": -1000, "stimulus": "/static/audio/wordpool/PISTON.wav", "key_press": -1, "type": "PRES_AUD", "word": "piston", "wordID": 1075, "conditions": [24, 800, "a", 24000], "trial": 2, "serialpos": 3, "trial_type": "single-audio", "trial_index": 92, "time_elapsed": 1108896, "internal_node_id": "0.0-65.0"}}, {"uniqueid": "MTK1263:3EG49X351VJ7R5D2EZ4SEAH7PF3X6H", "current_trial": 93, "dateTime": 1513478121893, "trialdata": {"rt": -1000, "stimulus": "/static/audio/wordpool/VALVE.wav", "key_press": -1, "type": "PRES_AUD", "word": "valve", "wordID": 1545, "conditions": [24, 800, "a", 24000], "trial": 2, "serialpos": 4, "trial_type": "single-audio", "trial_index": 93, "time_elapsed": 1110590, "internal_node_id": "0.0-66.0"}}, {"uniqueid": "MTK1263:3EG49X351VJ7R5D2EZ4SEAH7PF3X6H", "current_trial": 94, "dateTime": 1513478123848, "trialdata": {"rt": 310.64453125009095, "stimulus": "/static/audio/wordpool/OFFICE.wav", "key_press": 175, "type": "PRES_AUD", "word": "office", "wordID": 971, "conditions": [24, 800, "a", 24000], "trial": 2, "serialpos": 5, "trial_type": "single-audio", "trial_index": 94, "time_elapsed": 1112545, "internal_node_id": "0.0-67.0"}}, {"uniqueid": "MTK1263:3EG49X351VJ7R5D2EZ4SEAH7PF3X6H", "current_trial": 95, "dateTime": 1513478125578, "trialdata": {"rt": -1000, "stimulus": "/static/audio/wordpool/CUSTARD.wav", "key_press": -1, "type": "PRES_AUD", "word": "custard", "wordID": 428, "conditions": [24, 800, "a", 24000], "trial": 2, "serialpos": 6, "trial_type": "single-audio", "trial_index": 95, "time_elapsed": 1114274, "internal_node_id": "0.0-68.0"}}, {"uniqueid": "MTK1263:3EG49X351VJ7R5D2EZ4SEAH7PF3X6H", "current_trial": 96, "dateTime": 1513478127468, "trialdata": {"rt": -1000, "stimulus": "/static/audio/wordpool/CASKET.wav", "key_press": -1, "type": "PRES_AUD", "word": "casket", "wordID": 254, "conditions": [24, 800, "a", 24000], "trial": 2, "serialpos": 7, "trial_type": "single-audio", "trial_index": 96, "time_elapsed": 1116165, "internal_node_id": "0.0-69.0"}}, {"uniqueid": "MTK1263:3EG49X351VJ7R5D2EZ4SEAH7PF3X6H", "current_trial": 97, "dateTime": 1513478129268, "trialdata": {"rt": -1000, "stimulus": "/static/audio/wordpool/LIPSTICK.wav", "key_press": -1, "type": "PRES_AUD", "word": "lipstick", "wordID": 828, "conditions": [24, 800, "a", 24000], "trial": 2, "serialpos": 8, "trial_type": "single-audio", "trial_index": 97, "time_elapsed": 1117964, "internal_node_id": "0.0-70.0"}}, {"uniqueid": "MTK1263:3EG49X351VJ7R5D2EZ4SEAH7PF3X6H", "current_trial": 98, "dateTime": 1513478131102, "trialdata": {"rt": -1000, "stimulus": "/static/audio/wordpool/COUCH.wav", "key_press": -1, "type": "PRES_AUD", "word": "couch", "wordID": 385, "conditions": [24, 800, "a", 24000], "trial": 2, "serialpos": 9, "trial_type": "single-audio", "trial_index": 98, "time_elapsed": 1119799, "internal_node_id": "0.0-71.0"}}, {"uniqueid": "MTK1263:3EG49X351VJ7R5D2EZ4SEAH7PF3X6H", "current_trial": 99, "dateTime": 1513478133110, "trialdata": {"rt": -1000, "stimulus": "/static/audio/wordpool/DASHBOARD.wav", "key_press": -1, "type": "PRES_AUD", "word": "dashboard", "wordID": 440, "conditions": [24, 800, "a", 24000], "trial": 2, "serialpos": 10, "trial_type": "single-audio", "trial_index": 99, "time_elapsed": 1121806, "internal_node_id": "0.0-72.0"}}, {"uniqueid": "MTK1263:3EG49X351VJ7R5D2EZ4SEAH7PF3X6H", "current_trial": 100, "dateTime": 1513478134987, "trialdata": {"rt": -1000, "stimulus": "/static/audio/wordpool/TOMBSTONE.wav", "key_press": -1, "type": "PRES_AUD", "word": "tombstone", "wordID": 1477, "conditions": [24, 800, "a", 24000], "trial": 2, "serialpos": 11, "trial_type": "single-audio", "trial_index": 100, "time_elapsed": 1123684, "internal_node_id": "0.0-73.0"}}, {"uniqueid": "MTK1263:3EG49X351VJ7R5D2EZ4SEAH7PF3X6H", "current_trial": 101, "dateTime": 1513478136687, "trialdata": {"rt": -1000, "stimulus": "/static/audio/wordpool/ULCER.wav", "key_press": -1, "type": "PRES_AUD", "word": "ulcer", "wordID": 1532, "conditions": [24, 800, "a", 24000], "trial": 2, "serialpos": 12, "trial_type": "single-audio", "trial_index": 101, "time_elapsed": 1125384, "internal_node_id": "0.0-74.0"}}, {"uniqueid": "MTK1263:3EG49X351VJ7R5D2EZ4SEAH7PF3X6H", "current_trial": 102, "dateTime": 1513478138603, "trialdata": {"rt": -1000, "stimulus": "/static/audio/wordpool/MARROW.wav", "key_press": -1, "type": "PRES_AUD", "word": "marrow", "wordID": 871, "conditions": [24, 800, "a", 24000], "trial": 2, "serialpos": 13, "trial_type": "single-audio", "trial_index": 102, "time_elapsed": 1127300, "internal_node_id": "0.0-75.0"}}, {"uniqueid": "MTK1263:3EG49X351VJ7R5D2EZ4SEAH7PF3X6H", "current_trial": 103, "dateTime": 1513478140565, "trialdata": {"rt": -1000, "stimulus": "/static/audio/wordpool/RUG.wav", "key_press": -1, "type": "PRES_AUD", "word": "rug", "wordID": 1214, "conditions": [24, 800, "a", 24000], "trial": 2, "serialpos": 14, "trial_type": "single-audio", "trial_index": 103, "time_elapsed": 1129262, "internal_node_id": "0.0-76.0"}}, {"uniqueid": "MTK1263:3EG49X351VJ7R5D2EZ4SEAH7PF3X6H", "current_trial": 104, "dateTime": 1513478142279, "trialdata": {"rt": -1000, "stimulus": "/static/audio/wordpool/SPOON.wav", "key_press": -1, "type": "PRES_AUD", "word": "spoon", "wordID": 1356, "conditions": [24, 800, "a", 24000], "trial": 2, "serialpos": 15, "trial_type": "single-audio", "trial_index": 104, "time_elapsed": 1130975, "internal_node_id": "0.0-77.0"}}, {"uniqueid": "MTK1263:3EG49X351VJ7R5D2EZ4SEAH7PF3X6H", "current_trial": 105, "dateTime": 1513478144182, "trialdata": {"rt": -1000, "stimulus": "/static/audio/wordpool/CLAM.wav", "key_press": -1, "type": "PRES_AUD", "word": "clam", "wordID": 314, "conditions": [24, 800, "a", 24000], "trial": 2, "serialpos": 16, "trial_type": "single-audio", "trial_index": 105, "time_elapsed": 1132879, "internal_node_id": "0.0-78.0"}}, {"uniqueid": "MTK1263:3EG49X351VJ7R5D2EZ4SEAH7PF3X6H", "current_trial": 106, "dateTime": 1513478146111, "trialdata": {"rt": -1000, "stimulus": "/static/audio/wordpool/CRAB.wav", "key_press": -1, "type": "PRES_AUD", "word": "crab", "wordID": 396, "conditions": [24, 800, "a", 24000], "trial": 2, "serialpos": 17, "trial_type": "single-audio", "trial_index": 106, "time_elapsed": 1134808, "internal_node_id": "0.0-79.0"}}, {"uniqueid": "MTK1263:3EG49X351VJ7R5D2EZ4SEAH7PF3X6H", "current_trial": 107, "dateTime": 1513478147748, "trialdata": {"rt": -1000, "stimulus": "/static/audio/wordpool/TORTOISE.wav", "key_press": -1, "type": "PRES_AUD", "word": "tortoise", "wordID": 1485, "conditions": [24, 800, "a", 24000], "trial": 2, "serialpos": 18, "trial_type": "single-audio", "trial_index": 107, "time_elapsed": 1136445, "internal_node_id": "0.0-80.0"}}, {"uniqueid": "MTK1263:3EG49X351VJ7R5D2EZ4SEAH7PF3X6H", "current_trial": 108, "dateTime": 1513478149551, "trialdata": {"rt": -1000, "stimulus": "/static/audio/wordpool/VALLEY.wav", "key_press": -1, "type": "PRES_AUD", "word": "valley", "wordID": 1544, "conditions": [24, 800, "a", 24000], "trial": 2, "serialpos": 19, "trial_type": "single-audio", "trial_index": 108, "time_elapsed": 1138248, "internal_node_id": "0.0-81.0"}}, {"uniqueid": "MTK1263:3EG49X351VJ7R5D2EZ4SEAH7PF3X6H", "current_trial": 109, "dateTime": 1513478151290, "trialdata": {"rt": -1000, "stimulus": "/static/audio/wordpool/TUTU.wav", "key_press": -1, "type": "PRES_AUD", "word": "tutu", "wordID": 1523, "conditions": [24, 800, "a", 24000], "trial": 2, "serialpos": 20, "trial_type": "single-audio", "trial_index": 109, "time_elapsed": 1139987, "internal_node_id": "0.0-82.0"}}, {"uniqueid": "MTK1263:3EG49X351VJ7R5D2EZ4SEAH7PF3X6H", "current_trial": 110, "dateTime": 1513478153121, "trialdata": {"rt": -1000, "stimulus": "/static/audio/wordpool/NECKLACE.wav", "key_press": -1, "type": "PRES_AUD", "word": "necklace", "wordID": 939, "conditions": [24, 800, "a", 24000], "trial": 2, "serialpos": 21, "trial_type": "single-audio", "trial_index": 110, "time_elapsed": 1141818, "internal_node_id": "0.0-83.0"}}, {"uniqueid": "MTK1263:3EG49X351VJ7R5D2EZ4SEAH7PF3X6H", "current_trial": 111, "dateTime": 1513478154956, "trialdata": {"rt": -1000, "stimulus": "/static/audio/wordpool/SMOG.wav", "key_press": -1, "type": "PRES_AUD", "word": "smog", "wordID": 1329, "conditions": [24, 800, "a", 24000], "trial": 2, "serialpos": 22, "trial_type": "single-audio", "trial_index": 111, "time_elapsed": 1143653, "internal_node_id": "0.0-84.0"}}, {"uniqueid": "MTK1263:3EG49X351VJ7R5D2EZ4SEAH7PF3X6H", "current_trial": 112, "dateTime": 1513478156913, "trialdata": {"rt": -1000, "stimulus": "/static/audio/wordpool/CANYON.wav", "key_press": -1, "type": "PRES_AUD", "word": "canyon", "wordID": 234, "conditions": [24, 800, "a", 24000], "trial": 2, "serialpos": 23, "trial_type": "single-audio", "trial_index": 112, "time_elapsed": 1145609, "internal_node_id": "0.0-85.0"}}, {"uniqueid": "MTK1263:3EG49X351VJ7R5D2EZ4SEAH7PF3X6H", "current_trial": 113, "dateTime": 1513478158158, "trialdata": {"rt": -1, "stimulus": "", "key_press": -1, "type": "PRE_RECALL_DELAY", "trial_type": "single-stim", "trial_index": 113, "time_elapsed": 1146854, "internal_node_id": "0.0-86.0-0.0"}}, {"uniqueid": "MTK1263:3EG49X351VJ7R5D2EZ4SEAH7PF3X6H", "current_trial": 114, "dateTime": 1513478158681, "trialdata": {"rt": -1000, "stimulus": "/static/audio/400Hz.wav", "key_press": -1, "type": "PRE_RECALL_ALERT", "trial_type": "single-audio", "trial_index": 114, "time_elapsed": 1147377, "internal_node_id": "0.0-87.0"}}, {"uniqueid": "MTK1263:3EG49X351VJ7R5D2EZ4SEAH7PF3X6H", "current_trial": 115, "dateTime": 1513478218699, "trialdata": {"rt": [6047, 9532, 11948, 14110, 16707, 19661, 21841, 24198, 30272, 33096, 38069, 44658, 49374], "recwords": ["knapsack", "laser", "snail", "val", "office", "couch", "clam", "crab", "clustered", "casket", "lipstick", "dashboard", "tombstone"], "type": "FREE_RECALL", "conditions": [24, 800, "a", 24000], "trial": 2, "trial_type": "free-recall", "trial_index": 115, "time_elapsed": 1207394, "internal_node_id": "0.0-88.0-0.0"}}, {"uniqueid": "MTK1263:3EG49X351VJ7R5D2EZ4SEAH7PF3X6H", "current_trial": 116, "dateTime": 1513478231868, "trialdata": {"rt": 11156, "key_press": 13, "type": "INSTRUCTIONS", "trial_type": "text", "trial_index": 116, "time_elapsed": 1220565, "internal_node_id": "0.0-89.0"}}, {"uniqueid": "MTK1263:3EG49X351VJ7R5D2EZ4SEAH7PF3X6H", "current_trial": 117, "dateTime": 1513478257906, "trialdata": {"rt": [9554, 13950, 21885], "responses": ["17", "11", "17"], "num1": [6, 1, 2, 5], "num2": [8, 5, 7, 3], "num3": [3, 5, 8, 9], "type": "DISTRACTOR", "conditions": [24, 1600, "a", 24000], "trial": 3, "trial_type": "math-distractor", "trial_index": 117, "time_elapsed": 1246603, "internal_node_id": "0.0-90.0"}}, {"uniqueid": "MTK1263:3EG49X351VJ7R5D2EZ4SEAH7PF3X6H", "current_trial": 118, "dateTime": 1513478260935, "trialdata": {"rt": -1, "stimulus": "<p id=\"stim\">10</p>", "key_press": -1, "trial_type": "single-stim", "trial_index": 118, "time_elapsed": 1249631, "internal_node_id": "0.0-91.0-0.0"}}, {"uniqueid": "MTK1263:3EG49X351VJ7R5D2EZ4SEAH7PF3X6H", "current_trial": 119, "dateTime": 1513478261936, "trialdata": {"rt": -1, "stimulus": "<p id=\"stim\">9</p>", "key_press": -1, "trial_type": "single-stim", "trial_index": 119, "time_elapsed": 1250633, "internal_node_id": "0.0-91.0-1.0"}}, {"uniqueid": "MTK1263:3EG49X351VJ7R5D2EZ4SEAH7PF3X6H", "current_trial": 120, "dateTime": 1513478262943, "trialdata": {"rt": -1, "stimulus": "<p id=\"stim\">8</p>", "key_press": -1, "trial_type": "single-stim", "trial_index": 120, "time_elapsed": 1251640, "internal_node_id": "0.0-91.0-2.0"}}, {"uniqueid": "MTK1263:3EG49X351VJ7R5D2EZ4SEAH7PF3X6H", "current_trial": 121, "dateTime": 1513478263927, "trialdata": {"rt": -1, "stimulus": "<p id=\"stim\">7</p>", "key_press": -1, "trial_type": "single-stim", "trial_index": 121, "time_elapsed": 1252624, "internal_node_id": "0.0-91.0-3.0"}}, {"uniqueid": "MTK1263:3EG49X351VJ7R5D2EZ4SEAH7PF3X6H", "current_trial": 122, "dateTime": 1513478264942, "trialdata": {"rt": -1, "stimulus": "<p id=\"stim\">6</p>", "key_press": -1, "trial_type": "single-stim", "trial_index": 122, "time_elapsed": 1253639, "internal_node_id": "0.0-91.0-4.0"}}, {"uniqueid": "MTK1263:3EG49X351VJ7R5D2EZ4SEAH7PF3X6H", "current_trial": 123, "dateTime": 1513478265943, "trialdata": {"rt": -1, "stimulus": "<p id=\"stim\">5</p>", "key_press": -1, "trial_type": "single-stim", "trial_index": 123, "time_elapsed": 1254639, "internal_node_id": "0.0-91.0-5.0"}}, {"uniqueid": "MTK1263:3EG49X351VJ7R5D2EZ4SEAH7PF3X6H", "current_trial": 124, "dateTime": 1513478266926, "trialdata": {"rt": -1, "stimulus": "<p id=\"stim\">4</p>", "key_press": -1, "trial_type": "single-stim", "trial_index": 124, "time_elapsed": 1255623, "internal_node_id": "0.0-91.0-6.0"}}, {"uniqueid": "MTK1263:3EG49X351VJ7R5D2EZ4SEAH7PF3X6H", "current_trial": 125, "dateTime": 1513478267941, "trialdata": {"rt": -1, "stimulus": "<p id=\"stim\">3</p>", "key_press": -1, "trial_type": "single-stim", "trial_index": 125, "time_elapsed": 1256638, "internal_node_id": "0.0-91.0-7.0"}}, {"uniqueid": "MTK1263:3EG49X351VJ7R5D2EZ4SEAH7PF3X6H", "current_trial": 126, "dateTime": 1513478268942, "trialdata": {"rt": -1, "stimulus": "<p id=\"stim\">2</p>", "key_press": -1, "trial_type": "single-stim", "trial_index": 126, "time_elapsed": 1257639, "internal_node_id": "0.0-91.0-8.0"}}, {"uniqueid": "MTK1263:3EG49X351VJ7R5D2EZ4SEAH7PF3X6H", "current_trial": 127, "dateTime": 1513478269943, "trialdata": {"rt": -1, "stimulus": "<p id=\"stim\">1</p>", "key_press": -1, "trial_type": "single-stim", "trial_index": 127, "time_elapsed": 1258640, "internal_node_id": "0.0-91.0-9.0"}}, {"uniqueid": "MTK1263:3EG49X351VJ7R5D2EZ4SEAH7PF3X6H", "current_trial": 128, "dateTime": 1513478271459, "trialdata": {"rt": -1, "stimulus": "<p id=\"stim\">+</p>", "key_press": -1, "type": "FIXATION", "trial_type": "single-stim", "trial_index": 128, "time_elapsed": 1260156, "internal_node_id": "0.0-92.0-0.0"}}, {"uniqueid": "MTK1263:3EG49X351VJ7R5D2EZ4SEAH7PF3X6H", "current_trial": 129, "dateTime": 1513478274254, "trialdata": {"rt": -1000, "stimulus": "/static/audio/wordpool/SUPPER.wav", "key_press": -1, "type": "PRES_AUD", "word": "supper", "wordID": 1410, "conditions": [24, 1600, "a", 24000], "trial": 3, "serialpos": 0, "trial_type": "single-audio", "trial_index": 129, "time_elapsed": 1262950, "internal_node_id": "0.0-93.0"}}, {"uniqueid": "MTK1263:3EG49X351VJ7R5D2EZ4SEAH7PF3X6H", "current_trial": 130, "dateTime": 1513478276966, "trialdata": {"rt": -1000, "stimulus": "/static/audio/wordpool/AIRPORT.wav", "key_press": -1, "type": "PRES_AUD", "word": "airport", "wordID": 12, "conditions": [24, 1600, "a", 24000], "trial": 3, "serialpos": 1, "trial_type": "single-audio", "trial_index": 130, "time_elapsed": 1265663, "internal_node_id": "0.0-94.0"}}, {"uniqueid": "MTK1263:3EG49X351VJ7R5D2EZ4SEAH7PF3X6H", "current_trial": 131, "dateTime": 1513478279604, "trialdata": {"rt": -1000, "stimulus": "/static/audio/wordpool/OUTFIT.wav", "key_press": -1, "type": "PRES_AUD", "word": "outfit", "wordID": 987, "conditions": [24, 1600, "a", 24000], "trial": 3, "serialpos": 2, "trial_type": "single-audio", "trial_index": 131, "time_elapsed": 1268300, "internal_node_id": "0.0-95.0"}}, {"uniqueid": "MTK1263:3EG49X351VJ7R5D2EZ4SEAH7PF3X6H", "current_trial": 132, "dateTime": 1513478282133, "trialdata": {"rt": -1000, "stimulus": "/static/audio/wordpool/CROWN.wav", "key_press": -1, "type": "PRES_AUD", "word": "crown", "wordID": 414, "conditions": [24, 1600, "a", 24000], "trial": 3, "serialpos": 3, "trial_type": "single-audio", "trial_index": 132, "time_elapsed": 1270830, "internal_node_id": "0.0-96.0"}}, {"uniqueid": "MTK1263:3EG49X351VJ7R5D2EZ4SEAH7PF3X6H", "current_trial": 133, "dateTime": 1513478284688, "trialdata": {"rt": -1000, "stimulus": "/static/audio/wordpool/PAPER.wav", "key_press": -1, "type": "PRES_AUD", "word": "paper", "wordID": 1010, "conditions": [24, 1600, "a", 24000], "trial": 3, "serialpos": 4, "trial_type": "single-audio", "trial_index": 133, "time_elapsed": 1273385, "internal_node_id": "0.0-97.0"}}, {"uniqueid": "MTK1263:3EG49X351VJ7R5D2EZ4SEAH7PF3X6H", "current_trial": 134, "dateTime": 1513478287304, "trialdata": {"rt": -1000, "stimulus": "/static/audio/wordpool/HANDBAG.wav", "key_press": -1, "type": "PRES_AUD", "word": "handbag", "wordID": 683, "conditions": [24, 1600, "a", 24000], "trial": 3, "serialpos": 5, "trial_type": "single-audio", "trial_index": 134, "time_elapsed": 1276001, "internal_node_id": "0.0-98.0"}}, {"uniqueid": "MTK1263:3EG49X351VJ7R5D2EZ4SEAH7PF3X6H", "current_trial": 135, "dateTime": 1513478289967, "trialdata": {"rt": -1000, "stimulus": "/static/audio/wordpool/BANQUET.wav", "key_press": -1, "type": "PRES_AUD", "word": "banquet", "wordID": 85, "conditions": [24, 1600, "a", 24000], "trial": 3, "serialpos": 6, "trial_type": "single-audio", "trial_index": 135, "time_elapsed": 1278664, "internal_node_id": "0.0-99.0"}}, {"uniqueid": "MTK1263:3EG49X351VJ7R5D2EZ4SEAH7PF3X6H", "current_trial": 136, "dateTime": 1513478292700, "trialdata": {"rt": -1000, "stimulus": "/static/audio/wordpool/GARDEN.wav", "key_press": -1, "type": "PRES_AUD", "word": "garden", "wordID": 622, "conditions": [24, 1600, "a", 24000], "trial": 3, "serialpos": 7, "trial_type": "single-audio", "trial_index": 136, "time_elapsed": 1281397, "internal_node_id": "0.0-100.0"}}, {"uniqueid": "MTK1263:3EG49X351VJ7R5D2EZ4SEAH7PF3X6H", "current_trial": 137, "dateTime": 1513478295456, "trialdata": {"rt": -1000, "stimulus": "/static/audio/wordpool/SHRUB.wav", "key_press": -1, "type": "PRES_AUD", "word": "shrub", "wordID": 1298, "conditions": [24, 1600, "a", 24000], "trial": 3, "serialpos": 8, "trial_type": "single-audio", "trial_index": 137, "time_elapsed": 1284153, "internal_node_id": "0.0-101.0"}}, {"uniqueid": "MTK1263:3EG49X351VJ7R5D2EZ4SEAH7PF3X6H", "current_trial": 138, "dateTime": 1513478298112, "trialdata": {"rt": -1000, "stimulus": "/static/audio/wordpool/CHAUFFEUR.wav", "key_press": -1, "type": "PRES_AUD", "word": "chauffeur", "wordID": 282, "conditions": [24, 1600, "a", 24000], "trial": 3, "serialpos": 9, "trial_type": "single-audio", "trial_index": 138, "time_elapsed": 1286808, "internal_node_id": "0.0-102.0"}}, {"uniqueid": "MTK1263:3EG49X351VJ7R5D2EZ4SEAH7PF3X6H", "current_trial": 139, "dateTime": 1513478300845, "trialdata": {"rt": -1000, "stimulus": "/static/audio/wordpool/FEMALE.wav", "key_press": -1, "type": "PRES_AUD", "word": "female", "wordID": 558, "conditions": [24, 1600, "a", 24000], "trial": 3, "serialpos": 10, "trial_type": "single-audio", "trial_index": 139, "time_elapsed": 1289542, "internal_node_id": "0.0-103.0"}}, {"uniqueid": "MTK1263:3EG49X351VJ7R5D2EZ4SEAH7PF3X6H", "current_trial": 140, "dateTime": 1513478303482, "trialdata": {"rt": -1000, "stimulus": "/static/audio/wordpool/PADDING.wav", "key_press": -1, "type": "PRES_AUD", "word": "padding", "wordID": 998, "conditions": [24, 1600, "a", 24000], "trial": 3, "serialpos": 11, "trial_type": "single-audio", "trial_index": 140, "time_elapsed": 1292178, "internal_node_id": "0.0-104.0"}}, {"uniqueid": "MTK1263:3EG49X351VJ7R5D2EZ4SEAH7PF3X6H", "current_trial": 141, "dateTime": 1513478306279, "trialdata": {"rt": -1000, "stimulus": "/static/audio/wordpool/COUNTRY.wav", "key_press": -1, "type": "PRES_AUD", "word": "country", "wordID": 387, "conditions": [24, 1600, "a", 24000], "trial": 3, "serialpos": 12, "trial_type": "single-audio", "trial_index": 141, "time_elapsed": 1294976, "internal_node_id": "0.0-105.0"}}, {"uniqueid": "MTK1263:3EG49X351VJ7R5D2EZ4SEAH7PF3X6H", "current_trial": 142, "dateTime": 1513478308771, "trialdata": {"rt": -1000, "stimulus": "/static/audio/wordpool/COFFEE.wav", "key_press": -1, "type": "PRES_AUD", "word": "coffee", "wordID": 340, "conditions": [24, 1600, "a", 24000], "trial": 3, "serialpos": 13, "trial_type": "single-audio", "trial_index": 142, "time_elapsed": 1297467, "internal_node_id": "0.0-106.0"}}, {"uniqueid": "MTK1263:3EG49X351VJ7R5D2EZ4SEAH7PF3X6H", "current_trial": 143, "dateTime": 1513478311401, "trialdata": {"rt": -1000, "stimulus": "/static/audio/wordpool/LETTUCE.wav", "key_press": -1, "type": "PRES_AUD", "word": "lettuce", "wordID": 813, "conditions": [24, 1600, "a", 24000], "trial": 3, "serialpos": 14, "trial_type": "single-audio", "trial_index": 143, "time_elapsed": 1300098, "internal_node_id": "0.0-107.0"}}, {"uniqueid": "MTK1263:3EG49X351VJ7R5D2EZ4SEAH7PF3X6H", "current_trial": 144, "dateTime": 1513478313964, "trialdata": {"rt": -1000, "stimulus": "/static/audio/wordpool/BUG.wav", "key_press": -1, "type": "PRES_AUD", "word": "bug", "wordID": 186, "conditions": [24, 1600, "a", 24000], "trial": 3, "serialpos": 15, "trial_type": "single-audio", "trial_index": 144, "time_elapsed": 1302661, "internal_node_id": "0.0-108.0"}}, {"uniqueid": "MTK1263:3EG49X351VJ7R5D2EZ4SEAH7PF3X6H", "current_trial": 145, "dateTime": 1513478316697, "trialdata": {"rt": -1000, "stimulus": "/static/audio/wordpool/FRANCE.wav", "key_press": -1, "type": "PRES_AUD", "word": "france", "wordID": 600, "conditions": [24, 1600, "a", 24000], "trial": 3, "serialpos": 16, "trial_type": "single-audio", "trial_index": 145, "time_elapsed": 1305394, "internal_node_id": "0.0-109.0"}}, {"uniqueid": "MTK1263:3EG49X351VJ7R5D2EZ4SEAH7PF3X6H", "current_trial": 146, "dateTime": 1513478319237, "trialdata": {"rt": -1000, "stimulus": "/static/audio/wordpool/HAMPER.wav", "key_press": -1, "type": "PRES_AUD", "word": "hamper", "wordID": 681, "conditions": [24, 1600, "a", 24000], "trial": 3, "serialpos": 17, "trial_type": "single-audio", "trial_index": 146, "time_elapsed": 1307934, "internal_node_id": "0.0-110.0"}}, {"uniqueid": "MTK1263:3EG49X351VJ7R5D2EZ4SEAH7PF3X6H", "current_trial": 147, "dateTime": 1513478321835, "trialdata": {"rt": -1000, "stimulus": "/static/audio/wordpool/TRENCH.wav", "key_press": -1, "type": "PRES_AUD", "word": "trench", "wordID": 1502, "conditions": [24, 1600, "a", 24000], "trial": 3, "serialpos": 18, "trial_type": "single-audio", "trial_index": 147, "time_elapsed": 1310531, "internal_node_id": "0.0-111.0"}}, {"uniqueid": "MTK1263:3EG49X351VJ7R5D2EZ4SEAH7PF3X6H", "current_trial": 148, "dateTime": 1513478324374, "trialdata": {"rt": -1000, "stimulus": "/static/audio/wordpool/WORLD.wav", "key_press": -1, "type": "PRES_AUD", "word": "world", "wordID": 1621, "conditions": [24, 1600, "a", 24000], "trial": 3, "serialpos": 19, "trial_type": "single-audio", "trial_index": 148, "time_elapsed": 1313071, "internal_node_id": "0.0-112.0"}}, {"uniqueid": "MTK1263:3EG49X351VJ7R5D2EZ4SEAH7PF3X6H", "current_trial": 149, "dateTime": 1513478326912, "trialdata": {"rt": -1000, "stimulus": "/static/audio/wordpool/THIEF.wav", "key_press": -1, "type": "PRES_AUD", "word": "thief", "wordID": 1455, "conditions": [24, 1600, "a", 24000], "trial": 3, "serialpos": 20, "trial_type": "single-audio", "trial_index": 149, "time_elapsed": 1315609, "internal_node_id": "0.0-113.0"}}, {"uniqueid": "MTK1263:3EG49X351VJ7R5D2EZ4SEAH7PF3X6H", "current_trial": 150, "dateTime": 1513478329420, "trialdata": {"rt": -1000, "stimulus": "/static/audio/wordpool/BRIEFCASE.wav", "key_press": -1, "type": "PRES_AUD", "word": "briefcase", "wordID": 174, "conditions": [24, 1600, "a", 24000], "trial": 3, "serialpos": 21, "trial_type": "single-audio", "trial_index": 150, "time_elapsed": 1318117, "internal_node_id": "0.0-114.0"}}, {"uniqueid": "MTK1263:3EG49X351VJ7R5D2EZ4SEAH7PF3X6H", "current_trial": 151, "dateTime": 1513478331931, "trialdata": {"rt": -1000, "stimulus": "/static/audio/wordpool/SUITCASE.wav", "key_press": -1, "type": "PRES_AUD", "word": "suitcase", "wordID": 1402, "conditions": [24, 1600, "a", 24000], "trial": 3, "serialpos": 22, "trial_type": "single-audio", "trial_index": 151, "time_elapsed": 1320627, "internal_node_id": "0.0-115.0"}}, {"uniqueid": "MTK1263:3EG49X351VJ7R5D2EZ4SEAH7PF3X6H", "current_trial": 152, "dateTime": 1513478334670, "trialdata": {"rt": -1000, "stimulus": "/static/audio/wordpool/FRECKLE.wav", "key_press": -1, "type": "PRES_AUD", "word": "freckle", "wordID": 601, "conditions": [24, 1600, "a", 24000], "trial": 3, "serialpos": 23, "trial_type": "single-audio", "trial_index": 152, "time_elapsed": 1323366, "internal_node_id": "0.0-116.0"}}, {"uniqueid": "MTK1263:3EG49X351VJ7R5D2EZ4SEAH7PF3X6H", "current_trial": 153, "dateTime": 1513478335932, "trialdata": {"rt": -1, "stimulus": "", "key_press": -1, "type": "PRE_RECALL_DELAY", "trial_type": "single-stim", "trial_index": 153, "time_elapsed": 1324629, "internal_node_id": "0.0-117.0-0.0"}}, {"uniqueid": "MTK1263:3EG49X351VJ7R5D2EZ4SEAH7PF3X6H", "current_trial": 154, "dateTime": 1513478336462, "trialdata": {"rt": -1000, "stimulus": "/static/audio/400Hz.wav", "key_press": -1, "type": "PRE_RECALL_ALERT", "trial_type": "single-audio", "trial_index": 154, "time_elapsed": 1325159, "internal_node_id": "0.0-118.0"}}, {"uniqueid": "MTK1263:3EG49X351VJ7R5D2EZ4SEAH7PF3X6H", "current_trial": 155, "dateTime": 1513478396473, "trialdata": {"rt": [6662, 9485, 13776, 16214, 19295, 22841, 29547, 33151, 36424, 45720, 49107, 56877], "recwords": ["supper", "airport", "outfit", "crown", "paper", "handbag", "banquet", "garden", "shrub", "lettuce", "france", "briefcase"], "type": "FREE_RECALL", "conditions": [24, 1600, "a", 24000], "trial": 3, "trial_type": "free-recall", "trial_index": 155, "time_elapsed": 1385166, "internal_node_id": "0.0-119.0-0.0"}}, {"uniqueid": "MTK1263:3EG49X351VJ7R5D2EZ4SEAH7PF3X6H", "current_trial": 156, "dateTime": 1513478413685, "trialdata": {"rt": 15203, "key_press": 13, "type": "INSTRUCTIONS", "trial_type": "text", "trial_index": 156, "time_elapsed": 1402382, "internal_node_id": "0.0-120.0"}}, {"uniqueid": "MTK1263:3EG49X351VJ7R5D2EZ4SEAH7PF3X6H", "current_trial": 157, "dateTime": 1513478427714, "trialdata": {"rt": [5108, 11284], "responses": ["19", "21"], "num1": [5, 7, 3], "num2": [5, 8, 6], "num3": [9, 6, 6], "type": "DISTRACTOR", "conditions": [12, 800, "a", 12000], "trial": 4, "trial_type": "math-distractor", "trial_index": 157, "time_elapsed": 1416411, "internal_node_id": "0.0-121.0"}}, {"uniqueid": "MTK1263:3EG49X351VJ7R5D2EZ4SEAH7PF3X6H", "current_trial": 158, "dateTime": 1513478430751, "trialdata": {"rt": -1, "stimulus": "<p id=\"stim\">10</p>", "key_press": -1, "trial_type": "single-stim", "trial_index": 158, "time_elapsed": 1419448, "internal_node_id": "0.0-122.0-0.0"}}, {"uniqueid": "MTK1263:3EG49X351VJ7R5D2EZ4SEAH7PF3X6H", "current_trial": 159, "dateTime": 1513478431762, "trialdata": {"rt": -1, "stimulus": "<p id=\"stim\">9</p>", "key_press": -1, "trial_type": "single-stim", "trial_index": 159, "time_elapsed": 1420459, "internal_node_id": "0.0-122.0-1.0"}}, {"uniqueid": "MTK1263:3EG49X351VJ7R5D2EZ4SEAH7PF3X6H", "current_trial": 160, "dateTime": 1513478432738, "trialdata": {"rt": -1, "stimulus": "<p id=\"stim\">8</p>", "key_press": -1, "trial_type": "single-stim", "trial_index": 160, "time_elapsed": 1421435, "internal_node_id": "0.0-122.0-2.0"}}, {"uniqueid": "MTK1263:3EG49X351VJ7R5D2EZ4SEAH7PF3X6H", "current_trial": 161, "dateTime": 1513478433754, "trialdata": {"rt": -1, "stimulus": "<p id=\"stim\">7</p>", "key_press": -1, "trial_type": "single-stim", "trial_index": 161, "time_elapsed": 1422451, "internal_node_id": "0.0-122.0-3.0"}}, {"uniqueid": "MTK1263:3EG49X351VJ7R5D2EZ4SEAH7PF3X6H", "current_trial": 162, "dateTime": 1513478434742, "trialdata": {"rt": -1, "stimulus": "<p id=\"stim\">6</p>", "key_press": -1, "trial_type": "single-stim", "trial_index": 162, "time_elapsed": 1423439, "internal_node_id": "0.0-122.0-4.0"}}, {"uniqueid": "MTK1263:3EG49X351VJ7R5D2EZ4SEAH7PF3X6H", "current_trial": 163, "dateTime": 1513478435736, "trialdata": {"rt": -1, "stimulus": "<p id=\"stim\">5</p>", "key_press": -1, "trial_type": "single-stim", "trial_index": 163, "time_elapsed": 1424433, "internal_node_id": "0.0-122.0-5.0"}}, {"uniqueid": "MTK1263:3EG49X351VJ7R5D2EZ4SEAH7PF3X6H", "current_trial": 164, "dateTime": 1513478436764, "trialdata": {"rt": -1, "stimulus": "<p id=\"stim\">4</p>", "key_press": -1, "trial_type": "single-stim", "trial_index": 164, "time_elapsed": 1425460, "internal_node_id": "0.0-122.0-6.0"}}, {"uniqueid": "MTK1263:3EG49X351VJ7R5D2EZ4SEAH7PF3X6H", "current_trial": 165, "dateTime": 1513478437741, "trialdata": {"rt": -1, "stimulus": "<p id=\"stim\">3</p>", "key_press": -1, "trial_type": "single-stim", "trial_index": 165, "time_elapsed": 1426438, "internal_node_id": "0.0-122.0-7.0"}}, {"uniqueid": "MTK1263:3EG49X351VJ7R5D2EZ4SEAH7PF3X6H", "current_trial": 166, "dateTime": 1513478438762, "trialdata": {"rt": -1, "stimulus": "<p id=\"stim\">2</p>", "key_press": -1, "trial_type": "single-stim", "trial_index": 166, "time_elapsed": 1427458, "internal_node_id": "0.0-122.0-8.0"}}, {"uniqueid": "MTK1263:3EG49X351VJ7R5D2EZ4SEAH7PF3X6H", "current_trial": 167, "dateTime": 1513478439751, "trialdata": {"rt": -1, "stimulus": "<p id=\"stim\">1</p>", "key_press": -1, "trial_type": "single-stim", "trial_index": 167, "time_elapsed": 1428447, "internal_node_id": "0.0-122.0-9.0"}}, {"uniqueid": "MTK1263:3EG49X351VJ7R5D2EZ4SEAH7PF3X6H", "current_trial": 168, "dateTime": 1513478441264, "trialdata": {"rt": -1, "stimulus": "<p id=\"stim\">+</p>", "key_press": -1, "type": "FIXATION", "trial_type": "single-stim", "trial_index": 168, "time_elapsed": 1429961, "internal_node_id": "0.0-123.0-0.0"}}, {"uniqueid": "MTK1263:3EG49X351VJ7R5D2EZ4SEAH7PF3X6H", "current_trial": 169, "dateTime": 1513478442917, "trialdata": {"rt": -1000, "stimulus": "/static/audio/wordpool/BRANDY.wav", "key_press": -1, "type": "PRES_AUD", "word": "brandy", "wordID": 168, "conditions": [12, 800, "a", 12000], "trial": 4, "serialpos": 0, "trial_type": "single-audio", "trial_index": 169, "time_elapsed": 1431614, "internal_node_id": "0.0-124.0"}}, {"uniqueid": "MTK1263:3EG49X351VJ7R5D2EZ4SEAH7PF3X6H", "current_trial": 170, "dateTime": 1513478444551, "trialdata": {"rt": -1000, "stimulus": "/static/audio/wordpool/MARKER.wav", "key_press": -1, "type": "PRES_AUD", "word": "marker", "wordID": 869, "conditions": [12, 800, "a", 12000], "trial": 4, "serialpos": 1, "trial_type": "single-audio", "trial_index": 170, "time_elapsed": 1433247, "internal_node_id": "0.0-125.0"}}, {"uniqueid": "MTK1263:3EG49X351VJ7R5D2EZ4SEAH7PF3X6H", "current_trial": 171, "dateTime": 1513478446553, "trialdata": {"rt": -1000, "stimulus": "/static/audio/wordpool/FIREPLACE.wav", "key_press": -1, "type": "PRES_AUD", "word": "fireplace", "wordID": 569, "conditions": [12, 800, "a", 12000], "trial": 4, "serialpos": 2, "trial_type": "single-audio", "trial_index": 171, "time_elapsed": 1435250, "internal_node_id": "0.0-126.0"}}, {"uniqueid": "MTK1263:3EG49X351VJ7R5D2EZ4SEAH7PF3X6H", "current_trial": 172, "dateTime": 1513478448345, "trialdata": {"rt": -1000, "stimulus": "/static/audio/wordpool/PLAID.wav", "key_press": -1, "type": "PRES_AUD", "word": "plaid", "wordID": 1079, "conditions": [12, 800, "a", 12000], "trial": 4, "serialpos": 3, "trial_type": "single-audio", "trial_index": 172, "time_elapsed": 1437042, "internal_node_id": "0.0-127.0"}}, {"uniqueid": "MTK1263:3EG49X351VJ7R5D2EZ4SEAH7PF3X6H", "current_trial": 173, "dateTime": 1513478450350, "trialdata": {"rt": -1000, "stimulus": "/static/audio/wordpool/BANJO.wav", "key_press": -1, "type": "PRES_AUD", "word": "banjo", "wordID": 81, "conditions": [12, 800, "a", 12000], "trial": 4, "serialpos": 4, "trial_type": "single-audio", "trial_index": 173, "time_elapsed": 1439047, "internal_node_id": "0.0-128.0"}}, {"uniqueid": "MTK1263:3EG49X351VJ7R5D2EZ4SEAH7PF3X6H", "current_trial": 174, "dateTime": 1513478452039, "trialdata": {"rt": -1000, "stimulus": "/static/audio/wordpool/BANK.wav", "key_press": -1, "type": "PRES_AUD", "word": "bank", "wordID": 82, "conditions": [12, 800, "a", 12000], "trial": 4, "serialpos": 5, "trial_type": "single-audio", "trial_index": 174, "time_elapsed": 1440735, "internal_node_id": "0.0-129.0"}}, {"uniqueid": "MTK1263:3EG49X351VJ7R5D2EZ4SEAH7PF3X6H", "current_trial": 175, "dateTime": 1513478453935, "trialdata": {"rt": -1000, "stimulus": "/static/audio/wordpool/BANKER.wav", "key_press": -1, "type": "PRES_AUD", "word": "banker", "wordID": 83, "conditions": [12, 800, "a", 12000], "trial": 4, "serialpos": 6, "trial_type": "single-audio", "trial_index": 175, "time_elapsed": 1442631, "internal_node_id": "0.0-130.0"}}, {"uniqueid": "MTK1263:3EG49X351VJ7R5D2EZ4SEAH7PF3X6H", "current_trial": 176, "dateTime": 1513478455633, "trialdata": {"rt": -1000, "stimulus": "/static/audio/wordpool/GUITAR.wav", "key_press": -1, "type": "PRES_AUD", "word": "guitar", "wordID": 669, "conditions": [12, 800, "a", 12000], "trial": 4, "serialpos": 7, "trial_type": "single-audio", "trial_index": 176, "time_elapsed": 1444330, "internal_node_id": "0.0-131.0"}}, {"uniqueid": "MTK1263:3EG49X351VJ7R5D2EZ4SEAH7PF3X6H", "current_trial": 177, "dateTime": 1513478457511, "trialdata": {"rt": -1000, "stimulus": "/static/audio/wordpool/BEEF.wav", "key_press": -1, "type": "PRES_AUD", "word": "beef", "wordID": 112, "conditions": [12, 800, "a", 12000], "trial": 4, "serialpos": 8, "trial_type": "single-audio", "trial_index": 177, "time_elapsed": 1446208, "internal_node_id": "0.0-132.0"}}, {"uniqueid": "MTK1263:3EG49X351VJ7R5D2EZ4SEAH7PF3X6H", "current_trial": 178, "dateTime": 1513478459123, "trialdata": {"rt": -1000, "stimulus": "/static/audio/wordpool/STAMP.wav", "key_press": -1, "type": "PRES_AUD", "word": "stamp", "wordID": 1369, "conditions": [12, 800, "a", 12000], "trial": 4, "serialpos": 9, "trial_type": "single-audio", "trial_index": 178, "time_elapsed": 1447820, "internal_node_id": "0.0-133.0"}}, {"uniqueid": "MTK1263:3EG49X351VJ7R5D2EZ4SEAH7PF3X6H", "current_trial": 179, "dateTime": 1513478460838, "trialdata": {"rt": -1000, "stimulus": "/static/audio/wordpool/WARDROBE.wav", "key_press": -1, "type": "PRES_AUD", "word": "wardrobe", "wordID": 1586, "conditions": [12, 800, "a", 12000], "trial": 4, "serialpos": 10, "trial_type": "single-audio", "trial_index": 179, "time_elapsed": 1449535, "internal_node_id": "0.0-134.0"}}, {"uniqueid": "MTK1263:3EG49X351VJ7R5D2EZ4SEAH7PF3X6H", "current_trial": 180, "dateTime": 1513478462796, "trialdata": {"rt": -1000, "stimulus": "/static/audio/wordpool/SNACK.wav", "key_press": -1, "type": "PRES_AUD", "word": "snack", "wordID": 1330, "conditions": [12, 800, "a", 12000], "trial": 4, "serialpos": 11, "trial_type": "single-audio", "trial_index": 180, "time_elapsed": 1451492, "internal_node_id": "0.0-135.0"}}, {"uniqueid": "MTK1263:3EG49X351VJ7R5D2EZ4SEAH7PF3X6H", "current_trial": 181, "dateTime": 1513478464150, "trialdata": {"rt": -1, "stimulus": "", "key_press": -1, "type": "PRE_RECALL_DELAY", "trial_type": "single-stim", "trial_index": 181, "time_elapsed": 1452846, "internal_node_id": "0.0-136.0-0.0"}}, {"uniqueid": "MTK1263:3EG49X351VJ7R5D2EZ4SEAH7PF3X6H", "current_trial": 182, "dateTime": 1513478464667, "trialdata": {"rt": -1000, "stimulus": "/static/audio/400Hz.wav", "key_press": -1, "type": "PRE_RECALL_ALERT", "trial_type": "single-audio", "trial_index": 182, "time_elapsed": 1453363, "internal_node_id": "0.0-137.0"}}, {"uniqueid": "MTK1263:3EG49X351VJ7R5D2EZ4SEAH7PF3X6H", "current_trial": 183, "dateTime": 1513478524691, "trialdata": {"rt": [10714, 13637, 18130, 20147, 26844, 30319, 33602, 40611, 45329, 47898, 53225, 56651], "recwords": ["brandy", "marker", "fireplace", "flag", "bank", "banker", "banjo", "guitar", "beef", "stamp", "wardrobe", "snack"], "type": "FREE_RECALL", "conditions": [12, 800, "a", 12000], "trial": 4, "trial_type": "free-recall", "trial_index": 183, "time_elapsed": 1513385, "internal_node_id": "0.0-138.0-0.0"}}, {"uniqueid": "MTK1263:3EG49X351VJ7R5D2EZ4SEAH7PF3X6H", "current_trial": 184, "dateTime": 1513478530755, "trialdata": {"rt": 4059, "key_press": 13, "type": "INSTRUCTIONS", "trial_type": "text", "trial_index": 184, "time_elapsed": 1519452, "internal_node_id": "0.0-139.0"}}, {"uniqueid": "MTK1263:3EG49X351VJ7R5D2EZ4SEAH7PF3X6H", "current_trial": 185, "dateTime": 1513478556795, "trialdata": {"rt": [4136, 6699, 8691, 15703, 17893, 21782], "responses": ["18", "10", "5", "14", "6", "13"], "num1": [8, 2, 1, 5, 3, 5, 5], "num2": [1, 5, 2, 3, 2, 2, 4], "num3": [9, 3, 2, 6, 1, 6, 8], "type": "DISTRACTOR", "conditions": [12, 1600, "a", 24000], "trial": 5, "trial_type": "math-distractor", "trial_index": 185, "time_elapsed": 1545492, "internal_node_id": "0.0-140.0"}}, {"uniqueid": "MTK1263:3EG49X351VJ7R5D2EZ4SEAH7PF3X6H", "current_trial": 186, "dateTime": 1513478559824, "trialdata": {"rt": -1, "stimulus": "<p id=\"stim\">10</p>", "key_press": -1, "trial_type": "single-stim", "trial_index": 186, "time_elapsed": 1548520, "internal_node_id": "0.0-141.0-0.0"}}, {"uniqueid": "MTK1263:3EG49X351VJ7R5D2EZ4SEAH7PF3X6H", "current_trial": 187, "dateTime": 1513478560824, "trialdata": {"rt": -1, "stimulus": "<p id=\"stim\">9</p>", "key_press": -1, "trial_type": "single-stim", "trial_index": 187, "time_elapsed": 1549521, "internal_node_id": "0.0-141.0-1.0"}}, {"uniqueid": "MTK1263:3EG49X351VJ7R5D2EZ4SEAH7PF3X6H", "current_trial": 188, "dateTime": 1513478561822, "trialdata": {"rt": -1, "stimulus": "<p id=\"stim\">8</p>", "key_press": -1, "trial_type": "single-stim", "trial_index": 188, "time_elapsed": 1550519, "internal_node_id": "0.0-141.0-2.0"}}, {"uniqueid": "MTK1263:3EG49X351VJ7R5D2EZ4SEAH7PF3X6H", "current_trial": 189, "dateTime": 1513478562811, "trialdata": {"rt": -1, "stimulus": "<p id=\"stim\">7</p>", "key_press": -1, "trial_type": "single-stim", "trial_index": 189, "time_elapsed": 1551508, "internal_node_id": "0.0-141.0-3.0"}}, {"uniqueid": "MTK1263:3EG49X351VJ7R5D2EZ4SEAH7PF3X6H", "current_trial": 190, "dateTime": 1513478563820, "trialdata": {"rt": -1, "stimulus": "<p id=\"stim\">6</p>", "key_press": -1, "trial_type": "single-stim", "trial_index": 190, "time_elapsed": 1552517, "internal_node_id": "0.0-141.0-4.0"}}, {"uniqueid": "MTK1263:3EG49X351VJ7R5D2EZ4SEAH7PF3X6H", "current_trial": 191, "dateTime": 1513478564810, "trialdata": {"rt": -1, "stimulus": "<p id=\"stim\">5</p>", "key_press": -1, "trial_type": "single-stim", "trial_index": 191, "time_elapsed": 1553506, "internal_node_id": "0.0-141.0-5.0"}}, {"uniqueid": "MTK1263:3EG49X351VJ7R5D2EZ4SEAH7PF3X6H", "current_trial": 192, "dateTime": 1513478565823, "trialdata": {"rt": -1, "stimulus": "<p id=\"stim\">4</p>", "key_press": -1, "trial_type": "single-stim", "trial_index": 192, "time_elapsed": 1554519, "internal_node_id": "0.0-141.0-6.0"}}, {"uniqueid": "MTK1263:3EG49X351VJ7R5D2EZ4SEAH7PF3X6H", "current_trial": 193, "dateTime": 1513478566812, "trialdata": {"rt": -1, "stimulus": "<p id=\"stim\">3</p>", "key_press": -1, "trial_type": "single-stim", "trial_index": 193, "time_elapsed": 1555508, "internal_node_id": "0.0-141.0-7.0"}}, {"uniqueid": "MTK1263:3EG49X351VJ7R5D2EZ4SEAH7PF3X6H", "current_trial": 194, "dateTime": 1513478567813, "trialdata": {"rt": -1, "stimulus": "<p id=\"stim\">2</p>", "key_press": -1, "trial_type": "single-stim", "trial_index": 194, "time_elapsed": 1556509, "internal_node_id": "0.0-141.0-8.0"}}, {"uniqueid": "MTK1263:3EG49X351VJ7R5D2EZ4SEAH7PF3X6H", "current_trial": 195, "dateTime": 1513478568827, "trialdata": {"rt": -1, "stimulus": "<p id=\"stim\">1</p>", "key_press": -1, "trial_type": "single-stim", "trial_index": 195, "time_elapsed": 1557524, "internal_node_id": "0.0-141.0-9.0"}}, {"uniqueid": "MTK1263:3EG49X351VJ7R5D2EZ4SEAH7PF3X6H", "current_trial": 196, "dateTime": 1513478570329, "trialdata": {"rt": -1, "stimulus": "<p id=\"stim\">+</p>", "key_press": -1, "type": "FIXATION", "trial_type": "single-stim", "trial_index": 196, "time_elapsed": 1559025, "internal_node_id": "0.0-142.0-0.0"}}, {"uniqueid": "MTK1263:3EG49X351VJ7R5D2EZ4SEAH7PF3X6H", "current_trial": 197, "dateTime": 1513478573010, "trialdata": {"rt": -1000, "stimulus": "/static/audio/wordpool/HEART.wav", "key_press": -1, "type": "PRES_AUD", "word": "heart", "wordID": 696, "conditions": [12, 1600, "a", 24000], "trial": 5, "serialpos": 0, "trial_type": "single-audio", "trial_index": 197, "time_elapsed": 1561706, "internal_node_id": "0.0-143.0"}}, {"uniqueid": "MTK1263:3EG49X351VJ7R5D2EZ4SEAH7PF3X6H", "current_trial": 198, "dateTime": 1513478575431, "trialdata": {"rt": -1000, "stimulus": "/static/audio/wordpool/VENUS.wav", "key_press": -1, "type": "PRES_AUD", "word": "venus", "wordID": 1556, "conditions": [12, 1600, "a", 24000], "trial": 5, "serialpos": 1, "trial_type": "single-audio", "trial_index": 198, "time_elapsed": 1564127, "internal_node_id": "0.0-144.0"}}, {"uniqueid": "MTK1263:3EG49X351VJ7R5D2EZ4SEAH7PF3X6H", "current_trial": 199, "dateTime": 1513478577944, "trialdata": {"rt": -1000, "stimulus": "/static/audio/wordpool/PLUTO.wav", "key_press": -1, "type": "PRES_AUD", "word": "pluto", "wordID": 1091, "conditions": [12, 1600, "a", 24000], "trial": 5, "serialpos": 2, "trial_type": "single-audio", "trial_index": 199, "time_elapsed": 1566641, "internal_node_id": "0.0-145.0"}}, {"uniqueid": "MTK1263:3EG49X351VJ7R5D2EZ4SEAH7PF3X6H", "current_trial": 200, "dateTime": 1513478580390, "trialdata": {"rt": -1000, "stimulus": "/static/audio/wordpool/SIDEWALK.wav", "key_press": -1, "type": "PRES_AUD", "word": "sidewalk", "wordID": 1302, "conditions": [12, 1600, "a", 24000], "trial": 5, "serialpos": 3, "trial_type": "single-audio", "trial_index": 200, "time_elapsed": 1569087, "internal_node_id": "0.0-146.0"}}, {"uniqueid": "MTK1263:3EG49X351VJ7R5D2EZ4SEAH7PF3X6H", "current_trial": 201, "dateTime": 1513478582916, "trialdata": {"rt": -1000, "stimulus": "/static/audio/wordpool/TILE.wav", "key_press": -1, "type": "PRES_AUD", "word": "tile", "wordID": 1467, "conditions": [12, 1600, "a", 24000], "trial": 5, "serialpos": 4, "trial_type": "single-audio", "trial_index": 201, "time_elapsed": 1571613, "internal_node_id": "0.0-147.0"}}, {"uniqueid": "MTK1263:3EG49X351VJ7R5D2EZ4SEAH7PF3X6H", "current_trial": 202, "dateTime": 1513478585672, "trialdata": {"rt": -1000, "stimulus": "/static/audio/wordpool/BUNNY.wav", "key_press": -1, "type": "PRES_AUD", "word": "bunny", "wordID": 197, "conditions": [12, 1600, "a", 24000], "trial": 5, "serialpos": 5, "trial_type": "single-audio", "trial_index": 202, "time_elapsed": 1574368, "internal_node_id": "0.0-148.0"}}, {"uniqueid": "MTK1263:3EG49X351VJ7R5D2EZ4SEAH7PF3X6H", "current_trial": 203, "dateTime": 1513478588178, "trialdata": {"rt": -1000, "stimulus": "/static/audio/wordpool/CHIPMUNK.wav", "key_press": -1, "type": "PRES_AUD", "word": "chipmunk", "wordID": 303, "conditions": [12, 1600, "a", 24000], "trial": 5, "serialpos": 6, "trial_type": "single-audio", "trial_index": 203, "time_elapsed": 1576875, "internal_node_id": "0.0-149.0"}}, {"uniqueid": "MTK1263:3EG49X351VJ7R5D2EZ4SEAH7PF3X6H", "current_trial": 204, "dateTime": 1513478590841, "trialdata": {"rt": -1000, "stimulus": "/static/audio/wordpool/BIKE.wav", "key_press": -1, "type": "PRES_AUD", "word": "bike", "wordID": 124, "conditions": [12, 1600, "a", 24000], "trial": 5, "serialpos": 7, "trial_type": "single-audio", "trial_index": 204, "time_elapsed": 1579538, "internal_node_id": "0.0-150.0"}}, {"uniqueid": "MTK1263:3EG49X351VJ7R5D2EZ4SEAH7PF3X6H", "current_trial": 205, "dateTime": 1513478593397, "trialdata": {"rt": -1000, "stimulus": "/static/audio/wordpool/FRIEND.wav", "key_press": -1, "type": "PRES_AUD", "word": "friend", "wordID": 605, "conditions": [12, 1600, "a", 24000], "trial": 5, "serialpos": 8, "trial_type": "single-audio", "trial_index": 205, "time_elapsed": 1582094, "internal_node_id": "0.0-151.0"}}, {"uniqueid": "MTK1263:3EG49X351VJ7R5D2EZ4SEAH7PF3X6H", "current_trial": 206, "dateTime": 1513478595884, "trialdata": {"rt": -1000, "stimulus": "/static/audio/wordpool/SCRIBBLE.wav", "key_press": -1, "type": "PRES_AUD", "word": "scribble", "wordID": 1255, "conditions": [12, 1600, "a", 24000], "trial": 5, "serialpos": 9, "trial_type": "single-audio", "trial_index": 206, "time_elapsed": 1584581, "internal_node_id": "0.0-152.0"}}, {"uniqueid": "MTK1263:3EG49X351VJ7R5D2EZ4SEAH7PF3X6H", "current_trial": 207, "dateTime": 1513478598660, "trialdata": {"rt": -1000, "stimulus": "/static/audio/wordpool/DIVER.wav", "key_press": -1, "type": "PRES_AUD", "word": "diver", "wordID": 475, "conditions": [12, 1600, "a", 24000], "trial": 5, "serialpos": 10, "trial_type": "single-audio", "trial_index": 207, "time_elapsed": 1587357, "internal_node_id": "0.0-153.0"}}, {"uniqueid": "MTK1263:3EG49X351VJ7R5D2EZ4SEAH7PF3X6H", "current_trial": 208, "dateTime": 1513478601153, "trialdata": {"rt": -1000, "stimulus": "/static/audio/wordpool/BRICK.wav", "key_press": -1, "type": "PRES_AUD", "word": "brick", "wordID": 171, "conditions": [12, 1600, "a", 24000], "trial": 5, "serialpos": 11, "trial_type": "single-audio", "trial_index": 208, "time_elapsed": 1589850, "internal_node_id": "0.0-154.0"}}, {"uniqueid": "MTK1263:3EG49X351VJ7R5D2EZ4SEAH7PF3X6H", "current_trial": 209, "dateTime": 1513478602536, "trialdata": {"rt": -1, "stimulus": "", "key_press": -1, "type": "PRE_RECALL_DELAY", "trial_type": "single-stim", "trial_index": 209, "time_elapsed": 1591233, "internal_node_id": "0.0-155.0-0.0"}}, {"uniqueid": "MTK1263:3EG49X351VJ7R5D2EZ4SEAH7PF3X6H", "current_trial": 210, "dateTime": 1513478603063, "trialdata": {"rt": -1000, "stimulus": "/static/audio/400Hz.wav", "key_press": -1, "type": "PRE_RECALL_ALERT", "trial_type": "single-audio", "trial_index": 210, "time_elapsed": 1591760, "internal_node_id": "0.0-156.0"}}, {"uniqueid": "MTK1263:3EG49X351VJ7R5D2EZ4SEAH7PF3X6H", "current_trial": 211, "dateTime": 1513478663077, "trialdata": {"rt": [9809, 12515, 17256, 22540, 24462, 27334, 31952, 34462, 37309, 43251, 46193, 49312], "recwords": ["heart", "venus", "pluto", "sidewalk", "tile", "bunny", "chipmunk", "bike", "friend", "scribble", "diver", "brick"], "type": "FREE_RECALL", "conditions": [12, 1600, "a", 24000], "trial": 5, "trial_type": "free-recall", "trial_index": 211, "time_elapsed": 1651770, "internal_node_id": "0.0-157.0-0.0"}}, {"uniqueid": "MTK1263:3EG49X351VJ7R5D2EZ4SEAH7PF3X6H", "current_trial": 212, "dateTime": 1513478666334, "trialdata": {"rt": 1249, "key_press": 13, "type": "INSTRUCTIONS", "trial_type": "text", "trial_index": 212, "time_elapsed": 1655031, "internal_node_id": "0.0-158.0"}}, {"uniqueid": "MTK1263:3EG49X351VJ7R5D2EZ4SEAH7PF3X6H", "current_trial": 213, "dateTime": 1513478692345, "trialdata": {"rt": [6948, 17000, 20626], "responses": ["19", "14", "17"], "num1": [7, 3, 8, 1], "num2": [9, 8, 1, 6], "num3": [3, 3, 8, 6], "type": "DISTRACTOR", "conditions": [24, 1600, "v", 24000], "trial": 6, "trial_type": "math-distractor", "trial_index": 213, "time_elapsed": 1681042, "internal_node_id": "0.0-159.0"}}, {"uniqueid": "MTK1263:3EG49X351VJ7R5D2EZ4SEAH7PF3X6H", "current_trial": 214, "dateTime": 1513478695367, "trialdata": {"rt": -1, "stimulus": "<p id=\"stim\">10</p>", "key_press": -1, "trial_type": "single-stim", "trial_index": 214, "time_elapsed": 1684064, "internal_node_id": "0.0-160.0-0.0"}}, {"uniqueid": "MTK1263:3EG49X351VJ7R5D2EZ4SEAH7PF3X6H", "current_trial": 215, "dateTime": 1513478696371, "trialdata": {"rt": -1, "stimulus": "<p id=\"stim\">9</p>", "key_press": -1, "trial_type": "single-stim", "trial_index": 215, "time_elapsed": 1685068, "internal_node_id": "0.0-160.0-1.0"}}, {"uniqueid": "MTK1263:3EG49X351VJ7R5D2EZ4SEAH7PF3X6H", "current_trial": 216, "dateTime": 1513478697356, "trialdata": {"rt": -1, "stimulus": "<p id=\"stim\">8</p>", "key_press": -1, "trial_type": "single-stim", "trial_index": 216, "time_elapsed": 1686052, "internal_node_id": "0.0-160.0-2.0"}}, {"uniqueid": "MTK1263:3EG49X351VJ7R5D2EZ4SEAH7PF3X6H", "current_trial": 217, "dateTime": 1513478698359, "trialdata": {"rt": -1, "stimulus": "<p id=\"stim\">7</p>", "key_press": -1, "trial_type": "single-stim", "trial_index": 217, "time_elapsed": 1687056, "internal_node_id": "0.0-160.0-3.0"}}, {"uniqueid": "MTK1263:3EG49X351VJ7R5D2EZ4SEAH7PF3X6H", "current_trial": 218, "dateTime": 1513478699374, "trialdata": {"rt": -1, "stimulus": "<p id=\"stim\">6</p>", "key_press": -1, "trial_type": "single-stim", "trial_index": 218, "time_elapsed": 1688070, "internal_node_id": "0.0-160.0-4.0"}}, {"uniqueid": "MTK1263:3EG49X351VJ7R5D2EZ4SEAH7PF3X6H", "current_trial": 219, "dateTime": 1513478700374, "trialdata": {"rt": -1, "stimulus": "<p id=\"stim\">5</p>", "key_press": -1, "trial_type": "single-stim", "trial_index": 219, "time_elapsed": 1689071, "internal_node_id": "0.0-160.0-5.0"}}, {"uniqueid": "MTK1263:3EG49X351VJ7R5D2EZ4SEAH7PF3X6H", "current_trial": 220, "dateTime": 1513478701369, "trialdata": {"rt": -1, "stimulus": "<p id=\"stim\">4</p>", "key_press": -1, "trial_type": "single-stim", "trial_index": 220, "time_elapsed": 1690066, "internal_node_id": "0.0-160.0-6.0"}}, {"uniqueid": "MTK1263:3EG49X351VJ7R5D2EZ4SEAH7PF3X6H", "current_trial": 221, "dateTime": 1513478702359, "trialdata": {"rt": -1, "stimulus": "<p id=\"stim\">3</p>", "key_press": -1, "trial_type": "single-stim", "trial_index": 221, "time_elapsed": 1691056, "internal_node_id": "0.0-160.0-7.0"}}, {"uniqueid": "MTK1263:3EG49X351VJ7R5D2EZ4SEAH7PF3X6H", "current_trial": 222, "dateTime": 1513478703369, "trialdata": {"rt": -1, "stimulus": "<p id=\"stim\">2</p>", "key_press": -1, "trial_type": "single-stim", "trial_index": 222, "time_elapsed": 1692066, "internal_node_id": "0.0-160.0-8.0"}}, {"uniqueid": "MTK1263:3EG49X351VJ7R5D2EZ4SEAH7PF3X6H", "current_trial": 223, "dateTime": 1513478704376, "trialdata": {"rt": -1, "stimulus": "<p id=\"stim\">1</p>", "key_press": -1, "trial_type": "single-stim", "trial_index": 223, "time_elapsed": 1693073, "internal_node_id": "0.0-160.0-9.0"}}, {"uniqueid": "MTK1263:3EG49X351VJ7R5D2EZ4SEAH7PF3X6H", "current_trial": 224, "dateTime": 1513478705888, "trialdata": {"rt": -1, "stimulus": "<p id=\"stim\">+</p>", "key_press": -1, "type": "FIXATION", "trial_type": "single-stim", "trial_index": 224, "time_elapsed": 1694584, "internal_node_id": "0.0-161.0-0.0"}}, {"uniqueid": "MTK1263:3EG49X351VJ7R5D2EZ4SEAH7PF3X6H", "current_trial": 225, "dateTime": 1513478707500, "trialdata": {"rt": -1, "stimulus": "<p id=\"stim\">CARRIAGE</p>", "key_press": -1, "type": "PRES_VIS", "word": "carriage", "wordID": 247, "conditions": [24, 1600, "v", 24000], "trial": 6, "serialpos": 0, "trial_type": "single-stim", "trial_index": 225, "time_elapsed": 1696196, "internal_node_id": "0.0-162.0"}}, {"uniqueid": "MTK1263:3EG49X351VJ7R5D2EZ4SEAH7PF3X6H", "current_trial": 226, "dateTime": 1513478710020, "trialdata": {"rt": -1, "stimulus": "<p id=\"stim\">TUBA</p>", "key_press": -1, "type": "PRES_VIS", "word": "tuba", "wordID": 1514, "conditions": [24, 1600, "v", 24000], "trial": 6, "serialpos": 1, "trial_type": "single-stim", "trial_index": 226, "time_elapsed": 1698717, "internal_node_id": "0.0-163.0"}}, {"uniqueid": "MTK1263:3EG49X351VJ7R5D2EZ4SEAH7PF3X6H", "current_trial": 227, "dateTime": 1513478712664, "trialdata": {"rt": -1, "stimulus": "<p id=\"stim\">DENIM</p>", "key_press": -1, "type": "PRES_VIS", "word": "denim", "wordID": 445, "conditions": [24, 1600, "v", 24000], "trial": 6, "serialpos": 2, "trial_type": "single-stim", "trial_index": 227, "time_elapsed": 1701361, "internal_node_id": "0.0-164.0"}}, {"uniqueid": "MTK1263:3EG49X351VJ7R5D2EZ4SEAH7PF3X6H", "current_trial": 228, "dateTime": 1513478715118, "trialdata": {"rt": -1, "stimulus": "<p id=\"stim\">REBEL</p>", "key_press": -1, "type": "PRES_VIS", "word": "rebel", "wordID": 1171, "conditions": [24, 1600, "v", 24000], "trial": 6, "serialpos": 3, "trial_type": "single-stim", "trial_index": 228, "time_elapsed": 1703815, "internal_node_id": "0.0-165.0"}}, {"uniqueid": "MTK1263:3EG49X351VJ7R5D2EZ4SEAH7PF3X6H", "current_trial": 229, "dateTime": 1513478717820, "trialdata": {"rt": -1, "stimulus": "<p id=\"stim\">GANGSTER</p>", "key_press": -1, "type": "PRES_VIS", "word": "gangster", "wordID": 619, "conditions": [24, 1600, "v", 24000], "trial": 6, "serialpos": 4, "trial_type": "single-stim", "trial_index": 229, "time_elapsed": 1706517, "internal_node_id": "0.0-166.0"}}, {"uniqueid": "MTK1263:3EG49X351VJ7R5D2EZ4SEAH7PF3X6H", "current_trial": 230, "dateTime": 1513478720514, "trialdata": {"rt": -1, "stimulus": "<p id=\"stim\">PLATE</p>", "key_press": -1, "type": "PRES_VIS", "word": "plate", "wordID": 1085, "conditions": [24, 1600, "v", 24000], "trial": 6, "serialpos": 5, "trial_type": "single-stim", "trial_index": 230, "time_elapsed": 1709211, "internal_node_id": "0.0-167.0"}}, {"uniqueid": "MTK1263:3EG49X351VJ7R5D2EZ4SEAH7PF3X6H", "current_trial": 231, "dateTime": 1513478722976, "trialdata": {"rt": -1, "stimulus": "<p id=\"stim\">CYCLONE</p>", "key_press": -1, "type": "PRES_VIS", "word": "cyclone", "wordID": 430, "conditions": [24, 1600, "v", 24000], "trial": 6, "serialpos": 6, "trial_type": "single-stim", "trial_index": 231, "time_elapsed": 1711672, "internal_node_id": "0.0-168.0"}}, {"uniqueid": "MTK1263:3EG49X351VJ7R5D2EZ4SEAH7PF3X6H", "current_trial": 232, "dateTime": 1513478725642, "trialdata": {"rt": -1, "stimulus": "<p id=\"stim\">STOMACH</p>", "key_press": -1, "type": "PRES_VIS", "word": "stomach", "wordID": 1383, "conditions": [24, 1600, "v", 24000], "trial": 6, "serialpos": 7, "trial_type": "single-stim", "trial_index": 232, "time_elapsed": 1714338, "internal_node_id": "0.0-169.0"}}, {"uniqueid": "MTK1263:3EG49X351VJ7R5D2EZ4SEAH7PF3X6H", "current_trial": 233, "dateTime": 1513478728277, "trialdata": {"rt": -1, "stimulus": "<p id=\"stim\">CHEST</p>", "key_press": -1, "type": "PRES_VIS", "word": "chest", "wordID": 294, "conditions": [24, 1600, "v", 24000], "trial": 6, "serialpos": 8, "trial_type": "single-stim", "trial_index": 233, "time_elapsed": 1716974, "internal_node_id": "0.0-170.0"}}, {"uniqueid": "MTK1263:3EG49X351VJ7R5D2EZ4SEAH7PF3X6H", "current_trial": 234, "dateTime": 1513478731025, "trialdata": {"rt": -1, "stimulus": "<p id=\"stim\">NURSE</p>", "key_press": -1, "type": "PRES_VIS", "word": "nurse", "wordID": 962, "conditions": [24, 1600, "v", 24000], "trial": 6, "serialpos": 9, "trial_type": "single-stim", "trial_index": 234, "time_elapsed": 1719722, "internal_node_id": "0.0-171.0"}}, {"uniqueid": "MTK1263:3EG49X351VJ7R5D2EZ4SEAH7PF3X6H", "current_trial": 235, "dateTime": 1513478733824, "trialdata": {"rt": -1, "stimulus": "<p id=\"stim\">FLOWER</p>", "key_press": -1, "type": "PRES_VIS", "word": "flower", "wordID": 583, "conditions": [24, 1600, "v", 24000], "trial": 6, "serialpos": 10, "trial_type": "single-stim", "trial_index": 235, "time_elapsed": 1722521, "internal_node_id": "0.0-172.0"}}, {"uniqueid": "MTK1263:3EG49X351VJ7R5D2EZ4SEAH7PF3X6H", "current_trial": 236, "dateTime": 1513478736285, "trialdata": {"rt": -1, "stimulus": "<p id=\"stim\">DRESS</p>", "key_press": -1, "type": "PRES_VIS", "word": "dress", "wordID": 494, "conditions": [24, 1600, "v", 24000], "trial": 6, "serialpos": 11, "trial_type": "single-stim", "trial_index": 236, "time_elapsed": 1724981, "internal_node_id": "0.0-173.0"}}, {"uniqueid": "MTK1263:3EG49X351VJ7R5D2EZ4SEAH7PF3X6H", "current_trial": 237, "dateTime": 1513478738764, "trialdata": {"rt": -1, "stimulus": "<p id=\"stim\">SUBWAY</p>", "key_press": -1, "type": "PRES_VIS", "word": "subway", "wordID": 1399, "conditions": [24, 1600, "v", 24000], "trial": 6, "serialpos": 12, "trial_type": "single-stim", "trial_index": 237, "time_elapsed": 1727461, "internal_node_id": "0.0-174.0"}}, {"uniqueid": "MTK1263:3EG49X351VJ7R5D2EZ4SEAH7PF3X6H", "current_trial": 238, "dateTime": 1513478741335, "trialdata": {"rt": -1, "stimulus": "<p id=\"stim\">TURNIP</p>", "key_press": -1, "type": "PRES_VIS", "word": "turnip", "wordID": 1520, "conditions": [24, 1600, "v", 24000], "trial": 6, "serialpos": 13, "trial_type": "single-stim", "trial_index": 238, "time_elapsed": 1730031, "internal_node_id": "0.0-175.0"}}, {"uniqueid": "MTK1263:3EG49X351VJ7R5D2EZ4SEAH7PF3X6H", "current_trial": 239, "dateTime": 1513478744114, "trialdata": {"rt": -1, "stimulus": "<p id=\"stim\">SHIRT</p>", "key_press": -1, "type": "PRES_VIS", "word": "shirt", "wordID": 1286, "conditions": [24, 1600, "v", 24000], "trial": 6, "serialpos": 14, "trial_type": "single-stim", "trial_index": 239, "time_elapsed": 1732811, "internal_node_id": "0.0-176.0"}}, {"uniqueid": "MTK1263:3EG49X351VJ7R5D2EZ4SEAH7PF3X6H", "current_trial": 240, "dateTime": 1513478746837, "trialdata": {"rt": -1, "stimulus": "<p id=\"stim\">STUDENT</p>", "key_press": -1, "type": "PRES_VIS", "word": "student", "wordID": 1394, "conditions": [24, 1600, "v", 24000], "trial": 6, "serialpos": 15, "trial_type": "single-stim", "trial_index": 240, "time_elapsed": 1735534, "internal_node_id": "0.0-177.0"}}, {"uniqueid": "MTK1263:3EG49X351VJ7R5D2EZ4SEAH7PF3X6H", "current_trial": 241, "dateTime": 1513478749402, "trialdata": {"rt": -1, "stimulus": "<p id=\"stim\">TEACHER</p>", "key_press": -1, "type": "PRES_VIS", "word": "teacher", "wordID": 1439, "conditions": [24, 1600, "v", 24000], "trial": 6, "serialpos": 16, "trial_type": "single-stim", "trial_index": 241, "time_elapsed": 1738099, "internal_node_id": "0.0-178.0"}}, {"uniqueid": "MTK1263:3EG49X351VJ7R5D2EZ4SEAH7PF3X6H", "current_trial": 242, "dateTime": 1513478752214, "trialdata": {"rt": -1, "stimulus": "<p id=\"stim\">CAMEL</p>", "key_press": -1, "type": "PRES_VIS", "word": "camel", "wordID": 222, "conditions": [24, 1600, "v", 24000], "trial": 6, "serialpos": 17, "trial_type": "single-stim", "trial_index": 242, "time_elapsed": 1740911, "internal_node_id": "0.0-179.0"}}, {"uniqueid": "MTK1263:3EG49X351VJ7R5D2EZ4SEAH7PF3X6H", "current_trial": 243, "dateTime": 1513478754802, "trialdata": {"rt": -1, "stimulus": "<p id=\"stim\">OUTLAW</p>", "key_press": -1, "type": "PRES_VIS", "word": "outlaw", "wordID": 988, "conditions": [24, 1600, "v", 24000], "trial": 6, "serialpos": 18, "trial_type": "single-stim", "trial_index": 243, "time_elapsed": 1743499, "internal_node_id": "0.0-180.0"}}, {"uniqueid": "MTK1263:3EG49X351VJ7R5D2EZ4SEAH7PF3X6H", "current_trial": 244, "dateTime": 1513478757571, "trialdata": {"rt": -1, "stimulus": "<p id=\"stim\">ACTOR</p>", "key_press": -1, "type": "PRES_VIS", "word": "actor", "wordID": 4, "conditions": [24, 1600, "v", 24000], "trial": 6, "serialpos": 19, "trial_type": "single-stim", "trial_index": 244, "time_elapsed": 1746268, "internal_node_id": "0.0-181.0"}}, {"uniqueid": "MTK1263:3EG49X351VJ7R5D2EZ4SEAH7PF3X6H", "current_trial": 245, "dateTime": 1513478760028, "trialdata": {"rt": -1, "stimulus": "<p id=\"stim\">VICTIM</p>", "key_press": -1, "type": "PRES_VIS", "word": "victim", "wordID": 1561, "conditions": [24, 1600, "v", 24000], "trial": 6, "serialpos": 20, "trial_type": "single-stim", "trial_index": 245, "time_elapsed": 1748725, "internal_node_id": "0.0-182.0"}}, {"uniqueid": "MTK1263:3EG49X351VJ7R5D2EZ4SEAH7PF3X6H", "current_trial": 246, "dateTime": 1513478762710, "trialdata": {"rt": -1, "stimulus": "<p id=\"stim\">KLEENEX</p>", "key_press": -1, "type": "PRES_VIS", "word": "kleenex", "wordID": 781, "conditions": [24, 1600, "v", 24000], "trial": 6, "serialpos": 21, "trial_type": "single-stim", "trial_index": 246, "time_elapsed": 1751407, "internal_node_id": "0.0-183.0"}}, {"uniqueid": "MTK1263:3EG49X351VJ7R5D2EZ4SEAH7PF3X6H", "current_trial": 247, "dateTime": 1513478765517, "trialdata": {"rt": -1, "stimulus": "<p id=\"stim\">RACKET</p>", "key_press": -1, "type": "PRES_VIS", "word": "racket", "wordID": 1154, "conditions": [24, 1600, "v", 24000], "trial": 6, "serialpos": 22, "trial_type": "single-stim", "trial_index": 247, "time_elapsed": 1754214, "internal_node_id": "0.0-184.0"}}, {"uniqueid": "MTK1263:3EG49X351VJ7R5D2EZ4SEAH7PF3X6H", "current_trial": 248, "dateTime": 1513478768085, "trialdata": {"rt": -1, "stimulus": "<p id=\"stim\">WOMAN</p>", "key_press": -1, "type": "PRES_VIS", "word": "woman", "wordID": 1619, "conditions": [24, 1600, "v", 24000], "trial": 6, "serialpos": 23, "trial_type": "single-stim", "trial_index": 248, "time_elapsed": 1756782, "internal_node_id": "0.0-185.0"}}, {"uniqueid": "MTK1263:3EG49X351VJ7R5D2EZ4SEAH7PF3X6H", "current_trial": 249, "dateTime": 1513478770286, "trialdata": {"rt": -1, "stimulus": "", "key_press": -1, "type": "PRE_RECALL_DELAY", "trial_type": "single-stim", "trial_index": 249, "time_elapsed": 1758983, "internal_node_id": "0.0-186.0-0.0"}}, {"uniqueid": "MTK1263:3EG49X351VJ7R5D2EZ4SEAH7PF3X6H", "current_trial": 250, "dateTime": 1513478770798, "trialdata": {"rt": -1000, "stimulus": "/static/audio/400Hz.wav", "key_press": -1, "type": "PRE_RECALL_ALERT", "trial_type": "single-audio", "trial_index": 250, "time_elapsed": 1759495, "internal_node_id": "0.0-187.0"}}, {"uniqueid": "MTK1263:3EG49X351VJ7R5D2EZ4SEAH7PF3X6H", "current_trial": 251, "dateTime": 1513478830815, "trialdata": {"rt": [8239, 10336, 13277, 16542, 21742, 23522, 27636, 35139, 38283, 41101, 43732, 46357, 49428, 51849, 57882], "recwords": ["carriage", "tube", "demin", "rebel", "gangster", "plate", "cyclone", "stomach", "chest", "nurse", "flower", "dress", "subway", "turn", "shirt"], "type": "FREE_RECALL", "conditions": [24, 1600, "v", 24000], "trial": 6, "trial_type": "free-recall", "trial_index": 251, "time_elapsed": 1819507, "internal_node_id": "0.0-188.0-0.0"}}, {"uniqueid": "MTK1263:3EG49X351VJ7R5D2EZ4SEAH7PF3X6H", "current_trial": 252, "dateTime": 1513478835603, "trialdata": {"rt": 2768, "key_press": 13, "type": "INSTRUCTIONS", "trial_type": "text", "trial_index": 252, "time_elapsed": 1824300, "internal_node_id": "0.0-189.0"}}, {"uniqueid": "MTK1263:3EG49X351VJ7R5D2EZ4SEAH7PF3X6H", "current_trial": 253, "dateTime": 1513478849642, "trialdata": {"rt": [5197, 10307], "responses": ["14", "19"], "num1": [6, 7, 2], "num2": [1, 8, 2], "num3": [7, 4, 5], "type": "DISTRACTOR", "conditions": [24, 1600, "v", 12000], "trial": 7, "trial_type": "math-distractor", "trial_index": 253, "time_elapsed": 1838339, "internal_node_id": "0.0-190.0"}}, {"uniqueid": "MTK1263:3EG49X351VJ7R5D2EZ4SEAH7PF3X6H", "current_trial": 254, "dateTime": 1513478852669, "trialdata": {"rt": -1, "stimulus": "<p id=\"stim\">10</p>", "key_press": -1, "trial_type": "single-stim", "trial_index": 254, "time_elapsed": 1841365, "internal_node_id": "0.0-191.0-0.0"}}, {"uniqueid": "MTK1263:3EG49X351VJ7R5D2EZ4SEAH7PF3X6H", "current_trial": 255, "dateTime": 1513478853666, "trialdata": {"rt": -1, "stimulus": "<p id=\"stim\">9</p>", "key_press": -1, "trial_type": "single-stim", "trial_index": 255, "time_elapsed": 1842363, "internal_node_id": "0.0-191.0-1.0"}}, {"uniqueid": "MTK1263:3EG49X351VJ7R5D2EZ4SEAH7PF3X6H", "current_trial": 256, "dateTime": 1513478854668, "trialdata": {"rt": -1, "stimulus": "<p id=\"stim\">8</p>", "key_press": -1, "trial_type": "single-stim", "trial_index": 256, "time_elapsed": 1843365, "internal_node_id": "0.0-191.0-2.0"}}, {"uniqueid": "MTK1263:3EG49X351VJ7R5D2EZ4SEAH7PF3X6H", "current_trial": 257, "dateTime": 1513478855671, "trialdata": {"rt": -1, "stimulus": "<p id=\"stim\">7</p>", "key_press": -1, "trial_type": "single-stim", "trial_index": 257, "time_elapsed": 1844368, "internal_node_id": "0.0-191.0-3.0"}}, {"uniqueid": "MTK1263:3EG49X351VJ7R5D2EZ4SEAH7PF3X6H", "current_trial": 258, "dateTime": 1513478856683, "trialdata": {"rt": -1, "stimulus": "<p id=\"stim\">6</p>", "key_press": -1, "trial_type": "single-stim", "trial_index": 258, "time_elapsed": 1845380, "internal_node_id": "0.0-191.0-4.0"}}, {"uniqueid": "MTK1263:3EG49X351VJ7R5D2EZ4SEAH7PF3X6H", "current_trial": 259, "dateTime": 1513478857669, "trialdata": {"rt": -1, "stimulus": "<p id=\"stim\">5</p>", "key_press": -1, "trial_type": "single-stim", "trial_index": 259, "time_elapsed": 1846366, "internal_node_id": "0.0-191.0-5.0"}}, {"uniqueid": "MTK1263:3EG49X351VJ7R5D2EZ4SEAH7PF3X6H", "current_trial": 260, "dateTime": 1513478858672, "trialdata": {"rt": -1, "stimulus": "<p id=\"stim\">4</p>", "key_press": -1, "trial_type": "single-stim", "trial_index": 260, "time_elapsed": 1847368, "internal_node_id": "0.0-191.0-6.0"}}, {"uniqueid": "MTK1263:3EG49X351VJ7R5D2EZ4SEAH7PF3X6H", "current_trial": 261, "dateTime": 1513478859665, "trialdata": {"rt": -1, "stimulus": "<p id=\"stim\">3</p>", "key_press": -1, "trial_type": "single-stim", "trial_index": 261, "time_elapsed": 1848361, "internal_node_id": "0.0-191.0-7.0"}}, {"uniqueid": "MTK1263:3EG49X351VJ7R5D2EZ4SEAH7PF3X6H", "current_trial": 262, "dateTime": 1513478860674, "trialdata": {"rt": -1, "stimulus": "<p id=\"stim\">2</p>", "key_press": -1, "trial_type": "single-stim", "trial_index": 262, "time_elapsed": 1849371, "internal_node_id": "0.0-191.0-8.0"}}, {"uniqueid": "MTK1263:3EG49X351VJ7R5D2EZ4SEAH7PF3X6H", "current_trial": 263, "dateTime": 1513478861676, "trialdata": {"rt": -1, "stimulus": "<p id=\"stim\">1</p>", "key_press": -1, "trial_type": "single-stim", "trial_index": 263, "time_elapsed": 1850373, "internal_node_id": "0.0-191.0-9.0"}}, {"uniqueid": "MTK1263:3EG49X351VJ7R5D2EZ4SEAH7PF3X6H", "current_trial": 264, "dateTime": 1513478863193, "trialdata": {"rt": -1, "stimulus": "<p id=\"stim\">+</p>", "key_press": -1, "type": "FIXATION", "trial_type": "single-stim", "trial_index": 264, "time_elapsed": 1851890, "internal_node_id": "0.0-192.0-0.0"}}, {"uniqueid": "MTK1263:3EG49X351VJ7R5D2EZ4SEAH7PF3X6H", "current_trial": 265, "dateTime": 1513478864805, "trialdata": {"rt": -1, "stimulus": "<p id=\"stim\">SCARF</p>", "key_press": -1, "type": "PRES_VIS", "word": "scarf", "wordID": 1245, "conditions": [24, 1600, "v", 12000], "trial": 7, "serialpos": 0, "trial_type": "single-stim", "trial_index": 265, "time_elapsed": 1853502, "internal_node_id": "0.0-193.0"}}, {"uniqueid": "MTK1263:3EG49X351VJ7R5D2EZ4SEAH7PF3X6H", "current_trial": 266, "dateTime": 1513478867398, "trialdata": {"rt": -1, "stimulus": "<p id=\"stim\">SEAFOOD</p>", "key_press": -1, "type": "PRES_VIS", "word": "seafood", "wordID": 1259, "conditions": [24, 1600, "v", 12000], "trial": 7, "serialpos": 1, "trial_type": "single-stim", "trial_index": 266, "time_elapsed": 1856095, "internal_node_id": "0.0-194.0"}}, {"uniqueid": "MTK1263:3EG49X351VJ7R5D2EZ4SEAH7PF3X6H", "current_trial": 267, "dateTime": 1513478869818, "trialdata": {"rt": -1, "stimulus": "<p id=\"stim\">SALMON</p>", "key_press": -1, "type": "PRES_VIS", "word": "salmon", "wordID": 1226, "conditions": [24, 1600, "v", 12000], "trial": 7, "serialpos": 2, "trial_type": "single-stim", "trial_index": 267, "time_elapsed": 1858514, "internal_node_id": "0.0-195.0"}}, {"uniqueid": "MTK1263:3EG49X351VJ7R5D2EZ4SEAH7PF3X6H", "current_trial": 268, "dateTime": 1513478872553, "trialdata": {"rt": -1, "stimulus": "<p id=\"stim\">PLASTER</p>", "key_press": -1, "type": "PRES_VIS", "word": "plaster", "wordID": 1084, "conditions": [24, 1600, "v", 12000], "trial": 7, "serialpos": 3, "trial_type": "single-stim", "trial_index": 268, "time_elapsed": 1861250, "internal_node_id": "0.0-196.0"}}, {"uniqueid": "MTK1263:3EG49X351VJ7R5D2EZ4SEAH7PF3X6H", "current_trial": 269, "dateTime": 1513478875318, "trialdata": {"rt": -1, "stimulus": "<p id=\"stim\">LONDON</p>", "key_press": -1, "type": "PRES_VIS", "word": "london", "wordID": 842, "conditions": [24, 1600, "v", 12000], "trial": 7, "serialpos": 4, "trial_type": "single-stim", "trial_index": 269, "time_elapsed": 1864014, "internal_node_id": "0.0-197.0"}}, {"uniqueid": "MTK1263:3EG49X351VJ7R5D2EZ4SEAH7PF3X6H", "current_trial": 270, "dateTime": 1513478878094, "trialdata": {"rt": -1, "stimulus": "<p id=\"stim\">LAMP</p>", "key_press": -1, "type": "PRES_VIS", "word": "lamp", "wordID": 797, "conditions": [24, 1600, "v", 12000], "trial": 7, "serialpos": 5, "trial_type": "single-stim", "trial_index": 270, "time_elapse