{"condition": 0, "counterbalance": 1593, "assignmentId": "3KOPY89HM997Z2LVETRTGYX84QD3JK", "workerId": "MTK1204", "hitId": "33NKDW9FFXPUK2O9YOCTBQDX6KZXC6", "currenttrial": 625, "bonus": 0, "data": [{"uniqueid": "MTK1204:3KOPY89HM997Z2LVETRTGYX84QD3JK", "current_trial": 0, "dateTime": 1513458828927, "trialdata": {"rt": 428693, "key_press": 32, "type": "INSTRUCTIONS", "trial_type": "text", "trial_index": 0, "time_elapsed": 428697, "internal_node_id": "0.0-0.0"}}, {"uniqueid": "MTK1204:3KOPY89HM997Z2LVETRTGYX84QD3JK", "current_trial": 1, "dateTime": 1513460077795, "trialdata": {"rt": 1248867, "key_press": 32, "type": "INSTRUCTIONS", "trial_type": "text", "trial_index": 1, "time_elapsed": 1677567, "internal_node_id": "0.0-1.0"}}, {"uniqueid": "MTK1204:3KOPY89HM997Z2LVETRTGYX84QD3JK", "current_trial": 2, "dateTime": 1513460086148, "trialdata": {"rt": [8278], "responses": ["ocean"], "type": "AUDIO_TEST", "trial_type": "audio-test", "trial_index": 2, "time_elapsed": 1685919, "internal_node_id": "0.0-2.0"}}, {"uniqueid": "MTK1204:3KOPY89HM997Z2LVETRTGYX84QD3JK", "current_trial": 3, "dateTime": 1513460093109, "trialdata": {"rt": [6945], "responses": ["crystal"], "type": "AUDIO_TEST", "trial_type": "audio-test", "trial_index": 3, "time_elapsed": 1692881, "internal_node_id": "0.0-3.0"}}, {"uniqueid": "MTK1204:3KOPY89HM997Z2LVETRTGYX84QD3JK", "current_trial": 4, "dateTime": 1513460097824, "trialdata": {"rt": [4699], "responses": ["spice"], "type": "AUDIO_TEST", "trial_type": "audio-test", "trial_index": 4, "time_elapsed": 1697596, "internal_node_id": "0.0-4.0"}}, {"uniqueid": "MTK1204:3KOPY89HM997Z2LVETRTGYX84QD3JK", "current_trial": 5, "dateTime": 1513460972886, "trialdata": {"rt": 874302, "responses": "{\"Q0\":\"12:30 am\",\"Q1\":\"7:30 am\",\"Q2\":\"4\"}", "type": "SLEEP_SURVEY", "trial_type": "survey-text", "trial_index": 5, "time_elapsed": 2572658, "internal_node_id": "0.0-5.0"}}, {"uniqueid": "MTK1204:3KOPY89HM997Z2LVETRTGYX84QD3JK", "current_trial": 6, "dateTime": 1513461033193, "trialdata": {"rt": 59301, "key_press": 32, "type": "INSTRUCTIONS", "trial_type": "text", "trial_index": 6, "time_elapsed": 2632965, "internal_node_id": "0.0-6.0"}}, {"uniqueid": "MTK1204:3KOPY89HM997Z2LVETRTGYX84QD3JK", "current_trial": 7, "dateTime": 1513461040009, "trialdata": {"rt": 6314, "key_press": 32, "type": "INSTRUCTIONS", "trial_type": "text", "trial_index": 7, "time_elapsed": 2639781, "internal_node_id": "0.0-7.0"}}, {"uniqueid": "MTK1204:3KOPY89HM997Z2LVETRTGYX84QD3JK", "current_trial": 8, "dateTime": 1513461042537, "trialdata": {"rt": 2024, "key_press": 32, "type": "INSTRUCTIONS", "trial_type": "text", "trial_index": 8, "time_elapsed": 2642309, "internal_node_id": "0.0-8.0"}}, {"uniqueid": "MTK1204:3KOPY89HM997Z2LVETRTGYX84QD3JK", "current_trial": 9, "dateTime": 1513461061552, "trialdata": {"rt": [3784, 6812, 11912, 16545], "responses": ["18", "9", "20", "21"], "num1": [1, 2, 8, 9, 5], "num2": [8, 1, 3, 6, 5], "num3": [9, 6, 9, 6, 7], "type": "DISTRACTOR", "conditions": [18, 1200, "v", 18000], "trial": 0, "trial_type": "math-distractor", "trial_index": 9, "time_elapsed": 2661324, "internal_node_id": "0.0-9.0"}}, {"uniqueid": "MTK1204:3KOPY89HM997Z2LVETRTGYX84QD3JK", "current_trial": 10, "dateTime": 1513461064558, "trialdata": {"rt": -1, "stimulus": "<p id=\"stim\">10</p>", "key_press": -1, "trial_type": "single-stim", "trial_index": 10, "time_elapsed": 2664330, "internal_node_id": "0.0-10.0-0.0"}}, {"uniqueid": "MTK1204:3KOPY89HM997Z2LVETRTGYX84QD3JK", "current_trial": 11, "dateTime": 1513461065565, "trialdata": {"rt": -1, "stimulus": "<p id=\"stim\">9</p>", "key_press": -1, "trial_type": "single-stim", "trial_index": 11, "time_elapsed": 2665337, "internal_node_id": "0.0-10.0-1.0"}}, {"uniqueid": "MTK1204:3KOPY89HM997Z2LVETRTGYX84QD3JK", "current_trial": 12, "dateTime": 1513461066565, "trialdata": {"rt": -1, "stimulus": "<p id=\"stim\">8</p>", "key_press": -1, "trial_type": "single-stim", "trial_index": 12, "time_elapsed": 2666337, "internal_node_id": "0.0-10.0-2.0"}}, {"uniqueid": "MTK1204:3KOPY89HM997Z2LVETRTGYX84QD3JK", "current_trial": 13, "dateTime": 1513461068000, "trialdata": {"rt": -1, "stimulus": "<p id=\"stim\">7</p>", "key_press": -1, "trial_type": "single-stim", "trial_index": 13, "time_elapsed": 2667772, "internal_node_id": "0.0-10.0-3.0"}}, {"uniqueid": "MTK1204:3KOPY89HM997Z2LVETRTGYX84QD3JK", "current_trial": 14, "dateTime": 1513461069286, "trialdata": {"rt": -1, "stimulus": "<p id=\"stim\">6</p>", "key_press": -1, "trial_type": "single-stim", "trial_index": 14, "time_elapsed": 2669058, "internal_node_id": "0.0-10.0-4.0"}}, {"uniqueid": "MTK1204:3KOPY89HM997Z2LVETRTGYX84QD3JK", "current_trial": 15, "dateTime": 1513461070291, "trialdata": {"rt": -1, "stimulus": "<p id=\"stim\">5</p>", "key_press": -1, "trial_type": "single-stim", "trial_index": 15, "time_elapsed": 2670063, "internal_node_id": "0.0-10.0-5.0"}}, {"uniqueid": "MTK1204:3KOPY89HM997Z2LVETRTGYX84QD3JK", "current_trial": 16, "dateTime": 1513461071294, "trialdata": {"rt": -1, "stimulus": "<p id=\"stim\">4</p>", "key_press": -1, "trial_type": "single-stim", "trial_index": 16, "time_elapsed": 2671066, "internal_node_id": "0.0-10.0-6.0"}}, {"uniqueid": "MTK1204:3KOPY89HM997Z2LVETRTGYX84QD3JK", "current_trial": 17, "dateTime": 1513461072295, "trialdata": {"rt": -1, "stimulus": "<p id=\"stim\">3</p>", "key_press": -1, "trial_type": "single-stim", "trial_index": 17, "time_elapsed": 2672067, "internal_node_id": "0.0-10.0-7.0"}}, {"uniqueid": "MTK1204:3KOPY89HM997Z2LVETRTGYX84QD3JK", "current_trial": 18, "dateTime": 1513461073297, "trialdata": {"rt": -1, "stimulus": "<p id=\"stim\">2</p>", "key_press": -1, "trial_type": "single-stim", "trial_index": 18, "time_elapsed": 2673069, "internal_node_id": "0.0-10.0-8.0"}}, {"uniqueid": "MTK1204:3KOPY89HM997Z2LVETRTGYX84QD3JK", "current_trial": 19, "dateTime": 1513461074300, "trialdata": {"rt": -1, "stimulus": "<p id=\"stim\">1</p>", "key_press": -1, "trial_type": "single-stim", "trial_index": 19, "time_elapsed": 2674072, "internal_node_id": "0.0-10.0-9.0"}}, {"uniqueid": "MTK1204:3KOPY89HM997Z2LVETRTGYX84QD3JK", "current_trial": 20, "dateTime": 1513461075804, "trialdata": {"rt": -1, "stimulus": "<p id=\"stim\">+</p>", "key_press": -1, "type": "FIXATION", "trial_type": "single-stim", "trial_index": 20, "time_elapsed": 2675576, "internal_node_id": "0.0-11.0-0.0"}}, {"uniqueid": "MTK1204:3KOPY89HM997Z2LVETRTGYX84QD3JK", "current_trial": 21, "dateTime": 1513461077005, "trialdata": {"rt": -1, "stimulus": "<p id=\"stim\">CURTAIN</p>", "key_press": -1, "type": "PRES_VIS", "word": "curtain", "wordID": 426, "conditions": [18, 1200, "v", 18000], "trial": 0, "serialpos": 0, "trial_type": "single-stim", "trial_index": 21, "time_elapsed": 2676777, "internal_node_id": "0.0-12.0"}}, {"uniqueid": "MTK1204:3KOPY89HM997Z2LVETRTGYX84QD3JK", "current_trial": 22, "dateTime": 1513461079186, "trialdata": {"rt": -1, "stimulus": "<p id=\"stim\">RADISH</p>", "key_press": -1, "type": "PRES_VIS", "word": "radish", "wordID": 1157, "conditions": [18, 1200, "v", 18000], "trial": 0, "serialpos": 1, "trial_type": "single-stim", "trial_index": 22, "time_elapsed": 2678958, "internal_node_id": "0.0-13.0"}}, {"uniqueid": "MTK1204:3KOPY89HM997Z2LVETRTGYX84QD3JK", "current_trial": 23, "dateTime": 1513461081316, "trialdata": {"rt": -1, "stimulus": "<p id=\"stim\">JELLO</p>", "key_press": -1, "type": "PRES_VIS", "word": "jello", "wordID": 753, "conditions": [18, 1200, "v", 18000], "trial": 0, "serialpos": 2, "trial_type": "single-stim", "trial_index": 23, "time_elapsed": 2681088, "internal_node_id": "0.0-14.0"}}, {"uniqueid": "MTK1204:3KOPY89HM997Z2LVETRTGYX84QD3JK", "current_trial": 24, "dateTime": 1513461083590, "trialdata": {"rt": -1, "stimulus": "<p id=\"stim\">MOTOR</p>", "key_press": -1, "type": "PRES_VIS", "word": "motor", "wordID": 921, "conditions": [18, 1200, "v", 18000], "trial": 0, "serialpos": 3, "trial_type": "single-stim", "trial_index": 24, "time_elapsed": 2683362, "internal_node_id": "0.0-15.0"}}, {"uniqueid": "MTK1204:3KOPY89HM997Z2LVETRTGYX84QD3JK", "current_trial": 25, "dateTime": 1513461085658, "trialdata": {"rt": -1, "stimulus": "<p id=\"stim\">SCARF</p>", "key_press": -1, "type": "PRES_VIS", "word": "scarf", "wordID": 1245, "conditions": [18, 1200, "v", 18000], "trial": 0, "serialpos": 4, "trial_type": "single-stim", "trial_index": 25, "time_elapsed": 2685430, "internal_node_id": "0.0-16.0"}}, {"uniqueid": "MTK1204:3KOPY89HM997Z2LVETRTGYX84QD3JK", "current_trial": 26, "dateTime": 1513461087982, "trialdata": {"rt": -1, "stimulus": "<p id=\"stim\">WHISTLE</p>", "key_press": -1, "type": "PRES_VIS", "word": "whistle", "wordID": 1605, "conditions": [18, 1200, "v", 18000], "trial": 0, "serialpos": 5, "trial_type": "single-stim", "trial_index": 26, "time_elapsed": 2687754, "internal_node_id": "0.0-17.0"}}, {"uniqueid": "MTK1204:3KOPY89HM997Z2LVETRTGYX84QD3JK", "current_trial": 27, "dateTime": 1513461090111, "trialdata": {"rt": -1, "stimulus": "<p id=\"stim\">NOTEBOOK</p>", "key_press": -1, "type": "PRES_VIS", "word": "notebook", "wordID": 958, "conditions": [18, 1200, "v", 18000], "trial": 0, "serialpos": 6, "trial_type": "single-stim", "trial_index": 27, "time_elapsed": 2689883, "internal_node_id": "0.0-18.0"}}, {"uniqueid": "MTK1204:3KOPY89HM997Z2LVETRTGYX84QD3JK", "current_trial": 28, "dateTime": 1513461092397, "trialdata": {"rt": -1, "stimulus": "<p id=\"stim\">GRAVE</p>", "key_press": -1, "type": "PRES_VIS", "word": "grave", "wordID": 657, "conditions": [18, 1200, "v", 18000], "trial": 0, "serialpos": 7, "trial_type": "single-stim", "trial_index": 28, "time_elapsed": 2692169, "internal_node_id": "0.0-19.0"}}, {"uniqueid": "MTK1204:3KOPY89HM997Z2LVETRTGYX84QD3JK", "current_trial": 29, "dateTime": 1513461094768, "trialdata": {"rt": -1, "stimulus": "<p id=\"stim\">COD</p>", "key_press": -1, "type": "PRES_VIS", "word": "cod", "wordID": 339, "conditions": [18, 1200, "v", 18000], "trial": 0, "serialpos": 8, "trial_type": "single-stim", "trial_index": 29, "time_elapsed": 2694540, "internal_node_id": "0.0-20.0"}}, {"uniqueid": "MTK1204:3KOPY89HM997Z2LVETRTGYX84QD3JK", "current_trial": 30, "dateTime": 1513461096894, "trialdata": {"rt": -1, "stimulus": "<p id=\"stim\">PLIERS</p>", "key_press": -1, "type": "PRES_VIS", "word": "pliers", "wordID": 1088, "conditions": [18, 1200, "v", 18000], "trial": 0, "serialpos": 9, "trial_type": "single-stim", "trial_index": 30, "time_elapsed": 2696666, "internal_node_id": "0.0-21.0"}}, {"uniqueid": "MTK1204:3KOPY89HM997Z2LVETRTGYX84QD3JK", "current_trial": 31, "dateTime": 1513461098992, "trialdata": {"rt": -1, "stimulus": "<p id=\"stim\">HANDBAG</p>", "key_press": -1, "type": "PRES_VIS", "word": "handbag", "wordID": 683, "conditions": [18, 1200, "v", 18000], "trial": 0, "serialpos": 10, "trial_type": "single-stim", "trial_index": 31, "time_elapsed": 2698764, "internal_node_id": "0.0-22.0"}}, {"uniqueid": "MTK1204:3KOPY89HM997Z2LVETRTGYX84QD3JK", "current_trial": 32, "dateTime": 1513461101382, "trialdata": {"rt": -1, "stimulus": "<p id=\"stim\">MACHINE</p>", "key_press": -1, "type": "PRES_VIS", "word": "machine", "wordID": 851, "conditions": [18, 1200, "v", 18000], "trial": 0, "serialpos": 11, "trial_type": "single-stim", "trial_index": 32, "time_elapsed": 2701154, "internal_node_id": "0.0-23.0"}}, {"uniqueid": "MTK1204:3KOPY89HM997Z2LVETRTGYX84QD3JK", "current_trial": 33, "dateTime": 1513461103611, "trialdata": {"rt": -1, "stimulus": "<p id=\"stim\">EYELASH</p>", "key_press": -1, "type": "PRES_VIS", "word": "eyelash", "wordID": 545, "conditions": [18, 1200, "v", 18000], "trial": 0, "serialpos": 12, "trial_type": "single-stim", "trial_index": 33, "time_elapsed": 2703383, "internal_node_id": "0.0-24.0"}}, {"uniqueid": "MTK1204:3KOPY89HM997Z2LVETRTGYX84QD3JK", "current_trial": 34, "dateTime": 1513461105679, "trialdata": {"rt": -1, "stimulus": "<p id=\"stim\">BACON</p>", "key_press": -1, "type": "PRES_VIS", "word": "bacon", "wordID": 66, "conditions": [18, 1200, "v", 18000], "trial": 0, "serialpos": 13, "trial_type": "single-stim", "trial_index": 34, "time_elapsed": 2705451, "internal_node_id": "0.0-25.0"}}, {"uniqueid": "MTK1204:3KOPY89HM997Z2LVETRTGYX84QD3JK", "current_trial": 35, "dateTime": 1513461107997, "trialdata": {"rt": -1, "stimulus": "<p id=\"stim\">CROWN</p>", "key_press": -1, "type": "PRES_VIS", "word": "crown", "wordID": 414, "conditions": [18, 1200, "v", 18000], "trial": 0, "serialpos": 14, "trial_type": "single-stim", "trial_index": 35, "time_elapsed": 2707769, "internal_node_id": "0.0-26.0"}}, {"uniqueid": "MTK1204:3KOPY89HM997Z2LVETRTGYX84QD3JK", "current_trial": 36, "dateTime": 1513461110367, "trialdata": {"rt": -1, "stimulus": "<p id=\"stim\">CASHEW</p>", "key_press": -1, "type": "PRES_VIS", "word": "cashew", "wordID": 252, "conditions": [18, 1200, "v", 18000], "trial": 0, "serialpos": 15, "trial_type": "single-stim", "trial_index": 36, "time_elapsed": 2710139, "internal_node_id": "0.0-27.0"}}, {"uniqueid": "MTK1204:3KOPY89HM997Z2LVETRTGYX84QD3JK", "current_trial": 37, "dateTime": 1513461112758, "trialdata": {"rt": -1, "stimulus": "<p id=\"stim\">DRAWING</p>", "key_press": -1, "type": "PRES_VIS", "word": "drawing", "wordID": 493, "conditions": [18, 1200, "v", 18000], "trial": 0, "serialpos": 16, "trial_type": "single-stim", "trial_index": 37, "time_elapsed": 2712530, "internal_node_id": "0.0-28.0"}}, {"uniqueid": "MTK1204:3KOPY89HM997Z2LVETRTGYX84QD3JK", "current_trial": 38, "dateTime": 1513461115043, "trialdata": {"rt": -1, "stimulus": "<p id=\"stim\">JUNGLE</p>", "key_press": -1, "type": "PRES_VIS", "word": "jungle", "wordID": 763, "conditions": [18, 1200, "v", 18000], "trial": 0, "serialpos": 17, "trial_type": "single-stim", "trial_index": 38, "time_elapsed": 2714815, "internal_node_id": "0.0-29.0"}}, {"uniqueid": "MTK1204:3KOPY89HM997Z2LVETRTGYX84QD3JK", "current_trial": 39, "dateTime": 1513461117336, "trialdata": {"rt": -1, "stimulus": "", "key_press": -1, "type": "PRE_RECALL_DELAY", "trial_type": "single-stim", "trial_index": 39, "time_elapsed": 2717108, "internal_node_id": "0.0-30.0-0.0"}}, {"uniqueid": "MTK1204:3KOPY89HM997Z2LVETRTGYX84QD3JK", "current_trial": 40, "dateTime": 1513461117850, "trialdata": {"rt": -1000, "stimulus": "/static/audio/400Hz.wav", "key_press": -1, "type": "PRE_RECALL_ALERT", "trial_type": "single-audio", "trial_index": 40, "time_elapsed": 2717622, "internal_node_id": "0.0-31.0"}}, {"uniqueid": "MTK1204:3KOPY89HM997Z2LVETRTGYX84QD3JK", "current_trial": 41, "dateTime": 1513461177865, "trialdata": {"rt": [3909, 5757, 6916, 8946, 11543, 26589, 26900, 30007, 30603, 31186, 39503], "recwords": ["curtain", "jello", "cow", "cod", "cashew", "", "", "", "", "", "hanger"], "type": "FREE_RECALL", "conditions": [18, 1200, "v", 18000], "trial": 0, "trial_type": "free-recall", "trial_index": 41, "time_elapsed": 2777629, "internal_node_id": "0.0-32.0-0.0"}}, {"uniqueid": "MTK1204:3KOPY89HM997Z2LVETRTGYX84QD3JK", "current_trial": 42, "dateTime": 1513461234308, "trialdata": {"rt": 54439, "key_press": 32, "type": "INSTRUCTIONS", "trial_type": "text", "trial_index": 42, "time_elapsed": 2834080, "internal_node_id": "0.0-33.0"}}, {"uniqueid": "MTK1204:3KOPY89HM997Z2LVETRTGYX84QD3JK", "current_trial": 43, "dateTime": 1513461254315, "trialdata": {"rt": [3209, 7138, 10541, 13124, 15933], "responses": ["11", "14", "21", "16", "9"], "num1": [1, 3, 8, 7, 1, 8], "num2": [7, 9, 5, 1, 7, 3], "num3": [3, 2, 8, 8, 1, 3], "type": "DISTRACTOR", "conditions": [18, 1200, "a", 18000], "trial": 1, "trial_type": "math-distractor", "trial_index": 43, "time_elapsed": 2854087, "internal_node_id": "0.0-34.0"}}, {"uniqueid": "MTK1204:3KOPY89HM997Z2LVETRTGYX84QD3JK", "current_trial": 44, "dateTime": 1513461257326, "trialdata": {"rt": -1, "stimulus": "<p id=\"stim\">10</p>", "key_press": -1, "trial_type": "single-stim", "trial_index": 44, "time_elapsed": 2857098, "internal_node_id": "0.0-35.0-0.0"}}, {"uniqueid": "MTK1204:3KOPY89HM997Z2LVETRTGYX84QD3JK", "current_trial": 45, "dateTime": 1513461258326, "trialdata": {"rt": -1, "stimulus": "<p id=\"stim\">9</p>", "key_press": -1, "trial_type": "single-stim", "trial_index": 45, "time_elapsed": 2858098, "internal_node_id": "0.0-35.0-1.0"}}, {"uniqueid": "MTK1204:3KOPY89HM997Z2LVETRTGYX84QD3JK", "current_trial": 46, "dateTime": 1513461259327, "trialdata": {"rt": -1, "stimulus": "<p id=\"stim\">8</p>", "key_press": -1, "trial_type": "single-stim", "trial_index": 46, "time_elapsed": 2859099, "internal_node_id": "0.0-35.0-2.0"}}, {"uniqueid": "MTK1204:3KOPY89HM997Z2LVETRTGYX84QD3JK", "current_trial": 47, "dateTime": 1513461260327, "trialdata": {"rt": -1, "stimulus": "<p id=\"stim\">7</p>", "key_press": -1, "trial_type": "single-stim", "trial_index": 47, "time_elapsed": 2860099, "internal_node_id": "0.0-35.0-3.0"}}, {"uniqueid": "MTK1204:3KOPY89HM997Z2LVETRTGYX84QD3JK", "current_trial": 48, "dateTime": 1513461261331, "trialdata": {"rt": -1, "stimulus": "<p id=\"stim\">6</p>", "key_press": -1, "trial_type": "single-stim", "trial_index": 48, "time_elapsed": 2861103, "internal_node_id": "0.0-35.0-4.0"}}, {"uniqueid": "MTK1204:3KOPY89HM997Z2LVETRTGYX84QD3JK", "current_trial": 49, "dateTime": 1513461262331, "trialdata": {"rt": -1, "stimulus": "<p id=\"stim\">5</p>", "key_press": -1, "trial_type": "single-stim", "trial_index": 49, "time_elapsed": 2862103, "internal_node_id": "0.0-35.0-5.0"}}, {"uniqueid": "MTK1204:3KOPY89HM997Z2LVETRTGYX84QD3JK", "current_trial": 50, "dateTime": 1513461263334, "trialdata": {"rt": -1, "stimulus": "<p id=\"stim\">4</p>", "key_press": -1, "trial_type": "single-stim", "trial_index": 50, "time_elapsed": 2863106, "internal_node_id": "0.0-35.0-6.0"}}, {"uniqueid": "MTK1204:3KOPY89HM997Z2LVETRTGYX84QD3JK", "current_trial": 51, "dateTime": 1513461264334, "trialdata": {"rt": -1, "stimulus": "<p id=\"stim\">3</p>", "key_press": -1, "trial_type": "single-stim", "trial_index": 51, "time_elapsed": 2864106, "internal_node_id": "0.0-35.0-7.0"}}, {"uniqueid": "MTK1204:3KOPY89HM997Z2LVETRTGYX84QD3JK", "current_trial": 52, "dateTime": 1513461265335, "trialdata": {"rt": -1, "stimulus": "<p id=\"stim\">2</p>", "key_press": -1, "trial_type": "single-stim", "trial_index": 52, "time_elapsed": 2865107, "internal_node_id": "0.0-35.0-8.0"}}, {"uniqueid": "MTK1204:3KOPY89HM997Z2LVETRTGYX84QD3JK", "current_trial": 53, "dateTime": 1513461266339, "trialdata": {"rt": -1, "stimulus": "<p id=\"stim\">1</p>", "key_press": -1, "trial_type": "single-stim", "trial_index": 53, "time_elapsed": 2866111, "internal_node_id": "0.0-35.0-9.0"}}, {"uniqueid": "MTK1204:3KOPY89HM997Z2LVETRTGYX84QD3JK", "current_trial": 54, "dateTime": 1513461267840, "trialdata": {"rt": -1, "stimulus": "<p id=\"stim\">+</p>", "key_press": -1, "type": "FIXATION", "trial_type": "single-stim", "trial_index": 54, "time_elapsed": 2867612, "internal_node_id": "0.0-36.0-0.0"}}, {"uniqueid": "MTK1204:3KOPY89HM997Z2LVETRTGYX84QD3JK", "current_trial": 55, "dateTime": 1513461270094, "trialdata": {"rt": -1000, "stimulus": "/static/audio/wordpool/HELMET.wav", "key_press": -1, "type": "PRES_AUD", "word": "helmet", "wordID": 701, "conditions": [18, 1200, "a", 18000], "trial": 1, "serialpos": 0, "trial_type": "single-audio", "trial_index": 55, "time_elapsed": 2869866, "internal_node_id": "0.0-37.0"}}, {"uniqueid": "MTK1204:3KOPY89HM997Z2LVETRTGYX84QD3JK", "current_trial": 56, "dateTime": 1513461272184, "trialdata": {"rt": -1000, "stimulus": "/static/audio/wordpool/DENTIST.wav", "key_press": -1, "type": "PRES_AUD", "word": "dentist", "wordID": 446, "conditions": [18, 1200, "a", 18000], "trial": 1, "serialpos": 1, "trial_type": "single-audio", "trial_index": 56, "time_elapsed": 2871956, "internal_node_id": "0.0-38.0"}}, {"uniqueid": "MTK1204:3KOPY89HM997Z2LVETRTGYX84QD3JK", "current_trial": 57, "dateTime": 1513461274494, "trialdata": {"rt": -1000, "stimulus": "/static/audio/wordpool/BUNNY.wav", "key_press": -1, "type": "PRES_AUD", "word": "bunny", "wordID": 197, "conditions": [18, 1200, "a", 18000], "trial": 1, "serialpos": 2, "trial_type": "single-audio", "trial_index": 57, "time_elapsed": 2874266, "internal_node_id": "0.0-39.0"}}, {"uniqueid": "MTK1204:3KOPY89HM997Z2LVETRTGYX84QD3JK", "current_trial": 58, "dateTime": 1513461276843, "trialdata": {"rt": -1000, "stimulus": "/static/audio/wordpool/HOSTESS.wav", "key_press": -1, "type": "PRES_AUD", "word": "hostess", "wordID": 722, "conditions": [18, 1200, "a", 18000], "trial": 1, "serialpos": 3, "trial_type": "single-audio", "trial_index": 58, "time_elapsed": 2876615, "internal_node_id": "0.0-40.0"}}, {"uniqueid": "MTK1204:3KOPY89HM997Z2LVETRTGYX84QD3JK", "current_trial": 59, "dateTime": 1513461278904, "trialdata": {"rt": -1000, "stimulus": "/static/audio/wordpool/BADGE.wav", "key_press": -1, "type": "PRES_AUD", "word": "badge", "wordID": 67, "conditions": [18, 1200, "a", 18000], "trial": 1, "serialpos": 4, "trial_type": "single-audio", "trial_index": 59, "time_elapsed": 2878676, "internal_node_id": "0.0-41.0"}}, {"uniqueid": "MTK1204:3KOPY89HM997Z2LVETRTGYX84QD3JK", "current_trial": 60, "dateTime": 1513461280967, "trialdata": {"rt": -1000, "stimulus": "/static/audio/wordpool/COWBOY.wav", "key_press": -1, "type": "PRES_AUD", "word": "cowboy", "wordID": 394, "conditions": [18, 1200, "a", 18000], "trial": 1, "serialpos": 5, "trial_type": "single-audio", "trial_index": 60, "time_elapsed": 2880739, "internal_node_id": "0.0-42.0"}}, {"uniqueid": "MTK1204:3KOPY89HM997Z2LVETRTGYX84QD3JK", "current_trial": 61, "dateTime": 1513461283199, "trialdata": {"rt": -1000, "stimulus": "/static/audio/wordpool/ROBIN.wav", "key_press": -1, "type": "PRES_AUD", "word": "robin", "wordID": 1198, "conditions": [18, 1200, "a", 18000], "trial": 1, "serialpos": 6, "trial_type": "single-audio", "trial_index": 61, "time_elapsed": 2882971, "internal_node_id": "0.0-43.0"}}, {"uniqueid": "MTK1204:3KOPY89HM997Z2LVETRTGYX84QD3JK", "current_trial": 62, "dateTime": 1513461285508, "trialdata": {"rt": -1000, "stimulus": "/static/audio/wordpool/MONSTER.wav", "key_press": -1, "type": "PRES_AUD", "word": "monster", "wordID": 911, "conditions": [18, 1200, "a", 18000], "trial": 1, "serialpos": 7, "trial_type": "single-audio", "trial_index": 62, "time_elapsed": 2885280, "internal_node_id": "0.0-44.0"}}, {"uniqueid": "MTK1204:3KOPY89HM997Z2LVETRTGYX84QD3JK", "current_trial": 63, "dateTime": 1513461287766, "trialdata": {"rt": -1000, "stimulus": "/static/audio/wordpool/GUARD.wav", "key_press": -1, "type": "PRES_AUD", "word": "guard", "wordID": 666, "conditions": [18, 1200, "a", 18000], "trial": 1, "serialpos": 8, "trial_type": "single-audio", "trial_index": 63, "time_elapsed": 2887538, "internal_node_id": "0.0-45.0"}}, {"uniqueid": "MTK1204:3KOPY89HM997Z2LVETRTGYX84QD3JK", "current_trial": 64, "dateTime": 1513461289998, "trialdata": {"rt": -1000, "stimulus": "/static/audio/wordpool/LASER.wav", "key_press": -1, "type": "PRES_AUD", "word": "laser", "wordID": 800, "conditions": [18, 1200, "a", 18000], "trial": 1, "serialpos": 9, "trial_type": "single-audio", "trial_index": 64, "time_elapsed": 2889770, "internal_node_id": "0.0-46.0"}}, {"uniqueid": "MTK1204:3KOPY89HM997Z2LVETRTGYX84QD3JK", "current_trial": 65, "dateTime": 1513461292136, "trialdata": {"rt": -1000, "stimulus": "/static/audio/wordpool/OUTDOORS.wav", "key_press": -1, "type": "PRES_AUD", "word": "outdoors", "wordID": 986, "conditions": [18, 1200, "a", 18000], "trial": 1, "serialpos": 10, "trial_type": "single-audio", "trial_index": 65, "time_elapsed": 2891908, "internal_node_id": "0.0-47.0"}}, {"uniqueid": "MTK1204:3KOPY89HM997Z2LVETRTGYX84QD3JK", "current_trial": 66, "dateTime": 1513461294469, "trialdata": {"rt": -1000, "stimulus": "/static/audio/wordpool/NURSE.wav", "key_press": -1, "type": "PRES_AUD", "word": "nurse", "wordID": 962, "conditions": [18, 1200, "a", 18000], "trial": 1, "serialpos": 11, "trial_type": "single-audio", "trial_index": 66, "time_elapsed": 2894241, "internal_node_id": "0.0-48.0"}}, {"uniqueid": "MTK1204:3KOPY89HM997Z2LVETRTGYX84QD3JK", "current_trial": 67, "dateTime": 1513461296651, "trialdata": {"rt": -1000, "stimulus": "/static/audio/wordpool/GHETTO.wav", "key_press": -1, "type": "PRES_AUD", "word": "ghetto", "wordID": 632, "conditions": [18, 1200, "a", 18000], "trial": 1, "serialpos": 12, "trial_type": "single-audio", "trial_index": 67, "time_elapsed": 2896423, "internal_node_id": "0.0-49.0"}}, {"uniqueid": "MTK1204:3KOPY89HM997Z2LVETRTGYX84QD3JK", "current_trial": 68, "dateTime": 1513461298748, "trialdata": {"rt": -1000, "stimulus": "/static/audio/wordpool/CAMEL.wav", "key_press": -1, "type": "PRES_AUD", "word": "camel", "wordID": 222, "conditions": [18, 1200, "a", 18000], "trial": 1, "serialpos": 13, "trial_type": "single-audio", "trial_index": 68, "time_elapsed": 2898520, "internal_node_id": "0.0-50.0"}}, {"uniqueid": "MTK1204:3KOPY89HM997Z2LVETRTGYX84QD3JK", "current_trial": 69, "dateTime": 1513461300934, "trialdata": {"rt": -1000, "stimulus": "/static/audio/wordpool/TORTOISE.wav", "key_press": -1, "type": "PRES_AUD", "word": "tortoise", "wordID": 1485, "conditions": [18, 1200, "a", 18000], "trial": 1, "serialpos": 14, "trial_type": "single-audio", "trial_index": 69, "time_elapsed": 2900706, "internal_node_id": "0.0-51.0"}}, {"uniqueid": "MTK1204:3KOPY89HM997Z2LVETRTGYX84QD3JK", "current_trial": 70, "dateTime": 1513461303232, "trialdata": {"rt": -1000, "stimulus": "/static/audio/wordpool/CHIPMUNK.wav", "key_press": -1, "type": "PRES_AUD", "word": "chipmunk", "wordID": 303, "conditions": [18, 1200, "a", 18000], "trial": 1, "serialpos": 15, "trial_type": "single-audio", "trial_index": 70, "time_elapsed": 2903004, "internal_node_id": "0.0-52.0"}}, {"uniqueid": "MTK1204:3KOPY89HM997Z2LVETRTGYX84QD3JK", "current_trial": 71, "dateTime": 1513461305558, "trialdata": {"rt": -1000, "stimulus": "/static/audio/wordpool/OFFICE.wav", "key_press": -1, "type": "PRES_AUD", "word": "office", "wordID": 971, "conditions": [18, 1200, "a", 18000], "trial": 1, "serialpos": 16, "trial_type": "single-audio", "trial_index": 71, "time_elapsed": 2905330, "internal_node_id": "0.0-53.0"}}, {"uniqueid": "MTK1204:3KOPY89HM997Z2LVETRTGYX84QD3JK", "current_trial": 72, "dateTime": 1513461307942, "trialdata": {"rt": 2281.3333333333503, "stimulus": "/static/audio/wordpool/HATCHET.wav", "key_press": 175, "type": "PRES_AUD", "word": "hatchet", "wordID": 690, "conditions": [18, 1200, "a", 18000], "trial": 1, "serialpos": 17, "trial_type": "single-audio", "trial_index": 72, "time_elapsed": 2907714, "internal_node_id": "0.0-54.0"}}, {"uniqueid": "MTK1204:3KOPY89HM997Z2LVETRTGYX84QD3JK", "current_trial": 73, "dateTime": 1513461309171, "trialdata": {"rt": 509, "stimulus": "", "key_press": 175, "type": "PRE_RECALL_DELAY", "trial_type": "single-stim", "trial_index": 73, "time_elapsed": 2908943, "internal_node_id": "0.0-55.0-0.0"}}, {"uniqueid": "MTK1204:3KOPY89HM997Z2LVETRTGYX84QD3JK", "current_trial": 74, "dateTime": 1513461309674, "trialdata": {"rt": -91.99999999964348, "stimulus": "/static/audio/400Hz.wav", "key_press": 175, "type": "PRE_RECALL_ALERT", "trial_type": "single-audio", "trial_index": 74, "time_elapsed": 2909446, "internal_node_id": "0.0-56.0"}}, {"uniqueid": "MTK1204:3KOPY89HM997Z2LVETRTGYX84QD3JK", "current_trial": 75, "dateTime": 1513461369694, "trialdata": {"rt": [3149, 4837, 6856, 8143, 18868], "recwords": ["robin", "hatchet", "nurse", "robin", "hatchet"], "type": "FREE_RECALL", "conditions": [18, 1200, "a", 18000], "trial": 1, "trial_type": "free-recall", "trial_index": 75, "time_elapsed": 2969454, "internal_node_id": "0.0-57.0-0.0"}}, {"uniqueid": "MTK1204:3KOPY89HM997Z2LVETRTGYX84QD3JK", "current_trial": 76, "dateTime": 1513461380737, "trialdata": {"rt": 9023, "key_press": 32, "type": "INSTRUCTIONS", "trial_type": "text", "trial_index": 76, "time_elapsed": 2980493, "internal_node_id": "0.0-58.0"}}, {"uniqueid": "MTK1204:3KOPY89HM997Z2LVETRTGYX84QD3JK", "current_trial": 77, "dateTime": 1513461405741, "trialdata": {"rt": [10072, 14733, 17047], "responses": ["13", "18", "16"], "num1": [3, 7, 1, 8], "num2": [2, 9, 7, 9], "num3": [8, 2, 8, 7], "type": "DISTRACTOR", "conditions": [24, 1600, "a", 24000], "trial": 2, "trial_type": "math-distractor", "trial_index": 77, "time_elapsed": 3005513, "internal_node_id": "0.0-59.0"}}, {"uniqueid": "MTK1204:3KOPY89HM997Z2LVETRTGYX84QD3JK", "current_trial": 78, "dateTime": 1513461408746, "trialdata": {"rt": -1, "stimulus": "<p id=\"stim\">10</p>", "key_press": -1, "trial_type": "single-stim", "trial_index": 78, "time_elapsed": 3008518, "internal_node_id": "0.0-60.0-0.0"}}, {"uniqueid": "MTK1204:3KOPY89HM997Z2LVETRTGYX84QD3JK", "current_trial": 79, "dateTime": 1513461409748, "trialdata": {"rt": -1, "stimulus": "<p id=\"stim\">9</p>", "key_press": -1, "trial_type": "single-stim", "trial_index": 79, "time_elapsed": 3009520, "internal_node_id": "0.0-60.0-1.0"}}, {"uniqueid": "MTK1204:3KOPY89HM997Z2LVETRTGYX84QD3JK", "current_trial": 80, "dateTime": 1513461410753, "trialdata": {"rt": -1, "stimulus": "<p id=\"stim\">8</p>", "key_press": -1, "trial_type": "single-stim", "trial_index": 80, "time_elapsed": 3010525, "internal_node_id": "0.0-60.0-2.0"}}, {"uniqueid": "MTK1204:3KOPY89HM997Z2LVETRTGYX84QD3JK", "current_trial": 81, "dateTime": 1513461411753, "trialdata": {"rt": -1, "stimulus": "<p id=\"stim\">7</p>", "key_press": -1, "trial_type": "single-stim", "trial_index": 81, "time_elapsed": 3011525, "internal_node_id": "0.0-60.0-3.0"}}, {"uniqueid": "MTK1204:3KOPY89HM997Z2LVETRTGYX84QD3JK", "current_trial": 82, "dateTime": 1513461412759, "trialdata": {"rt": -1, "stimulus": "<p id=\"stim\">6</p>", "key_press": -1, "trial_type": "single-stim", "trial_index": 82, "time_elapsed": 3012531, "internal_node_id": "0.0-60.0-4.0"}}, {"uniqueid": "MTK1204:3KOPY89HM997Z2LVETRTGYX84QD3JK", "current_trial": 83, "dateTime": 1513461413759, "trialdata": {"rt": -1, "stimulus": "<p id=\"stim\">5</p>", "key_press": -1, "trial_type": "single-stim", "trial_index": 83, "time_elapsed": 3013531, "internal_node_id": "0.0-60.0-5.0"}}, {"uniqueid": "MTK1204:3KOPY89HM997Z2LVETRTGYX84QD3JK", "current_trial": 84, "dateTime": 1513461414760, "trialdata": {"rt": -1, "stimulus": "<p id=\"stim\">4</p>", "key_press": -1, "trial_type": "single-stim", "trial_index": 84, "time_elapsed": 3014532, "internal_node_id": "0.0-60.0-6.0"}}, {"uniqueid": "MTK1204:3KOPY89HM997Z2LVETRTGYX84QD3JK", "current_trial": 85, "dateTime": 1513461415760, "trialdata": {"rt": -1, "stimulus": "<p id=\"stim\">3</p>", "key_press": -1, "trial_type": "single-stim", "trial_index": 85, "time_elapsed": 3015532, "internal_node_id": "0.0-60.0-7.0"}}, {"uniqueid": "MTK1204:3KOPY89HM997Z2LVETRTGYX84QD3JK", "current_trial": 86, "dateTime": 1513461416760, "trialdata": {"rt": -1, "stimulus": "<p id=\"stim\">2</p>", "key_press": -1, "trial_type": "single-stim", "trial_index": 86, "time_elapsed": 3016532, "internal_node_id": "0.0-60.0-8.0"}}, {"uniqueid": "MTK1204:3KOPY89HM997Z2LVETRTGYX84QD3JK", "current_trial": 87, "dateTime": 1513461417760, "trialdata": {"rt": -1, "stimulus": "<p id=\"stim\">1</p>", "key_press": -1, "trial_type": "single-stim", "trial_index": 87, "time_elapsed": 3017532, "internal_node_id": "0.0-60.0-9.0"}}, {"uniqueid": "MTK1204:3KOPY89HM997Z2LVETRTGYX84QD3JK", "current_trial": 88, "dateTime": 1513461419260, "trialdata": {"rt": -1, "stimulus": "<p id=\"stim\">+</p>", "key_press": -1, "type": "FIXATION", "trial_type": "single-stim", "trial_index": 88, "time_elapsed": 3019032, "internal_node_id": "0.0-61.0-0.0"}}, {"uniqueid": "MTK1204:3KOPY89HM997Z2LVETRTGYX84QD3JK", "current_trial": 89, "dateTime": 1513461421806, "trialdata": {"rt": -1000, "stimulus": "/static/audio/wordpool/VICTIM.wav", "key_press": -1, "type": "PRES_AUD", "word": "victim", "wordID": 1561, "conditions": [24, 1600, "a", 24000], "trial": 2, "serialpos": 0, "trial_type": "single-audio", "trial_index": 89, "time_elapsed": 3021578, "internal_node_id": "0.0-62.0"}}, {"uniqueid": "MTK1204:3KOPY89HM997Z2LVETRTGYX84QD3JK", "current_trial": 90, "dateTime": 1513461424468, "trialdata": {"rt": -1000, "stimulus": "/static/audio/wordpool/SUSPECT.wav", "key_press": -1, "type": "PRES_AUD", "word": "suspect", "wordID": 1414, "conditions": [24, 1600, "a", 24000], "trial": 2, "serialpos": 1, "trial_type": "single-audio", "trial_index": 90, "time_elapsed": 3024240, "internal_node_id": "0.0-63.0"}}, {"uniqueid": "MTK1204:3KOPY89HM997Z2LVETRTGYX84QD3JK", "current_trial": 91, "dateTime": 1513461427212, "trialdata": {"rt": -1000, "stimulus": "/static/audio/wordpool/DOUGHNUT.wav", "key_press": -1, "type": "PRES_AUD", "word": "doughnut", "wordID": 489, "conditions": [24, 1600, "a", 24000], "trial": 2, "serialpos": 2, "trial_type": "single-audio", "trial_index": 91, "time_elapsed": 3026984, "internal_node_id": "0.0-64.0"}}, {"uniqueid": "MTK1204:3KOPY89HM997Z2LVETRTGYX84QD3JK", "current_trial": 92, "dateTime": 1513461429975, "trialdata": {"rt": -1000, "stimulus": "/static/audio/wordpool/DORM.wav", "key_press": -1, "type": "PRES_AUD", "word": "dorm", "wordID": 487, "conditions": [24, 1600, "a", 24000], "trial": 2, "serialpos": 3, "trial_type": "single-audio", "trial_index": 92, "time_elapsed": 3029747, "internal_node_id": "0.0-65.0"}}, {"uniqueid": "MTK1204:3KOPY89HM997Z2LVETRTGYX84QD3JK", "current_trial": 93, "dateTime": 1513461432398, "trialdata": {"rt": -1000, "stimulus": "/static/audio/wordpool/BANK.wav", "key_press": -1, "type": "PRES_AUD", "word": "bank", "wordID": 82, "conditions": [24, 1600, "a", 24000], "trial": 2, "serialpos": 4, "trial_type": "single-audio", "trial_index": 93, "time_elapsed": 3032170, "internal_node_id": "0.0-66.0"}}, {"uniqueid": "MTK1204:3KOPY89HM997Z2LVETRTGYX84QD3JK", "current_trial": 94, "dateTime": 1513461435053, "trialdata": {"rt": -1000, "stimulus": "/static/audio/wordpool/TEACHER.wav", "key_press": -1, "type": "PRES_AUD", "word": "teacher", "wordID": 1439, "conditions": [24, 1600, "a", 24000], "trial": 2, "serialpos": 5, "trial_type": "single-audio", "trial_index": 94, "time_elapsed": 3034825, "internal_node_id": "0.0-67.0"}}, {"uniqueid": "MTK1204:3KOPY89HM997Z2LVETRTGYX84QD3JK", "current_trial": 95, "dateTime": 1513461437805, "trialdata": {"rt": -1000, "stimulus": "/static/audio/wordpool/SADDLE.wav", "key_press": -1, "type": "PRES_AUD", "word": "saddle", "wordID": 1220, "conditions": [24, 1600, "a", 24000], "trial": 2, "serialpos": 6, "trial_type": "single-audio", "trial_index": 95, "time_elapsed": 3037577, "internal_node_id": "0.0-68.0"}}, {"uniqueid": "MTK1204:3KOPY89HM997Z2LVETRTGYX84QD3JK", "current_trial": 96, "dateTime": 1513461440366, "trialdata": {"rt": -1000, "stimulus": "/static/audio/wordpool/WARDROBE.wav", "key_press": -1, "type": "PRES_AUD", "word": "wardrobe", "wordID": 1586, "conditions": [24, 1600, "a", 24000], "trial": 2, "serialpos": 7, "trial_type": "single-audio", "trial_index": 96, "time_elapsed": 3040138, "internal_node_id": "0.0-69.0"}}, {"uniqueid": "MTK1204:3KOPY89HM997Z2LVETRTGYX84QD3JK", "current_trial": 97, "dateTime": 1513461443083, "trialdata": {"rt": -1000, "stimulus": "/static/audio/wordpool/STUDENT.wav", "key_press": -1, "type": "PRES_AUD", "word": "student", "wordID": 1394, "conditions": [24, 1600, "a", 24000], "trial": 2, "serialpos": 8, "trial_type": "single-audio", "trial_index": 97, "time_elapsed": 3042855, "internal_node_id": "0.0-70.0"}}, {"uniqueid": "MTK1204:3KOPY89HM997Z2LVETRTGYX84QD3JK", "current_trial": 98, "dateTime": 1513461445818, "trialdata": {"rt": -1000, "stimulus": "/static/audio/wordpool/PIANO.wav", "key_press": -1, "type": "PRES_AUD", "word": "piano", "wordID": 1056, "conditions": [24, 1600, "a", 24000], "trial": 2, "serialpos": 9, "trial_type": "single-audio", "trial_index": 98, "time_elapsed": 3045590, "internal_node_id": "0.0-71.0"}}, {"uniqueid": "MTK1204:3KOPY89HM997Z2LVETRTGYX84QD3JK", "current_trial": 99, "dateTime": 1513461448361, "trialdata": {"rt": -1000, "stimulus": "/static/audio/wordpool/SWORD.wav", "key_press": -1, "type": "PRES_AUD", "word": "sword", "wordID": 1422, "conditions": [24, 1600, "a", 24000], "trial": 2, "serialpos": 10, "trial_type": "single-audio", "trial_index": 99, "time_elapsed": 3048133, "internal_node_id": "0.0-72.0"}}, {"uniqueid": "MTK1204:3KOPY89HM997Z2LVETRTGYX84QD3JK", "current_trial": 100, "dateTime": 1513461451070, "trialdata": {"rt": -1000, "stimulus": "/static/audio/wordpool/HOOK.wav", "key_press": -1, "type": "PRES_AUD", "word": "hook", "wordID": 714, "conditions": [24, 1600, "a", 24000], "trial": 2, "serialpos": 11, "trial_type": "single-audio", "trial_index": 100, "time_elapsed": 3050842, "internal_node_id": "0.0-73.0"}}, {"uniqueid": "MTK1204:3KOPY89HM997Z2LVETRTGYX84QD3JK", "current_trial": 101, "dateTime": 1513461453851, "trialdata": {"rt": -1000, "stimulus": "/static/audio/wordpool/SNACK.wav", "key_press": -1, "type": "PRES_AUD", "word": "snack", "wordID": 1330, "conditions": [24, 1600, "a", 24000], "trial": 2, "serialpos": 12, "trial_type": "single-audio", "trial_index": 101, "time_elapsed": 3053623, "internal_node_id": "0.0-74.0"}}, {"uniqueid": "MTK1204:3KOPY89HM997Z2LVETRTGYX84QD3JK", "current_trial": 102, "dateTime": 1513461456420, "trialdata": {"rt": -1000, "stimulus": "/static/audio/wordpool/RELISH.wav", "key_press": -1, "type": "PRES_AUD", "word": "relish", "wordID": 1182, "conditions": [24, 1600, "a", 24000], "trial": 2, "serialpos": 13, "trial_type": "single-audio", "trial_index": 102, "time_elapsed": 3056192, "internal_node_id": "0.0-75.0"}}, {"uniqueid": "MTK1204:3KOPY89HM997Z2LVETRTGYX84QD3JK", "current_trial": 103, "dateTime": 1513461459068, "trialdata": {"rt": -1000, "stimulus": "/static/audio/wordpool/MAILMAN.wav", "key_press": -1, "type": "PRES_AUD", "word": "mailman", "wordID": 857, "conditions": [24, 1600, "a", 24000], "trial": 2, "serialpos": 14, "trial_type": "single-audio", "trial_index": 103, "time_elapsed": 3058840, "internal_node_id": "0.0-76.0"}}, {"uniqueid": "MTK1204:3KOPY89HM997Z2LVETRTGYX84QD3JK", "current_trial": 104, "dateTime": 1513461461755, "trialdata": {"rt": -1000, "stimulus": "/static/audio/wordpool/DIVER.wav", "key_press": -1, "type": "PRES_AUD", "word": "diver", "wordID": 475, "conditions": [24, 1600, "a", 24000], "trial": 2, "serialpos": 15, "trial_type": "single-audio", "trial_index": 104, "time_elapsed": 3061527, "internal_node_id": "0.0-77.0"}}, {"uniqueid": "MTK1204:3KOPY89HM997Z2LVETRTGYX84QD3JK", "current_trial": 105, "dateTime": 1513461464395, "trialdata": {"rt": -1000, "stimulus": "/static/audio/wordpool/KETCHUP.wav", "key_press": -1, "type": "PRES_AUD", "word": "ketchup", "wordID": 770, "conditions": [24, 1600, "a", 24000], "trial": 2, "serialpos": 16, "trial_type": "single-audio", "trial_index": 105, "time_elapsed": 3064167, "internal_node_id": "0.0-78.0"}}, {"uniqueid": "MTK1204:3KOPY89HM997Z2LVETRTGYX84QD3JK", "current_trial": 106, "dateTime": 1513461467074, "trialdata": {"rt": -1000, "stimulus": "/static/audio/wordpool/FOOT.wav", "key_press": -1, "type": "PRES_AUD", "word": "foot", "wordID": 589, "conditions": [24, 1600, "a", 24000], "trial": 2, "serialpos": 17, "trial_type": "single-audio", "trial_index": 106, "time_elapsed": 3066845, "internal_node_id": "0.0-79.0"}}, {"uniqueid": "MTK1204:3KOPY89HM997Z2LVETRTGYX84QD3JK", "current_trial": 107, "dateTime": 1513461469647, "trialdata": {"rt": -1000, "stimulus": "/static/audio/wordpool/GALLON.wav", "key_press": -1, "type": "PRES_AUD", "word": "gallon", "wordID": 617, "conditions": [24, 1600, "a", 24000], "trial": 2, "serialpos": 18, "trial_type": "single-audio", "trial_index": 107, "time_elapsed": 3069419, "internal_node_id": "0.0-80.0"}}, {"uniqueid": "MTK1204:3KOPY89HM997Z2LVETRTGYX84QD3JK", "current_trial": 108, "dateTime": 1513461472239, "trialdata": {"rt": -1000, "stimulus": "/static/audio/wordpool/BRANDY.wav", "key_press": -1, "type": "PRES_AUD", "word": "brandy", "wordID": 168, "conditions": [24, 1600, "a", 24000], "trial": 2, "serialpos": 19, "trial_type": "single-audio", "trial_index": 108, "time_elapsed": 3072011, "internal_node_id": "0.0-81.0"}}, {"uniqueid": "MTK1204:3KOPY89HM997Z2LVETRTGYX84QD3JK", "current_trial": 109, "dateTime": 1513461474898, "trialdata": {"rt": -1000, "stimulus": "/static/audio/wordpool/STOVE.wav", "key_press": -1, "type": "PRES_AUD", "word": "stove", "wordID": 1387, "conditions": [24, 1600, "a", 24000], "trial": 2, "serialpos": 20, "trial_type": "single-audio", "trial_index": 109, "time_elapsed": 3074670, "internal_node_id": "0.0-82.0"}}, {"uniqueid": "MTK1204:3KOPY89HM997Z2LVETRTGYX84QD3JK", "current_trial": 110, "dateTime": 1513461477508, "trialdata": {"rt": -1000, "stimulus": "/static/audio/wordpool/TOASTER.wav", "key_press": -1, "type": "PRES_AUD", "word": "toaster", "wordID": 1471, "conditions": [24, 1600, "a", 24000], "trial": 2, "serialpos": 21, "trial_type": "single-audio", "trial_index": 110, "time_elapsed": 3077280, "internal_node_id": "0.0-83.0"}}, {"uniqueid": "MTK1204:3KOPY89HM997Z2LVETRTGYX84QD3JK", "current_trial": 111, "dateTime": 1513461480287, "trialdata": {"rt": -1000, "stimulus": "/static/audio/wordpool/POPCORN.wav", "key_press": -1, "type": "PRES_AUD", "word": "popcorn", "wordID": 1103, "conditions": [24, 1600, "a", 24000], "trial": 2, "serialpos": 22, "trial_type": "single-audio", "trial_index": 111, "time_elapsed": 3080059, "internal_node_id": "0.0-84.0"}}, {"uniqueid": "MTK1204:3KOPY89HM997Z2LVETRTGYX84QD3JK", "current_trial": 112, "dateTime": 1513461482909, "trialdata": {"rt": -1000, "stimulus": "/static/audio/wordpool/COUNTRY.wav", "key_press": -1, "type": "PRES_AUD", "word": "country", "wordID": 387, "conditions": [24, 1600, "a", 24000], "trial": 2, "serialpos": 23, "trial_type": "single-audio", "trial_index": 112, "time_elapsed": 3082681, "internal_node_id": "0.0-85.0"}}, {"uniqueid": "MTK1204:3KOPY89HM997Z2LVETRTGYX84QD3JK", "current_trial": 113, "dateTime": 1513461484134, "trialdata": {"rt": -1, "stimulus": "", "key_press": -1, "type": "PRE_RECALL_DELAY", "trial_type": "single-stim", "trial_index": 113, "time_elapsed": 3083906, "internal_node_id": "0.0-86.0-0.0"}}, {"uniqueid": "MTK1204:3KOPY89HM997Z2LVETRTGYX84QD3JK", "current_trial": 114, "dateTime": 1513461484635, "trialdata": {"rt": -1000, "stimulus": "/static/audio/400Hz.wav", "key_press": -1, "type": "PRE_RECALL_ALERT", "trial_type": "single-audio", "trial_index": 114, "time_elapsed": 3084407, "internal_node_id": "0.0-87.0"}}, {"uniqueid": "MTK1204:3KOPY89HM997Z2LVETRTGYX84QD3JK", "current_trial": 115, "dateTime": 1513461544651, "trialdata": {"rt": [3350, 4358, 5777, 8368], "recwords": ["victim", "donut", "foot", "country"], "type": "FREE_RECALL", "conditions": [24, 1600, "a", 24000], "trial": 2, "trial_type": "free-recall", "trial_index": 115, "time_elapsed": 3144411, "internal_node_id": "0.0-88.0-0.0"}}, {"uniqueid": "MTK1204:3KOPY89HM997Z2LVETRTGYX84QD3JK", "current_trial": 116, "dateTime": 1513461549383, "trialdata": {"rt": 2725, "key_press": 32, "type": "INSTRUCTIONS", "trial_type": "text", "trial_index": 116, "time_elapsed": 3149155, "internal_node_id": "0.0-89.0"}}, {"uniqueid": "MTK1204:3KOPY89HM997Z2LVETRTGYX84QD3JK", "current_trial": 117, "dateTime": 1513461563389, "trialdata": {"rt": [4207, 7110], "responses": ["13", "8"], "num1": [5, 3, 9], "num2": [2, 2, 7], "num3": [6, 3, 6], "type": "DISTRACTOR", "conditions": [12, 800, "v", 12000], "trial": 3, "trial_type": "math-distractor", "trial_index": 117, "time_elapsed": 3163161, "internal_node_id": "0.0-90.0"}}, {"uniqueid": "MTK1204:3KOPY89HM997Z2LVETRTGYX84QD3JK", "current_trial": 118, "dateTime": 1513461566389, "trialdata": {"rt": -1, "stimulus": "<p id=\"stim\">10</p>", "key_press": -1, "trial_type": "single-stim", "trial_index": 118, "time_elapsed": 3166161, "internal_node_id": "0.0-91.0-0.0"}}, {"uniqueid": "MTK1204:3KOPY89HM997Z2LVETRTGYX84QD3JK", "current_trial": 119, "dateTime": 1513461567389, "trialdata": {"rt": -1, "stimulus": "<p id=\"stim\">9</p>", "key_press": -1, "trial_type": "single-stim", "trial_index": 119, "time_elapsed": 3167161, "internal_node_id": "0.0-91.0-1.0"}}, {"uniqueid": "MTK1204:3KOPY89HM997Z2LVETRTGYX84QD3JK", "current_trial": 120, "dateTime": 1513461568391, "trialdata": {"rt": -1, "stimulus": "<p id=\"stim\">8</p>", "key_press": -1, "trial_type": "single-stim", "trial_index": 120, "time_elapsed": 3168163, "internal_node_id": "0.0-91.0-2.0"}}, {"uniqueid": "MTK1204:3KOPY89HM997Z2LVETRTGYX84QD3JK", "current_trial": 121, "dateTime": 1513461569391, "trialdata": {"rt": -1, "stimulus": "<p id=\"stim\">7</p>", "key_press": -1, "trial_type": "single-stim", "trial_index": 121, "time_elapsed": 3169163, "internal_node_id": "0.0-91.0-3.0"}}, {"uniqueid": "MTK1204:3KOPY89HM997Z2LVETRTGYX84QD3JK", "current_trial": 122, "dateTime": 1513461570391, "trialdata": {"rt": -1, "stimulus": "<p id=\"stim\">6</p>", "key_press": -1, "trial_type": "single-stim", "trial_index": 122, "time_elapsed": 3170163, "internal_node_id": "0.0-91.0-4.0"}}, {"uniqueid": "MTK1204:3KOPY89HM997Z2LVETRTGYX84QD3JK", "current_trial": 123, "dateTime": 1513461571395, "trialdata": {"rt": -1, "stimulus": "<p id=\"stim\">5</p>", "key_press": -1, "trial_type": "single-stim", "trial_index": 123, "time_elapsed": 3171167, "internal_node_id": "0.0-91.0-5.0"}}, {"uniqueid": "MTK1204:3KOPY89HM997Z2LVETRTGYX84QD3JK", "current_trial": 124, "dateTime": 1513461572395, "trialdata": {"rt": -1, "stimulus": "<p id=\"stim\">4</p>", "key_press": -1, "trial_type": "single-stim", "trial_index": 124, "time_elapsed": 3172167, "internal_node_id": "0.0-91.0-6.0"}}, {"uniqueid": "MTK1204:3KOPY89HM997Z2LVETRTGYX84QD3JK", "current_trial": 125, "dateTime": 1513461573396, "trialdata": {"rt": -1, "stimulus": "<p id=\"stim\">3</p>", "key_press": -1, "trial_type": "single-stim", "trial_index": 125, "time_elapsed": 3173168, "internal_node_id": "0.0-91.0-7.0"}}, {"uniqueid": "MTK1204:3KOPY89HM997Z2LVETRTGYX84QD3JK", "current_trial": 126, "dateTime": 1513461574400, "trialdata": {"rt": -1, "stimulus": "<p id=\"stim\">2</p>", "key_press": -1, "trial_type": "single-stim", "trial_index": 126, "time_elapsed": 3174172, "internal_node_id": "0.0-91.0-8.0"}}, {"uniqueid": "MTK1204:3KOPY89HM997Z2LVETRTGYX84QD3JK", "current_trial": 127, "dateTime": 1513461575403, "trialdata": {"rt": -1, "stimulus": "<p id=\"stim\">1</p>", "key_press": -1, "trial_type": "single-stim", "trial_index": 127, "time_elapsed": 3175175, "internal_node_id": "0.0-91.0-9.0"}}, {"uniqueid": "MTK1204:3KOPY89HM997Z2LVETRTGYX84QD3JK", "current_trial": 128, "dateTime": 1513461576906, "trialdata": {"rt": -1, "stimulus": "<p id=\"stim\">+</p>", "key_press": -1, "type": "FIXATION", "trial_type": "single-stim", "trial_index": 128, "time_elapsed": 3176678, "internal_node_id": "0.0-92.0-0.0"}}, {"uniqueid": "MTK1204:3KOPY89HM997Z2LVETRTGYX84QD3JK", "current_trial": 129, "dateTime": 1513461577710, "trialdata": {"rt": -1, "stimulus": "<p id=\"stim\">CLIMBER</p>", "key_press": -1, "type": "PRES_VIS", "word": "climber", "wordID": 322, "conditions": [12, 800, "v", 12000], "trial": 3, "serialpos": 0, "trial_type": "single-stim", "trial_index": 129, "time_elapsed": 3177482, "internal_node_id": "0.0-93.0"}}, {"uniqueid": "MTK1204:3KOPY89HM997Z2LVETRTGYX84QD3JK", "current_trial": 130, "dateTime": 1513461579477, "trialdata": {"rt": -1, "stimulus": "<p id=\"stim\">RIFLE</p>", "key_press": -1, "type": "PRES_VIS", "word": "rifle", "wordID": 1191, "conditions": [12, 800, "v", 12000], "trial": 3, "serialpos": 1, "trial_type": "single-stim", "trial_index": 130, "time_elapsed": 3179249, "internal_node_id": "0.0-94.0"}}, {"uniqueid": "MTK1204:3KOPY89HM997Z2LVETRTGYX84QD3JK", "current_trial": 131, "dateTime": 1513461581237, "trialdata": {"rt": -1, "stimulus": "<p id=\"stim\">WRENCH</p>", "key_press": -1, "type": "PRES_VIS", "word": "wrench", "wordID": 1624, "conditions": [12, 800, "v", 12000], "trial": 3, "serialpos": 2, "trial_type": "single-stim", "trial_index": 131, "time_elapsed": 3181008, "internal_node_id": "0.0-95.0"}}, {"uniqueid": "MTK1204:3KOPY89HM997Z2LVETRTGYX84QD3JK", "current_trial": 132, "dateTime": 1513461582949, "trialdata": {"rt": -1, "stimulus": "<p id=\"stim\">GRILL</p>", "key_press": -1, "type": "PRES_VIS", "word": "grill", "wordID": 660, "conditions": [12, 800, "v", 12000], "trial": 3, "serialpos": 3, "trial_type": "single-stim", "trial_index": 132, "time_elapsed": 3182721, "internal_node_id": "0.0-96.0"}}, {"uniqueid": "MTK1204:3KOPY89HM997Z2LVETRTGYX84QD3JK", "current_trial": 133, "dateTime": 1513461584731, "trialdata": {"rt": -1, "stimulus": "<p id=\"stim\">COCOON</p>", "key_press": -1, "type": "PRES_VIS", "word": "cocoon", "wordID": 338, "conditions": [12, 800, "v", 12000], "trial": 3, "serialpos": 4, "trial_type": "single-stim", "trial_index": 133, "time_elapsed": 3184503, "internal_node_id": "0.0-97.0"}}, {"uniqueid": "MTK1204:3KOPY89HM997Z2LVETRTGYX84QD3JK", "current_trial": 134, "dateTime": 1513461586369, "trialdata": {"rt": -1, "stimulus": "<p id=\"stim\">STATUE</p>", "key_press": -1, "type": "PRES_VIS", "word": "statue", "wordID": 1373, "conditions": [12, 800, "v", 12000], "trial": 3, "serialpos": 5, "trial_type": "single-stim", "trial_index": 134, "time_elapsed": 3186140, "internal_node_id": "0.0-98.0"}}, {"uniqueid": "MTK1204:3KOPY89HM997Z2LVETRTGYX84QD3JK", "current_trial": 135, "dateTime": 1513461588177, "trialdata": {"rt": -1, "stimulus": "<p id=\"stim\">SCULPTURE</p>", "key_press": -1, "type": "PRES_VIS", "word": "sculpture", "wordID": 1257, "conditions": [12, 800, "v", 12000], "trial": 3, "serialpos": 6, "trial_type": "single-stim", "trial_index": 135, "time_elapsed": 3187949, "internal_node_id": "0.0-99.0"}}, {"uniqueid": "MTK1204:3KOPY89HM997Z2LVETRTGYX84QD3JK", "current_trial": 136, "dateTime": 1513461590087, "trialdata": {"rt": -1, "stimulus": "<p id=\"stim\">SHERIFF</p>", "key_press": -1, "type": "PRES_VIS", "word": "sheriff", "wordID": 1283, "conditions": [12, 800, "v", 12000], "trial": 3, "serialpos": 7, "trial_type": "single-stim", "trial_index": 136, "time_elapsed": 3189859, "internal_node_id": "0.0-100.0"}}, {"uniqueid": "MTK1204:3KOPY89HM997Z2LVETRTGYX84QD3JK", "current_trial": 137, "dateTime": 1513461591958, "trialdata": {"rt": -1, "stimulus": "<p id=\"stim\">HIKER</p>", "key_press": -1, "type": "PRES_VIS", "word": "hiker", "wordID": 707, "conditions": [12, 800, "v", 12000], "trial": 3, "serialpos": 8, "trial_type": "single-stim", "trial_index": 137, "time_elapsed": 3191730, "internal_node_id": "0.0-101.0"}}, {"uniqueid": "MTK1204:3KOPY89HM997Z2LVETRTGYX84QD3JK", "current_trial": 138, "dateTime": 1513461593673, "trialdata": {"rt": -1, "stimulus": "<p id=\"stim\">WORLD</p>", "key_press": -1, "type": "PRES_VIS", "word": "world", "wordID": 1621, "conditions": [12, 800, "v", 12000], "trial": 3, "serialpos": 9, "trial_type": "single-stim", "trial_index": 138, "time_elapsed": 3193445, "internal_node_id": "0.0-102.0"}}, {"uniqueid": "MTK1204:3KOPY89HM997Z2LVETRTGYX84QD3JK", "current_trial": 139, "dateTime": 1513461595439, "trialdata": {"rt": -1, "stimulus": "<p id=\"stim\">FRIEND</p>", "key_press": -1, "type": "PRES_VIS", "word": "friend", "wordID": 605, "conditions": [12, 800, "v", 12000], "trial": 3, "serialpos": 10, "trial_type": "single-stim", "trial_index": 139, "time_elapsed": 3195211, "internal_node_id": "0.0-103.0"}}, {"uniqueid": "MTK1204:3KOPY89HM997Z2LVETRTGYX84QD3JK", "current_trial": 140, "dateTime": 1513461597385, "trialdata": {"rt": -1, "stimulus": "<p id=\"stim\">SPOON</p>", "key_press": -1, "type": "PRES_VIS", "word": "spoon", "wordID": 1356, "conditions": [12, 800, "v", 12000], "trial": 3, "serialpos": 11, "trial_type": "single-stim", "trial_index": 140, "time_elapsed": 3197157, "internal_node_id": "0.0-104.0"}}, {"uniqueid": "MTK1204:3KOPY89HM997Z2LVETRTGYX84QD3JK", "current_trial": 141, "dateTime": 1513461599630, "trialdata": {"rt": -1, "stimulus": "", "key_press": -1, "type": "PRE_RECALL_DELAY", "trial_type": "single-stim", "trial_index": 141, "time_elapsed": 3199402, "internal_node_id": "0.0-105.0-0.0"}}, {"uniqueid": "MTK1204:3KOPY89HM997Z2LVETRTGYX84QD3JK", "current_trial": 142, "dateTime": 1513461600137, "trialdata": {"rt": -1000, "stimulus": "/static/audio/400Hz.wav", "key_press": -1, "type": "PRE_RECALL_ALERT", "trial_type": "single-audio", "trial_index": 142, "time_elapsed": 3199909, "internal_node_id": "0.0-106.0"}}, {"uniqueid": "MTK1204:3KOPY89HM997Z2LVETRTGYX84QD3JK", "current_trial": 143, "dateTime": 1513461660159, "trialdata": {"rt": [2906, 4099, 5440, 7075], "recwords": ["hiker", "world", "spoon", "climber"], "type": "FREE_RECALL", "conditions": [12, 800, "v", 12000], "trial": 3, "trial_type": "free-recall", "trial_index": 143, "time_elapsed": 3259919, "internal_node_id": "0.0-107.0-0.0"}}, {"uniqueid": "MTK1204:3KOPY89HM997Z2LVETRTGYX84QD3JK", "current_trial": 144, "dateTime": 1513461664270, "trialdata": {"rt": 2109, "key_press": 32, "type": "INSTRUCTIONS", "trial_type": "text", "trial_index": 144, "time_elapsed": 3264042, "internal_node_id": "0.0-108.0"}}, {"uniqueid": "MTK1204:3KOPY89HM997Z2LVETRTGYX84QD3JK", "current_trial": 145, "dateTime": 1513461678276, "trialdata": {"rt": [7170, 9792], "responses": ["15", "12"], "num1": [2, 3, 9], "num2": [9, 7, 6], "num3": [4, 2, 9], "type": "DISTRACTOR", "conditions": [24, 800, "a", 12000], "trial": 4, "trial_type": "math-distractor", "trial_index": 145, "time_elapsed": 3278048, "internal_node_id": "0.0-109.0"}}, {"uniqueid": "MTK1204:3KOPY89HM997Z2LVETRTGYX84QD3JK", "current_trial": 146, "dateTime": 1513461681276, "trialdata": {"rt": -1, "stimulus": "<p id=\"stim\">10</p>", "key_press": -1, "trial_type": "single-stim", "trial_index": 146, "time_elapsed": 3281048, "internal_node_id": "0.0-110.0-0.0"}}, {"uniqueid": "MTK1204:3KOPY89HM997Z2LVETRTGYX84QD3JK", "current_trial": 147, "dateTime": 1513461682276, "trialdata": {"rt": -1, "stimulus": "<p id=\"stim\">9</p>", "key_press": -1, "trial_type": "single-stim", "trial_index": 147, "time_elapsed": 3282048, "internal_node_id": "0.0-110.0-1.0"}}, {"uniqueid": "MTK1204:3KOPY89HM997Z2LVETRTGYX84QD3JK", "current_trial": 148, "dateTime": 1513461683279, "trialdata": {"rt": -1, "stimulus": "<p id=\"stim\">8</p>", "key_press": -1, "trial_type": "single-stim", "trial_index": 148, "time_elapsed": 3283051, "internal_node_id": "0.0-110.0-2.0"}}, {"uniqueid": "MTK1204:3KOPY89HM997Z2LVETRTGYX84QD3JK", "current_trial": 149, "dateTime": 1513461684279, "trialdata": {"rt": -1, "stimulus": "<p id=\"stim\">7</p>", "key_press": -1, "trial_type": "single-stim", "trial_index": 149, "time_elapsed": 3284051, "internal_node_id": "0.0-110.0-3.0"}}, {"uniqueid": "MTK1204:3KOPY89HM997Z2LVETRTGYX84QD3JK", "current_trial": 150, "dateTime": 1513461685279, "trialdata": {"rt": -1, "stimulus": "<p id=\"stim\">6</p>", "key_press": -1, "trial_type": "single-stim", "trial_index": 150, "time_elapsed": 3285051, "internal_node_id": "0.0-110.0-4.0"}}, {"uniqueid": "MTK1204:3KOPY89HM997Z2LVETRTGYX84QD3JK", "current_trial": 151, "dateTime": 1513461686281, "trialdata": {"rt": -1, "stimulus": "<p id=\"stim\">5</p>", "key_press": -1, "trial_type": "single-stim", "trial_index": 151, "time_elapsed": 3286052, "internal_node_id": "0.0-110.0-5.0"}}, {"uniqueid": "MTK1204:3KOPY89HM997Z2LVETRTGYX84QD3JK", "current_trial": 152, "dateTime": 1513461687284, "trialdata": {"rt": -1, "stimulus": "<p id=\"stim\">4</p>", "key_press": -1, "trial_type": "single-stim", "trial_index": 152, "time_elapsed": 3287056, "internal_node_id": "0.0-110.0-6.0"}}, {"uniqueid": "MTK1204:3KOPY89HM997Z2LVETRTGYX84QD3JK", "current_trial": 153, "dateTime": 1513461688284, "trialdata": {"rt": -1, "stimulus": "<p id=\"stim\">3</p>", "key_press": -1, "trial_type": "single-stim", "trial_index": 153, "time_elapsed": 3288056, "internal_node_id": "0.0-110.0-7.0"}}, {"uniqueid": "MTK1204:3KOPY89HM997Z2LVETRTGYX84QD3JK", "current_trial": 154, "dateTime": 1513461689284, "trialdata": {"rt": -1, "stimulus": "<p id=\"stim\">2</p>", "key_press": -1, "trial_type": "single-stim", "trial_index": 154, "time_elapsed": 3289056, "internal_node_id": "0.0-110.0-8.0"}}, {"uniqueid": "MTK1204:3KOPY89HM997Z2LVETRTGYX84QD3JK", "current_trial": 155, "dateTime": 1513461690286, "trialdata": {"rt": -1, "stimulus": "<p id=\"stim\">1</p>", "key_press": -1, "trial_type": "single-stim", "trial_index": 155, "time_elapsed": 3290058, "internal_node_id": "0.0-110.0-9.0"}}, {"uniqueid": "MTK1204:3KOPY89HM997Z2LVETRTGYX84QD3JK", "current_trial": 156, "dateTime": 1513461691788, "trialdata": {"rt": -1, "stimulus": "<p id=\"stim\">+</p>", "key_press": -1, "type": "FIXATION", "trial_type": "single-stim", "trial_index": 156, "time_elapsed": 3291560, "internal_node_id": "0.0-111.0-0.0"}}, {"uniqueid": "MTK1204:3KOPY89HM997Z2LVETRTGYX84QD3JK", "current_trial": 157, "dateTime": 1513461693656, "trialdata": {"rt": -1000, "stimulus": "/static/audio/wordpool/PERMIT.wav", "key_press": -1, "type": "PRES_AUD", "word": "permit", "wordID": 1050, "conditions": [24, 800, "a", 12000], "trial": 4, "serialpos": 0, "trial_type": "single-audio", "trial_index": 157, "time_elapsed": 3293428, "internal_node_id": "0.0-112.0"}}, {"uniqueid": "MTK1204:3KOPY89HM997Z2LVETRTGYX84QD3JK", "current_trial": 158, "dateTime": 1513461695638, "trialdata": {"rt": -1000, "stimulus": "/static/audio/wordpool/LUMBER.wav", "key_press": -1, "type": "PRES_AUD", "word": "lumber", "wordID": 847, "conditions": [24, 800, "a", 12000], "trial": 4, "serialpos": 1, "trial_type": "single-audio", "trial_index": 158, "time_elapsed": 3295410, "internal_node_id": "0.0-113.0"}}, {"uniqueid": "MTK1204:3KOPY89HM997Z2LVETRTGYX84QD3JK", "current_trial": 159, "dateTime": 1513461697544, "trialdata": {"rt": -1000, "stimulus": "/static/audio/wordpool/FRAGRANCE.wav", "key_press": -1, "type": "PRES_AUD", "word": "fragrance", "wordID": 598, "conditions": [24, 800, "a", 12000], "trial": 4, "serialpos": 2, "trial_type": "single-audio", "trial_index": 159, "time_elapsed": 3297316, "internal_node_id": "0.0-114.0"}}, {"uniqueid": "MTK1204:3KOPY89HM997Z2LVETRTGYX84QD3JK", "current_trial": 160, "dateTime": 1513461699185, "trialdata": {"rt": -1000, "stimulus": "/static/audio/wordpool/CRATER.wav", "key_press": -1, "type": "PRES_AUD", "word": "crater", "wordID": 399, "conditions": [24, 800, "a", 12000], "trial": 4, "serialpos": 3, "trial_type": "single-audio", "trial_index": 160, "time_elapsed": 3298957, "internal_node_id": "0.0-115.0"}}, {"uniqueid": "MTK1204:3KOPY89HM997Z2LVETRTGYX84QD3JK", "current_trial": 161, "dateTime": 1513461701169, "trialdata": {"rt": -1000, "stimulus": "/static/audio/wordpool/LAVA.wav", "key_press": -1, "type": "PRES_AUD", "word": "lava", "wordID": 803, "conditions": [24, 800, "a", 12000], "trial": 4, "serialpos": 4, "trial_type": "single-audio", "trial_index": 161, "time_elapsed": 3300941, "internal_node_id": "0.0-116.0"}}, {"uniqueid": "MTK1204:3KOPY89HM997Z2LVETRTGYX84QD3JK", "current_trial": 162, "dateTime": 1513461702902, "trialdata": {"rt": -1000, "stimulus": "/static/audio/wordpool/BINDER.wav", "key_press": -1, "type": "PRES_AUD", "word": "binder", "wordID": 126, "conditions": [24, 800, "a", 12000], "trial": 4, "serialpos": 5, "trial_type": "single-audio", "trial_index": 162, "time_elapsed": 3302674, "internal_node_id": "0.0-117.0"}}, {"uniqueid": "MTK1204:3KOPY89HM997Z2LVETRTGYX84QD3JK", "current_trial": 163, "dateTime": 1513461704638, "trialdata": {"rt": -1000, "stimulus": "/static/audio/wordpool/SHIRT.wav", "key_press": -1, "type": "PRES_AUD", "word": "shirt", "wordID": 1286, "conditions": [24, 800, "a", 12000], "trial": 4, "serialpos": 6, "trial_type": "single-audio", "trial_index": 163, "time_elapsed": 3304410, "internal_node_id": "0.0-118.0"}}, {"uniqueid": "MTK1204:3KOPY89HM997Z2LVETRTGYX84QD3JK", "current_trial": 164, "dateTime": 1513461706437, "trialdata": {"rt": -1000, "stimulus": "/static/audio/wordpool/PIGEON.wav", "key_press": -1, "type": "PRES_AUD", "word": "pigeon", "wordID": 1064, "conditions": [24, 800, "a", 12000], "trial": 4, "serialpos": 7, "trial_type": "single-audio", "trial_index": 164, "time_elapsed": 3306209, "internal_node_id": "0.0-119.0"}}, {"uniqueid": "MTK1204:3KOPY89HM997Z2LVETRTGYX84QD3JK", "current_trial": 165, "dateTime": 1513461708202, "trialdata": {"rt": -1000, "stimulus": "/static/audio/wordpool/DONKEY.wav", "key_press": -1, "type": "PRES_AUD", "word": "donkey", "wordID": 483, "conditions": [24, 800, "a", 12000], "trial": 4, "serialpos": 8, "trial_type": "single-audio", "trial_index": 165, "time_elapsed": 3307974, "internal_node_id": "0.0-120.0"}}, {"uniqueid": "MTK1204:3KOPY89HM997Z2LVETRTGYX84QD3JK", "current_trial": 166, "dateTime": 1513461710012, "trialdata": {"rt": -1000, "stimulus": "/static/audio/wordpool/SHOVEL.wav", "key_press": -1, "type": "PRES_AUD", "word": "shovel", "wordID": 1294, "conditions": [24, 800, "a", 12000], "trial": 4, "serialpos": 9, "trial_type": "single-audio", "trial_index": 166, "time_elapsed": 3309784, "internal_node_id": "0.0-121.0"}}, {"uniqueid": "MTK1204:3KOPY89HM997Z2LVETRTGYX84QD3JK", "current_trial": 167, "dateTime": 1513461711778, "trialdata": {"rt": -1000, "stimulus": "/static/audio/wordpool/HEADBAND.wav", "key_press": -1, "type": "PRES_AUD", "word": "headband", "wordID": 695, "conditions": [24, 800, "a", 12000], "trial": 4, "serialpos": 10, "trial_type": "single-audio", "trial_index": 167, "time_elapsed": 3311550, "internal_node_id": "0.0-122.0"}}, {"uniqueid": "MTK1204:3KOPY89HM997Z2LVETRTGYX84QD3JK", "current_trial": 168, "dateTime": 1513461713450, "trialdata": {"rt": -1000, "stimulus": "/static/audio/wordpool/CHILD.wav", "key_press": -1, "type": "PRES_AUD", "word": "child", "wordID": 298, "conditions": [24, 800, "a", 12000], "trial": 4, "serialpos": 11, "trial_type": "single-audio", "trial_index": 168, "time_elapsed": 3313222, "internal_node_id": "0.0-123.0"}}, {"uniqueid": "MTK1204:3KOPY89HM997Z2LVETRTGYX84QD3JK", "current_trial": 169, "dateTime": 1513461715210, "trialdata": {"rt": -1000, "stimulus": "/static/audio/wordpool/BLOUSE.wav", "key_press": -1, "type": "PRES_AUD", "word": "blouse", "wordID": 138, "conditions": [24, 800, "a", 12000], "trial": 4, "serialpos": 12, "trial_type": "single-audio", "trial_index": 169, "time_elapsed": 3314982, "internal_node_id": "0.0-124.0"}}, {"uniqueid": "MTK1204:3KOPY89HM997Z2LVETRTGYX84QD3JK", "current_trial": 170, "dateTime": 1513461716904, "trialdata": {"rt": -1000, "stimulus": "/static/audio/wordpool/LONDON.wav", "key_press": -1, "type": "PRES_AUD", "word": "london", "wordID": 842, "conditions": [24, 800, "a", 12000], "trial": 4, "serialpos": 13, "trial_type": "single-audio", "trial_index": 170, "time_elapsed": 3316676, "internal_node_id": "0.0-125.0"}}, {"uniqueid": "MTK1204:3KOPY89HM997Z2LVETRTGYX84QD3JK", "current_trial": 171, "dateTime": 1513461718827, "trialdata": {"rt": -1000, "stimulus": "/static/audio/wordpool/CUPBOARD.wav", "key_press": -1, "type": "PRES_AUD", "word": "cupboard", "wordID": 424, "conditions": [24, 800, "a", 12000], "trial": 4, "serialpos": 14, "trial_type": "single-audio", "trial_index": 171, "time_elapsed": 3318599, "internal_node_id": "0.0-126.0"}}, {"uniqueid": "MTK1204:3KOPY89HM997Z2LVETRTGYX84QD3JK", "current_trial": 172, "dateTime": 1513461720474, "trialdata": {"rt": -1000, "stimulus": "/static/audio/wordpool/PASTRY.wav", "key_press": -1, "type": "PRES_AUD", "word": "pastry", "wordID": 1021, "conditions": [24, 800, "a", 12000], "trial": 4, "serialpos": 15, "trial_type": "single-audio", "trial_index": 172, "time_elapsed": 3320246, "internal_node_id": "0.0-127.0"}}, {"uniqueid": "MTK1204:3KOPY89HM997Z2LVETRTGYX84QD3JK", "current_trial": 173, "dateTime": 1513461722440, "trialdata": {"rt": -1000, "stimulus": "/static/audio/wordpool/CHEMIST.wav", "key_press": -1, "type": "PRES_AUD", "word": "chemist", "wordID": 291, "conditions": [24, 800, "a", 12000], "trial": 4, "serialpos": 16, "trial_type": "single-audio", "trial_index": 173, "time_elapsed": 3322212, "internal_node_id": "0.0-128.0"}}, {"uniqueid": "MTK1204:3KOPY89HM997Z2LVETRTGYX84QD3JK", "current_trial": 174, "dateTime": 1513461724295, "trialdata": {"rt": -1000, "stimulus": "/static/audio/wordpool/WRIST.wav", "key_press": -1, "type": "PRES_AUD", "word": "wrist", "wordID": 1625, "conditions": [24, 800, "a", 12000], "trial": 4, "serialpos": 17, "trial_type": "single-audio", "trial_index": 174, "time_elapsed": 3324067, "internal_node_id": "0.0-129.0"}}, {"uniqueid": "MTK1204:3KOPY89HM997Z2LVETRTGYX84QD3JK", "current_trial": 175, "dateTime": 1513461725958, "trialdata": {"rt": -1000, "stimulus": "/static/audio/wordpool/CELLAR.wav", "key_press": -1, "type": "PRES_AUD", "word": "cellar", "wordID": 266, "conditions": [24, 800, "a", 12000], "trial": 4, "serialpos": 18, "trial_type": "single-audio", "trial_index": 175, "time_elapsed": 3325730, "internal_node_id": "0.0-130.0"}}, {"uniqueid": "MTK1204:3KOPY89HM997Z2LVETRTGYX84QD3JK", "current_trial": 176, "dateTime": 1513461727936, "trialdata": {"rt": -1000, "stimulus": "/static/audio/wordpool/BASEMENT.wav", "key_press": -1, "type": "PRES_AUD", "word": "basement", "wordID": 93, "conditions": [24, 800, "a", 12000], "trial": 4, "serialpos": 19, "trial_type": "single-audio", "trial_index": 176, "time_elapsed": 3327708, "internal_node_id": "0.0-131.0"}}, {"uniqueid": "MTK1204:3KOPY89HM997Z2LVETRTGYX84QD3JK", "current_trial": 177, "dateTime": 1513461729825, "trialdata": {"rt": -1000, "stimulus": "/static/audio/wordpool/CHURCH.wav", "key_press": -1, "type": "PRES_AUD", "word": "church", "wordID": 306, "conditions": [24, 800, "a", 12000], "trial": 4, "serialpos": 20, "trial_type": "single-audio", "trial_index": 177, "time_elapsed": 3329597, "internal_node_id": "0.0-132.0"}}, {"uniqueid": "MTK1204:3KOPY89HM997Z2LVETRTGYX84QD3JK", "current_trial": 178, "dateTime": 1513461731606, "trialdata": {"rt": -1000, "stimulus": "/static/audio/wordpool/PRINCESS.wav", "key_press": -1, "type": "PRES_AUD", "word": "princess", "wordID": 1124, "conditions": [24, 800, "a", 12000], "trial": 4, "serialpos": 21, "trial_type": "single-audio", "trial_index": 178, "time_elapsed": 3331378, "internal_node_id": "0.0-133.0"}}, {"uniqueid": "MTK1204:3KOPY89HM997Z2LVETRTGYX84QD3JK", "current_trial": 179, "dateTime": 1513461733417, "trialdata": {"rt": -1000, "stimulus": "/static/audio/wordpool/ANKLE.wav", "key_press": -1, "type": "PRES_AUD", "word": "ankle", "wordID": 23, "conditions": [24, 800, "a", 12000], "trial": 4, "serialpos": 22, "trial_type": "single-audio", "trial_index": 179, "time_elapsed": 3333189, "internal_node_id": "0.0-134.0"}}, {"uniqueid": "MTK1204:3KOPY89HM997Z2LVETRTGYX84QD3JK", "current_trial": 180, "dateTime": 1513461735041, "trialdata": {"rt": -1000, "stimulus": "/static/audio/wordpool/CARRIAGE.wav", "key_press": -1, "type": "PRES_AUD", "word": "carriage", "wordID": 247, "conditions": [24, 800, "a", 12000], "trial": 4, "serialpos": 23, "trial_type": "single-audio", "trial_index": 180, "time_elapsed": 3334813, "internal_node_id": "0.0-135.0"}}, {"uniqueid": "MTK1204:3KOPY89HM997Z2LVETRTGYX84QD3JK", "current_trial": 181, "dateTime": 1513461736301, "trialdata": {"rt": -1, "stimulus": "", "key_press": -1, "type": "PRE_RECALL_DELAY", "trial_type": "single-stim", "trial_index": 181, "time_elapsed": 3336072, "internal_node_id": "0.0-136.0-0.0"}}, {"uniqueid": "MTK1204:3KOPY89HM997Z2LVETRTGYX84QD3JK", "current_trial": 182, "dateTime": 1513461736809, "trialdata": {"rt": -1000, "stimulus": "/static/audio/400Hz.wav", "key_press": -1, "type": "PRE_RECALL_ALERT", "trial_type": "single-audio", "trial_index": 182, "time_elapsed": 3336581, "internal_node_id": "0.0-137.0"}}, {"uniqueid": "MTK1204:3KOPY89HM997Z2LVETRTGYX84QD3JK", "current_trial": 183, "dateTime": 1513461796828, "trialdata": {"rt": [2254, 6283, 7870, 10253, 26511, 27578], "recwords": ["princess", "pigeon", "carriage", "london", "child", "hamper"], "type": "FREE_RECALL", "conditions": [24, 800, "a", 12000], "trial": 4, "trial_type": "free-recall", "trial_index": 183, "time_elapsed": 3396588, "internal_node_id": "0.0-138.0-0.0"}}, {"uniqueid": "MTK1204:3KOPY89HM997Z2LVETRTGYX84QD3JK", "current_trial": 184, "dateTime": 1513461800511, "trialdata": {"rt": 1679, "key_press": 32, "type": "INSTRUCTIONS", "trial_type": "text", "trial_index": 184, "time_elapsed": 3400283, "internal_node_id": "0.0-139.0"}}, {"uniqueid": "MTK1204:3KOPY89HM997Z2LVETRTGYX84QD3JK", "current_trial": 185, "dateTime": 1513461826514, "trialdata": {"rt": [4039, 14184, 16854], "responses": ["11", "22", "10"], "num1": [2, 7, 6, 7], "num2": [6, 6, 2, 3], "num3": [3, 9, 2, 2], "type": "DISTRACTOR", "conditions": [12, 800, "a", 24000], "trial": 5, "trial_type": "math-distractor", "trial_index": 185, "time_elapsed": 3426286, "internal_node_id": "0.0-140.0"}}, {"uniqueid": "MTK1204:3KOPY89HM997Z2LVETRTGYX84QD3JK", "current_trial": 186, "dateTime": 1513461829516, "trialdata": {"rt": -1, "stimulus": "<p id=\"stim\">10</p>", "key_press": -1, "trial_type": "single-stim", "trial_index": 186, "time_elapsed": 3429288, "internal_node_id": "0.0-141.0-0.0"}}, {"uniqueid": "MTK1204:3KOPY89HM997Z2LVETRTGYX84QD3JK", "current_trial": 187, "dateTime": 1513461830516, "trialdata": {"rt": -1, "stimulus": "<p id=\"stim\">9</p>", "key_press": -1, "trial_type": "single-stim", "trial_index": 187, "time_elapsed": 3430288, "internal_node_id": "0.0-141.0-1.0"}}, {"uniqueid": "MTK1204:3KOPY89HM997Z2LVETRTGYX84QD3JK", "current_trial": 188, "dateTime": 1513461831516, "trialdata": {"rt": -1, "stimulus": "<p id=\"stim\">8</p>", "key_press": -1, "trial_type": "single-stim", "trial_index": 188, "time_elapsed": 3431288, "internal_node_id": "0.0-141.0-2.0"}}, {"uniqueid": "MTK1204:3KOPY89HM997Z2LVETRTGYX84QD3JK", "current_trial": 189, "dateTime": 1513461832517, "trialdata": {"rt": -1, "stimulus": "<p id=\"stim\">7</p>", "key_press": -1, "trial_type": "single-stim", "trial_index": 189, "time_elapsed": 3432289, "internal_node_id": "0.0-141.0-3.0"}}, {"uniqueid": "MTK1204:3KOPY89HM997Z2LVETRTGYX84QD3JK", "current_trial": 190, "dateTime": 1513461833517, "trialdata": {"rt": -1, "stimulus": "<p id=\"stim\">6</p>", "key_press": -1, "trial_type": "single-stim", "trial_index": 190, "time_elapsed": 3433289, "internal_node_id": "0.0-141.0-4.0"}}, {"uniqueid": "MTK1204:3KOPY89HM997Z2LVETRTGYX84QD3JK", "current_trial": 191, "dateTime": 1513461834520, "trialdata": {"rt": -1, "stimulus": "<p id=\"stim\">5</p>", "key_press": -1, "trial_type": "single-stim", "trial_index": 191, "time_elapsed": 3434292, "internal_node_id": "0.0-141.0-5.0"}}, {"uniqueid": "MTK1204:3KOPY89HM997Z2LVETRTGYX84QD3JK", "current_trial": 192, "dateTime": 1513461835520, "trialdata": {"rt": -1, "stimulus": "<p id=\"stim\">4</p>", "key_press": -1, "trial_type": "single-stim", "trial_index": 192, "time_elapsed": 3435292, "internal_node_id": "0.0-141.0-6.0"}}, {"uniqueid": "MTK1204:3KOPY89HM997Z2LVETRTGYX84QD3JK", "current_trial": 193, "dateTime": 1513461836522, "trialdata": {"rt": -1, "stimulus": "<p id=\"stim\">3</p>", "key_press": -1, "trial_type": "single-stim", "trial_index": 193, "time_elapsed": 3436294, "internal_node_id": "0.0-141.0-7.0"}}, {"uniqueid": "MTK1204:3KOPY89HM997Z2LVETRTGYX84QD3JK", "current_trial": 194, "dateTime": 1513461837525, "trialdata": {"rt": -1, "stimulus": "<p id=\"stim\">2</p>", "key_press": -1, "trial_type": "single-stim", "trial_index": 194, "time_elapsed": 3437297, "internal_node_id": "0.0-141.0-8.0"}}, {"uniqueid": "MTK1204:3KOPY89HM997Z2LVETRTGYX84QD3JK", "current_trial": 195, "dateTime": 1513461838529, "trialdata": {"rt": -1, "stimulus": "<p id=\"stim\">1</p>", "key_press": -1, "trial_type": "single-stim", "trial_index": 195, "time_elapsed": 3438301, "internal_node_id": "0.0-141.0-9.0"}}, {"uniqueid": "MTK1204:3KOPY89HM997Z2LVETRTGYX84QD3JK", "current_trial": 196, "dateTime": 1513461840030, "trialdata": {"rt": -1, "stimulus": "<p id=\"stim\">+</p>", "key_press": -1, "type": "FIXATION", "trial_type": "single-stim", "trial_index": 196, "time_elapsed": 3439802, "internal_node_id": "0.0-142.0-0.0"}}, {"uniqueid": "MTK1204:3KOPY89HM997Z2LVETRTGYX84QD3JK", "current_trial": 197, "dateTime": 1513461841805, "trialdata": {"rt": -1000, "stimulus": "/static/audio/wordpool/EGYPT.wav", "key_press": -1, "type": "PRES_AUD", "word": "egypt", "wordID": 518, "conditions": [12, 800, "a", 24000], "trial": 5, "serialpos": 0, "trial_type": "single-audio", "trial_index": 197, "time_elapsed": 3441577, "internal_node_id": "0.0-143.0"}}, {"uniqueid": "MTK1204:3KOPY89HM997Z2LVETRTGYX84QD3JK", "current_trial": 198, "dateTime": 1513461843802, "trialdata": {"rt": -1000, "stimulus": "/static/audio/wordpool/VALLEY.wav", "key_press": -1, "type": "PRES_AUD", "word": "valley", "wordID": 1544, "conditions": [12, 800, "a", 24000], "trial": 5, "serialpos": 1, "trial_type": "single-audio", "trial_index": 198, "time_elapsed": 3443574, "internal_node_id": "0.0-144.0"}}, {"uniqueid": "MTK1204:3KOPY89HM997Z2LVETRTGYX84QD3JK", "current_trial": 199, "dateTime": 1513461845696, "trialdata": {"rt": -1000, "stimulus": "/static/audio/wordpool/OMELET.wav", "key_press": -1, "type": "PRES_AUD", "word": "omelet", "wordID": 975, "conditions": [12, 800, "a", 24000], "trial": 5, "serialpos": 2, "trial_type": "single-audio", "trial_index": 199, "time_elapsed": 3445468, "internal_node_id": "0.0-145.0"}}, {"uniqueid": "MTK1204:3KOPY89HM997Z2LVETRTGYX84QD3JK", "current_trial": 200, "dateTime": 1513461847453, "trialdata": {"rt": -1000, "stimulus": "/static/audio/wordpool/LAMP.wav", "key_press": -1, "type": "PRES_AUD", "word": "lamp", "wordID": 797, "conditions": [12, 800, "a", 24000], "trial": 5, "serialpos": 3, "trial_type": "single-audio", "trial_index": 200, "time_elapsed": 3447225, "internal_node_id": "0.0-146.0"}}, {"uniqueid": "MTK1204:3KOPY89HM997Z2LVETRTGYX84QD3JK", "current_trial": 201, "dateTime": 1513461849241, "trialdata": {"rt": -1000, "stimulus": "/static/audio/wordpool/ACTOR.wav", "key_press": -1, "type": "PRES_AUD", "word": "actor", "wordID": 4, "conditions": [12, 800, "a", 24000], "trial": 5, "serialpos": 4, "trial_type": "single-audio", "trial_index": 201, "time_elapsed": 3449013, "internal_node_id": "0.0-147.0"}}, {"uniqueid": "MTK1204:3KOPY89HM997Z2LVETRTGYX84QD3JK", "current_trial": 202, "dateTime": 1513461850915, "trialdata": {"rt": -1000, "stimulus": "/static/audio/wordpool/PISTON.wav", "key_press": -1, "type": "PRES_AUD", "word": "piston", "wordID": 1075, "conditions": [12, 800, "a", 24000], "trial": 5, "serialpos": 5, "trial_type": "single-audio", "trial_index": 202, "time_elapsed": 3450687, "internal_node_id": "0.0-148.0"}}, {"uniqueid": "MTK1204:3KOPY89HM997Z2LVETRTGYX84QD3JK", "current_trial": 203, "dateTime": 1513461852848, "trialdata": {"rt": -1000, "stimulus": "/static/audio/wordpool/BRICK.wav", "key_press": -1, "type": "PRES_AUD", "word": "brick", "wordID": 171, "conditions": [12, 800, "a", 24000], "trial": 5, "serialpos": 6, "trial_type": "single-audio", "trial_index": 203, "time_elapsed": 3452620, "internal_node_id": "0.0-149.0"}}, {"uniqueid": "MTK1204:3KOPY89HM997Z2LVETRTGYX84QD3JK", "current_trial": 204, "dateTime": 1513461854743, "trialdata": {"rt": -1000, "stimulus": "/static/audio/wordpool/CUSTARD.wav", "key_press": -1, "type": "PRES_AUD", "word": "custard", "wordID": 428, "conditions": [12, 800, "a", 24000], "trial": 5, "serialpos": 7, "trial_type": "single-audio", "trial_index": 204, "time_elapsed": 3454515, "internal_node_id": "0.0-150.0"}}, {"uniqueid": "MTK1204:3KOPY89HM997Z2LVETRTGYX84QD3JK", "current_trial": 205, "dateTime": 1513461856446, "trialdata": {"rt": -1000, "stimulus": "/static/audio/wordpool/SCISSORS.wav", "key_press": -1, "type": "PRES_AUD", "word": "scissors", "wordID": 1249, "conditions": [12, 800, "a", 24000], "trial": 5, "serialpos": 8, "trial_type": "single-audio", "trial_index": 205, "time_elapsed": 3456218, "internal_node_id": "0.0-151.0"}}, {"uniqueid": "MTK1204:3KOPY89HM997Z2LVETRTGYX84QD3JK", "current_trial": 206, "dateTime": 1513461858414, "trialdata": {"rt": -1000, "stimulus": "/static/audio/wordpool/SCALPEL.wav", "key_press": -1, "type": "PRES_AUD", "word": "scalpel", "wordID": 1242, "conditions": [12, 800, "a", 24000], "trial": 5, "serialpos": 9, "trial_type": "single-audio", "trial_index": 206, "time_elapsed": 3458186, "internal_node_id": "0.0-152.0"}}, {"uniqueid": "MTK1204:3KOPY89HM997Z2LVETRTGYX84QD3JK", "current_trial": 207, "dateTime": 1513461860117, "trialdata": {"rt": -1000, "stimulus": "/static/audio/wordpool/PILOT.wav", "key_press": -1, "type": "PRES_AUD", "word": "pilot", "wordID": 1069, "conditions": [12, 800, "a", 24000], "trial": 5, "serialpos": 10, "trial_type": "single-audio", "trial_index": 207, "time_elapsed": 3459889, "internal_node_id": "0.0-153.0"}}, {"uniqueid": "MTK1204:3KOPY89HM997Z2LVETRTGYX84QD3JK", "current_trial": 208, "dateTime": 1513461862004, "trialdata": {"rt": -1000, "stimulus": "/static/audio/wordpool/STAPLE.wav", "key_press": -1, "type": "PRES_AUD", "word": "staple", "wordID": 1370, "conditions": [12, 800, "a", 24000], "trial": 5, "serialpos": 11, "trial_type": "single-audio", "trial_index": 208, "time_elapsed": 3461776, "internal_node_id": "0.0-154.0"}}, {"uniqueid": "MTK1204:3KOPY89HM997Z2LVETRTGYX84QD3JK", "current_trial": 209, "dateTime": 1513461863243, "trialdata": {"rt": -1, "stimulus": "", "key_press": -1, "type": "PRE_RECALL_DELAY", "trial_type": "single-stim", "trial_index": 209, "time_elapsed": 3463015, "internal_node_id": "0.0-155.0-0.0"}}, {"uniqueid": "MTK1204:3KOPY89HM997Z2LVETRTGYX84QD3JK", "current_trial": 210, "dateTime": 1513461863758, "trialdata": {"rt": -1000, "stimulus": "/static/audio/400Hz.wav", "key_press": -1, "type": "PRE_RECALL_ALERT", "trial_type": "single-audio", "trial_index": 210, "time_elapsed": 3463530, "internal_node_id": "0.0-156.0"}}, {"uniqueid": "MTK1204:3KOPY89HM997Z2LVETRTGYX84QD3JK", "current_trial": 211, "dateTime": 1513461923773, "trialdata": {"rt": [9593, 13945, 17495], "recwords": ["scalple", "staple", "piston"], "type": "FREE_RECALL", "conditions": [12, 800, "a", 24000], "trial": 5, "trial_type": "free-recall", "trial_index": 211, "time_elapsed": 3523533, "internal_node_id": "0.0-157.0-0.0"}}, {"uniqueid": "MTK1204:3KOPY89HM997Z2LVETRTGYX84QD3JK", "current_trial": 212, "dateTime": 1513461928002, "trialdata": {"rt": 2229, "key_press": 32, "type": "INSTRUCTIONS", "trial_type": "text", "trial_index": 212, "time_elapsed": 3527774, "internal_node_id": "0.0-158.0"}}, {"uniqueid": "MTK1204:3KOPY89HM997Z2LVETRTGYX84QD3JK", "current_trial": 213, "dateTime": 1513461942011, "trialdata": {"rt": [6236, 11413], "responses": ["15", "12"], "num1": [4, 1, 4], "num2": [9, 3, 7], "num3": [2, 8, 8], "type": "DISTRACTOR", "conditions": [12, 800, "a", 12000], "trial": 6, "trial_type": "math-distractor", "trial_index": 213, "time_elapsed": 3541783, "internal_node_id": "0.0-159.0"}}, {"uniqueid": "MTK1204:3KOPY89HM997Z2LVETRTGYX84QD3JK", "current_trial": 214, "dateTime": 1513461945012, "trialdata": {"rt": -1, "stimulus": "<p id=\"stim\">10</p>", "key_press": -1, "trial_type": "single-stim", "trial_index": 214, "time_elapsed": 3544784, "internal_node_id": "0.0-160.0-0.0"}}, {"uniqueid": "MTK1204:3KOPY89HM997Z2LVETRTGYX84QD3JK", "current_trial": 215, "dateTime": 1513461946016, "trialdata": {"rt": -1, "stimulus": "<p id=\"stim\">9</p>", "key_press": -1, "trial_type": "single-stim", "trial_index": 215, "time_elapsed": 3545788, "internal_node_id": "0.0-160.0-1.0"}}, {"uniqueid": "MTK1204:3KOPY89HM997Z2LVETRTGYX84QD3JK", "current_trial": 216, "dateTime": 1513461947019, "trialdata": {"rt": -1, "stimulus": "<p id=\"stim\">8</p>", "key_press": -1, "trial_type": "single-stim", "trial_index": 216, "time_elapsed": 3546791, "internal_node_id": "0.0-160.0-2.0"}}, {"uniqueid": "MTK1204:3KOPY89HM997Z2LVETRTGYX84QD3JK", "current_trial": 217, "dateTime": 1513461948020, "trialdata": {"rt": -1, "stimulus": "<p id=\"stim\">7</p>", "key_press": -1, "trial_type": "single-stim", "trial_index": 217, "time_elapsed": 3547792, "internal_node_id": "0.0-160.0-3.0"}}, {"uniqueid": "MTK1204:3KOPY89HM997Z2LVETRTGYX84QD3JK", "current_trial": 218, "dateTime": 1513461949022, "trialdata": {"rt": -1, "stimulus": "<p id=\"stim\">6</p>", "key_press": -1, "trial_type": "single-stim", "trial_index": 218, "time_elapsed": 3548794, "internal_node_id": "0.0-160.0-4.0"}}, {"uniqueid": "MTK1204:3KOPY89HM997Z2LVETRTGYX84QD3JK", "current_trial": 219, "dateTime": 1513461950024, "trialdata": {"rt": -1, "stimulus": "<p id=\"stim\">5</p>", "key_press": -1, "trial_type": "single-stim", "trial_index": 219, "time_elapsed": 3549796, "internal_node_id": "0.0-160.0-5.0"}}, {"uniqueid": "MTK1204:3KOPY89HM997Z2LVETRTGYX84QD3JK", "current_trial": 220, "dateTime": 1513461951024, "trialdata": {"rt": -1, "stimulus": "<p id=\"stim\">4</p>", "key_press": -1, "trial_type": "single-stim", "trial_index": 220, "time_elapsed": 3550796, "internal_node_id": "0.0-160.0-6.0"}}, {"uniqueid": "MTK1204:3KOPY89HM997Z2LVETRTGYX84QD3JK", "current_trial": 221, "dateTime": 1513461952024, "trialdata": {"rt": -1, "stimulus": "<p id=\"stim\">3</p>", "key_press": -1, "trial_type": "single-stim", "trial_index": 221, "time_elapsed": 3551796, "internal_node_id": "0.0-160.0-7.0"}}, {"uniqueid": "MTK1204:3KOPY89HM997Z2LVETRTGYX84QD3JK", "current_trial": 222, "dateTime": 1513461953027, "trialdata": {"rt": -1, "stimulus": "<p id=\"stim\">2</p>", "key_press": -1, "trial_type": "single-stim", "trial_index": 222, "time_elapsed": 3552799, "internal_node_id": "0.0-160.0-8.0"}}, {"uniqueid": "MTK1204:3KOPY89HM997Z2LVETRTGYX84QD3JK", "current_trial": 223, "dateTime": 1513461954029, "trialdata": {"rt": -1, "stimulus": "<p id=\"stim\">1</p>", "key_press": -1, "trial_type": "single-stim", "trial_index": 223, "time_elapsed": 3553801, "internal_node_id": "0.0-160.0-9.0"}}, {"uniqueid": "MTK1204:3KOPY89HM997Z2LVETRTGYX84QD3JK", "current_trial": 224, "dateTime": 1513461955532, "trialdata": {"rt": -1, "stimulus": "<p id=\"stim\">+</p>", "key_press": -1, "type": "FIXATION", "trial_type": "single-stim", "trial_index": 224, "time_elapsed": 3555304, "internal_node_id": "0.0-161.0-0.0"}}, {"uniqueid": "MTK1204:3KOPY89HM997Z2LVETRTGYX84QD3JK", "current_trial": 225, "dateTime": 1513461957287, "trialdata": {"rt": -1000, "stimulus": "/static/audio/wordpool/MAMMAL.wav", "key_press": -1, "type": "PRES_AUD", "word": "mammal", "wordID": 860, "conditions": [12, 800, "a", 12000], "trial": 6, "serialpos": 0, "trial_type": "single-audio", "trial_index": 225, "time_elapsed": 3557059, "internal_node_id": "0.0-162.0"}}, {"uniqueid": "MTK1204:3KOPY89HM997Z2LVETRTGYX84QD3JK", "current_trial": 226, "dateTime": 1513461959191, "trialdata": {"rt": -1000, "stimulus": "/static/audio/wordpool/STOMACH.wav", "key_press": -1, "type": "PRES_AUD", "word": "stomach", "wordID": 1383, "conditions": [12, 800, "a", 12000], "trial": 6, "serialpos": 1, "trial_type": "single-audio", "trial_index": 226, "time_elapsed": 3558963, "internal_node_id": "0.0-163.0"}}, {"uniqueid": "MTK1204:3KOPY89HM997Z2LVETRTGYX84QD3JK", "current_trial": 227, "dateTime": 1513461960989, "trialdata": {"rt": -1000, "stimulus": "/static/audio/wordpool/CHEST.wav", "key_press": -1, "type": "PRES_AUD", "word": "chest", "wordID": 294, "conditions": [12, 800, "a", 12000], "trial": 6, "serialpos": 2, "trial_type": "single-audio", "trial_index": 227, "time_elapsed": 3560761, "internal_node_id": "0.0-164.0"}}, {"uniqueid": "MTK1204:3KOPY89HM997Z2LVETRTGYX84QD3JK", "current_trial": 228, "dateTime": 1513461962799, "trialdata": {"rt": -1000, "stimulus": "/static/audio/wordpool/KLEENEX.wav", "key_press": -1, "type": "PRES_AUD", "word": "kleenex", "wordID": 781, "conditions": [12, 800, "a", 12000], "trial": 6, "serialpos": 3, "trial_type": "single-audio", "trial_index": 228, "time_elapsed": 3562571, "internal_node_id": "0.0-165.0"}}, {"uniqueid": "MTK1204:3KOPY89HM997Z2LVETRTGYX84QD3JK", "current_trial": 229, "dateTime": 1513461964722, "trialdata": {"rt": -1000, "stimulus": "/static/audio/wordpool/SUMMIT.wav", "key_press": -1, "type": "PRES_AUD", "word": "summit", "wordID": 1404, "conditions": [12, 800, "a", 12000], "trial": 6, "serialpos": 4, "trial_type": "single-audio", "trial_index": 229, "time_elapsed": 3564494, "internal_node_id": "0.0-166.0"}}, {"uniqueid": "MTK1204:3KOPY89HM997Z2LVETRTGYX84QD3JK", "current_trial": 230, "dateTime": 1513461966383, "trialdata": {"rt": -1000, "stimulus": "/static/audio/wordpool/BLUEPRINT.wav", "key_press": -1, "type": "PRES_AUD", "word": "blueprint", "wordID": 141, "conditions": [12, 800, "a", 12000], "trial": 6, "serialpos": 5, "trial_type": "single-audio", "trial_index": 230, "time_elapsed": 3566154, "internal_node_id": "0.0-167.0"}}, {"uniqueid": "MTK1204:3KOPY89HM997Z2LVETRTGYX84QD3JK", "current_trial": 231, "dateTime": 1513461968349, "trialdata": {"rt": -1000, "stimulus": "/static/audio/wordpool/MASK.wav", "key_press": -1, "type": "PRES_AUD", "word": "mask", "wordID": 875, "conditions": [12, 800, "a", 12000], "trial": 6, "serialpos": 6, "trial_type": "single-audio", "trial_index": 231, "time_elapsed": 3568121, "internal_node_id": "0.0-168.0"}}, {"uniqueid": "MTK1204:3KOPY89HM997Z2LVETRTGYX84QD3JK", "current_trial": 232, "dateTime": 1513461969972, "trialdata": {"rt": -1000, "stimulus": "/static/audio/wordpool/SHORTS.wav", "key_press": -1, "type": "PRES_AUD", "word": "shorts", "wordID": 1292, "conditions": [12, 800, "a", 12000], "trial": 6, "serialpos": 7, "trial_type": "single-audio", "trial_index": 232, "time_elapsed": 3569744, "internal_node_id": "0.0-169.0"}}, {"uniqueid": "MTK1204:3KOPY89HM997Z2LVETRTGYX84QD3JK", "current_trial": 233, "dateTime": 1513461971628, "trialdata": {"rt": -1000, "stimulus": "/static/audio/wordpool/PASSAGE.wav", "key_press": -1, "type": "PRES_AUD", "word": "passage", "wordID": 1018, "conditions": [12, 800, "a", 12000], "trial": 6, "serialpos": 8, "trial_type": "single-audio", "trial_index": 233, "time_elapsed": 3571400, "internal_node_id": "0.0-170.0"}}, {"uniqueid": "MTK1204:3KOPY89HM997Z2LVETRTGYX84QD3JK", "current_trial": 234, "dateTime": 1513461973254, "trialdata": {"rt": -1000, "stimulus": "/static/audio/wordpool/GYMNAST.wav", "key_press": -1, "type": "PRES_AUD", "word": "gymnast", "wordID": 674, "conditions": [12, 800, "a", 12000], "trial": 6, "serialpos": 9, "trial_type": "single-audio", "trial_index": 234, "time_elapsed": 3573026, "internal_node_id": "0.0-171.0"}}, {"uniqueid": "MTK1204:3KOPY89HM997Z2LVETRTGYX84QD3JK", "current_trial": 235, "dateTime": 1513461974861, "trialdata": {"rt": -1000, "stimulus": "/static/audio/wordpool/PROTON.wav", "key_press": -1, "type": "PRES_AUD", "word": "proton", "wordID": 1131, "conditions": [12, 800, "a", 12000], "trial": 6, "serialpos": 10, "trial_type": "single-audio", "trial_index": 235, "time_elapsed": 3574633, "internal_node_id": "0.0-172.0"}}, {"uniqueid": "MTK1204:3KOPY89HM997Z2LVETRTGYX84QD3JK", "current_trial": 236, "dateTime": 1513461976555, "trialdata": {"rt": -1000, "stimulus": "/static/audio/wordpool/PANTHER.wav", "key_press": -1, "type": "PRES_AUD", "word": "panther", "wordID": 1008, "conditions": [12, 800, "a", 12000], "trial": 6, "serialpos": 11, "trial_type": "single-audio", "trial_index": 236, "time_elapsed": 3576327, "internal_node_id": "0.0-173.0"}}, {"uniqueid": "MTK1204:3KOPY89HM997Z2LVETRTGYX84QD3JK", "current_trial": 237, "dateTime": 1513461977896, "trialdata": {"rt": -1, "stimulus": "", "key_press": -1, "type": "PRE_RECALL_DELAY", "trial_type": "single-stim", "trial_index": 237, "time_elapsed": 3577668, "internal_node_id": "0.0-174.0-0.0"}}, {"uniqueid": "MTK1204:3KOPY89HM997Z2LVETRTGYX84QD3JK", "current_trial": 238, "dateTime": 1513461978407, "trialdata": {"rt": -1000, "stimulus": "/static/audio/400Hz.wav", "key_press": -1, "type": "PRE_RECALL_ALERT", "trial_type": "single-audio", "trial_index": 238, "time_elapsed": 3578179, "internal_node_id": "0.0-175.0"}}, {"uniqueid": "MTK1204:3KOPY89HM997Z2LVETRTGYX84QD3JK", "current_trial": 239, "dateTime": 1513462038423, "trialdata": {"rt": [4894, 8816, 13487], "recwords": ["chest", "proton", "mammal"], "type": "FREE_RECALL", "conditions": [12, 800, "a", 12000], "trial": 6, "trial_type": "free-recall", "trial_index": 239, "time_elapsed": 3638179, "internal_node_id": "0.0-176.0-0.0"}}, {"uniqueid": "MTK1204:3KOPY89HM997Z2LVETRTGYX84QD3JK", "current_trial": 240, "dateTime": 1513462170079, "trialdata": {"rt": 129653, "key_press": 32, "type": "INSTRUCTIONS", "trial_type": "text", "trial_index": 240, "time_elapsed": 3769851, "internal_node_id": "0.0-177.0"}}, {"uniqueid": "MTK1204:3KOPY89HM997Z2LVETRTGYX84QD3JK", "current_trial": 241, "dateTime": 1513462196082, "trialdata": {"rt": [8100, 12033, 15798, 23415], "responses": ["23", "8", "16", "26"], "num1": [9, 4, 7, 9, 2], "num2": [7, 2, 1, 8, 4], "num3": [7, 2, 8, 9, 8], "type": "DISTRACTOR", "conditions": [12, 1600, "v", 24000], "trial": 7, "trial_type": "math-distractor", "trial_index": 241, "time_elapsed": 3795854, "internal_node_id": "0.0-178.0"}}, {"uniqueid": "MTK1204:3KOPY89HM997Z2LVETRTGYX84QD3JK", "current_trial": 242, "dateTime": 1513462199088, "trialdata": {"rt": -1, "stimulus": "<p id=\"stim\">10</p>", "key_press": -1, "trial_type": "single-stim", "trial_index": 242, "time_elapsed": 3798860, "internal_node_id": "0.0-179.0-0.0"}}, {"uniqueid": "MTK1204:3KOPY89HM997Z2LVETRTGYX84QD3JK", "current_trial": 243, "dateTime": 1513462200091, "trialdata": {"rt": -1, "stimulus": "<p id=\"stim\">9</p>", "key_press": -1, "trial_type": "single-stim", "trial_index": 243, "time_elapsed": 3799863, "internal_node_id": "0.0-179.0-1.0"}}, {"uniqueid": "MTK1204:3KOPY89HM997Z2LVETRTGYX84QD3JK", "current_trial": 244, "dateTime": 1513462201094, "trialdata": {"rt": -1, "stimulus": "<p id=\"stim\">8</p>", "key_press": -1, "trial_type": "single-stim", "trial_index": 244, "time_elapsed": 3800866, "internal_node_id": "0.0-179.0-2.0"}}, {"uniqueid": "MTK1204:3KOPY89HM997Z2LVETRTGYX84QD3JK", "current_trial": 245, "dateTime": 1513462202096, "trialdata": {"rt": -1, "stimulus": "<p id=\"stim\">7</p>", "key_press": -1, "trial_type": "single-stim", "trial_index": 245, "time_elapsed": 3801868, "internal_node_id": "0.0-179.0-3.0"}}, {"uniqueid": "MTK1204:3KOPY89HM997Z2LVETRTGYX84QD3JK", "current_trial": 246, "dateTime": 1513462203096, "trialdata": {"rt": -1, "stimulus": "<p id=\"stim\">6</p>", "key_press": -1, "trial_type": "single-stim", "trial_index": 246, "time_elapsed": 3802868, "internal_node_id": "0.0-179.0-4.0"}}, {"uniqueid": "MTK1204:3KOPY89HM997Z2LVETRTGYX84QD3JK", "current_trial": 247, "dateTime": 1513462204096, "trialdata": {"rt": -1, "stimulus": "<p id=\"stim\">5</p>", "key_press": -1, "trial_type": "single-stim", "trial_index": 247, "time_elapsed": 3803868, "internal_node_id": "0.0-179.0-5.0"}}, {"uniqueid": "MTK1204:3KOPY89HM997Z2LVETRTGYX84QD3JK", "current_trial": 248, "dateTime": 1513462205104, "trialdata": {"rt": -1, "stimulus": "<p id=\"stim\">4</p>", "key_press": -1, "trial_type": "single-stim", "trial_index": 248, "time_elapsed": 3804872, "internal_node_id": "0.0-179.0-6.0"}}, {"uniqueid": "MTK1204:3KOPY89HM997Z2LVETRTGYX84QD3JK", "current_trial": 249, "dateTime": 1513462206106, "trialdata": {"rt": -1, "stimulus": "<p id=\"stim\">3</p>", "key_press": -1, "trial_type": "single-stim", "trial_index": 249, "time_elapsed": 3805878, "internal_node_id": "0.0-179.0-7.0"}}, {"uniqueid": "MTK1204:3KOPY89HM997Z2LVETRTGYX84QD3JK", "current_trial": 250, "dateTime": 1513462207106, "trialdata": {"rt": -1, "stimulus": "<p id=\"stim\">2</p>", "key_press": -1, "trial_type": "single-stim", "trial_index": 250, "time_elapsed": 3806878, "internal_node_id": "0.0-179.0-8.0"}}, {"uniqueid": "MTK1204:3KOPY89HM997Z2LVETRTGYX84QD3JK", "current_trial": 251, "dateTime": 1513462208108, "trialdata": {"rt": -1, "stimulus": "<p id=\"stim\">1</p>", "key_press": -1, "trial_type": "single-stim", "trial_index": 251, "time_elapsed": 3807880, "internal_node_id": "0.0-179.0-9.0"}}, {"uniqueid": "MTK1204:3KOPY89HM997Z2LVETRTGYX84QD3JK", "current_trial": 252, "dateTime": 1513462209610, "trialdata": {"rt": -1, "stimulus": "<p id=\"stim\">+</p>", "key_press": -1, "type": "FIXATION", "trial_type": "single-stim", "trial_index": 252, "time_elapsed": 3809382, "internal_node_id": "0.0-180.0-0.0"}}, {"uniqueid": "MTK1204:3KOPY89HM997Z2LVETRTGYX84QD3JK", "current_trial": 253, "dateTime": 1513462211214, "trialdata": {"rt": -1, "stimulus": "<p id=\"stim\">TURNIP</p>", "key_press": -1, "type": "PRES_VIS", "word": "turnip", "wordID": 1520, "conditions": [12, 1600, "v", 24000], "trial": 7, "serialpos": 0, "trial_type": "single-stim", "trial_index": 253, "time_elapsed": 3810986, "internal_node_id": "0.0-181.0"}}, {"uniqueid": "MTK1204:3KOPY89HM997Z2LVETRTGYX84QD3JK", "current_trial": 254, "dateTime": 1513462213806, "trialdata": {"rt": -1, "stimulus": "<p id=\"stim\">ATOM</p>", "key_press": -1, "type": "PRES_VIS", "word": "atom", "wordID": 54, "conditions": [12, 1600, "v", 24000], "trial": 7, "serialpos": 1, "trial_type": "single-stim", "trial_index": 254, "time_elapsed": 3813578, "internal_node_id": "0.0-182.0"}}, {"uniqueid": "MTK1204:3KOPY89HM997Z2LVETRTGYX84QD3JK", "current_trial": 255, "dateTime": 1513462216208, "trialdata": {"rt": -1, "stimulus": "<p id=\"stim\">CASKET</p>", "key_press": -1, "type": "PRES_VIS", "word": "casket", "wordID": 254, "conditions": [12, 1600, "v", 24000], "trial": 7, "serialpos": 2, "trial_type": "single-stim", "trial_index": 255, "time_elapsed": 3815980, "internal_node_id": "0.0-183.0"}}, {"uniqueid": "MTK1204:3KOPY89HM997Z2LVETRTGYX84QD3JK", "current_trial": 256, "dateTime": 1513462218867, "trialdata": {"rt": -1, "stimulus": "<p id=\"stim\">FLUTE</p>", "key_press": -1, "type": "PRES_VIS", "word": "flute", "wordID": 584, "conditions": [12, 1600, "v", 24000], "trial": 7, "serialpos": 3, "trial_type": "single-stim", "trial_index": 256, "time_elapsed": 3818639, "internal_node_id": "0.0-184.0"}}, {"uniqueid": "MTK1204:3KOPY89HM997Z2LVETRTGYX84QD3JK", "current_trial": 257, "dateTime": 1513462221448, "trialdata": {"rt": -1, "stimulus": "<p id=\"stim\">BROOK</p>", "key_press": -1, "type": "PRES_VIS", "word": "brook", "wordID": 176, "conditions": [12, 1600, "v", 24000], "trial": 7, "serialpos": 4, "trial_type": "single-stim", "trial_index": 257, "time_elapsed": 3821220, "internal_node_id": "0.0-185.0"}}, {"uniqueid": "MTK1204:3KOPY89HM997Z2LVETRTGYX84QD3JK", "current_trial": 258, "dateTime": 1513462223958, "trialdata": {"rt": -1, "stimulus": "<p id=\"stim\">RABBIT</p>", "key_press": -1, "type": "PRES_VIS", "word": "rabbit", "wordID": 1151, "conditions": [12, 1600, "v", 24000], "trial": 7, "serialpos": 5, "trial_type": "single-stim", "trial_index": 258, "time_elapsed": 3823730, "internal_node_id": "0.0-186.0"}}, {"uniqueid": "MTK1204:3KOPY89HM997Z2LVETRTGYX84QD3JK", "current_trial": 259, "dateTime": 1513462226718, "trialdata": {"rt": -1, "stimulus": "<p id=\"stim\">MARSH</p>", "key_press": -1, "type": "PRES_VIS", "word": "marsh", "wordID": 873, "conditions": [12, 1600, "v", 24000], "trial": 7, "serialpos": 6, "trial_type": "single-stim", "trial_index": 259, "time_elapsed": 3826490, "internal_node_id": "0.0-187.0"}}, {"uniqueid": "MTK1204:3KOPY89HM997Z2LVETRTGYX84QD3JK", "current_trial": 260, "dateTime": 1513462229186, "trialdata": {"rt": -1, "stimulus": "<p id=\"stim\">RIVER</p>", "key_press": -1, "type": "PRES_VIS", "word": "river", "wordID": 1193, "conditions": [12, 1600, "v", 24000], "trial": 7, "serialpos": 7, "trial_type": "single-stim", "trial_index": 260, "time_elapsed": 3828958, "internal_node_id": "0.0-188.0"}}, {"uniqueid": "MTK1204:3KOPY89HM997Z2LVETRTGYX84QD3JK", "current_trial": 261, "dateTime": 1513462231742, "trialdata": {"rt": -1, "stimulus": "<p id=\"stim\">BEAKER</p>", "key_press": -1, "type": "PRES_VIS", "word": "beaker", "wordID": 103, "conditions": [12, 1600, "v", 24000], "trial": 7, "serialpos": 8, "trial_type": "single-stim", "trial_index": 261, "time_elapsed": 3831514, "internal_node_id": "0.0-189.0"}}, {"uniqueid": "MTK1204:3KOPY89HM997Z2LVETRTGYX84QD3JK", "current_trial": 262, "dateTime": 1513462234429, "trialdata": {"rt": -1, "stimulus": "<p id=\"stim\">MAPLE</p>", "key_press": -1, "type": "PRES_VIS", "word": "maple", "wordID": 865, "conditions": [12, 1600, "v", 24000], "trial": 7, "serialpos": 9, "trial_type": "single-stim", "trial_index": 262, "time_elapsed": 3834201, "internal_node_id": "0.0-190.0"}}, {"uniqueid": "MTK1204:3KOPY89HM997Z2LVETRTGYX84QD3JK", "current_trial": 263, "dateTime": 1513462237206, "trialdata": {"rt": -1, "stimulus": "<p id=\"stim\">WAGON</p>", "key_press": -1, "type": "PRES_VIS", "word": "wagon", "wordID": 1577, "conditions": [12, 1600, "v", 24000], "trial": 7, "serialpos": 10, "trial_type": "single-stim", "trial_index": 263, "time_elapsed": 3836978, "internal_node_id": "0.0-191.0"}}, {"uniqueid": "MTK1204:3KOPY89HM997Z2LVETRTGYX84QD3JK", "current_trial": 264, "dateTime": 1513462239891, "trialdata": {"rt": -1, "stimulus": "<p id=\"stim\">CABBAGE</p>", "key_press": -1, "type": "PRES_VIS", "word": "cabbage", "wordID": 209, "conditions": [12, 1600, "v", 24000], "trial": 7, "serialpos": 11, "trial_type": "single-stim", "trial_index": 264, "time_elapsed": 3839663, "internal_node_id": "0.0-192.0"}}, {"uniqueid": "MTK1204:3KOPY89HM997Z2LVETRTGYX84QD3JK", "current_trial": 265, "dateTime": 1513462242260, "trialdata": {"rt": -1, "stimulus": "", "key_press": -1, "type": "PRE_RECALL_DELAY", "trial_type": "single-stim", "trial_index": 265, "time_elapsed": 3842032, "internal_node_id": "0.0-193.0-0.0"}}, {"uniqueid": "MTK1204:3KOPY89HM997Z2LVETRTGYX84QD3JK", "current_trial": 266, "dateTime": 1513462242763, "trialdata": {"rt": -1000, "stimulus": "/static/audio/400Hz.wav", "key_press": -1, "type": "PRE_RECALL_ALERT", "trial_type": "single-audio", "trial_index": 266, "time_elapsed": 3842535, "internal_node_id": "0.0-194.0"}}, {"uniqueid": "MTK1204:3KOPY89HM997Z2LVETRTGYX84QD3JK", "current_trial": 267, "dateTime": 1513462302776, "trialdata": {"rt": [5777, 9067, 11624, 14499, 19307], "recwords": ["cabbage", "maple", "wagon", "flute", "turnip"], "type": "FREE_RECALL", "conditions": [12, 1600, "v", 24000], "trial": 7, "trial_type": "free-recall", "trial_index": 267, "time_elapsed": 3902536, "internal_node_id": "0.0-195.0-0.0"}}, {"uniqueid": "MTK1204:3KOPY89HM997Z2LVETRTGYX84QD3JK", "current_trial": 268, "dateTime": 1513462336269, "trialdata": {"rt": 31492, "key_press": 32, "type": "INSTRUCTIONS", "trial_type": "text", "trial_index": 268, "time_elapsed": 3936041, "internal_node_id": "0.0-196.0"}}, {"uniqueid": "MTK1204:3KOPY89HM997Z2LVETRTGYX84QD3JK", "current_trial": 269, "dateTime": 1513462362278, "trialdata": {"rt": [5461, 12644, 15914, 23134], "responses": ["17", "11", "11", "20"], "num1": [9, 5, 6, 8, 9], "num2": [5, 4, 3, 5, 7], "num3": [3, 2, 2, 7, 5], "type": "DISTRACTOR", "conditions": [12, 800, "v", 24000], "trial": 8, "trial_type": "math-distractor", "trial_index": 269, "time_elapsed": 3962050, "internal_node_id": "0.0-197.0"}}, {"uniqueid": "MTK1204:3KOPY89HM997Z2LVETRTGYX84QD3JK", "current_trial": 270, "dateTime": 1513462365288, "trialdata": {"rt": -1, "stimulus": "<p id=\"stim\">10</p>", "key_press": -1, "trial_type": "single-stim", "trial_index": 270, "time_elapsed": 3965060, "internal_node_id": "0.0-198.0-0.0"}}, {"uniqueid": "MTK1204:3KOPY89HM997Z2LVETRTGYX84QD3JK", "current_trial": 271, "dateTime": 1513462366288, "trialdata": {"rt": -1, "stimulus": "<p id=\"stim\">9</p>", "key_press": -1, "trial_type": "single-stim", "trial_index": 271, "time_elapsed": 3966060, "internal_node_id": "0.0-198.0-1.0"}}, {"uniqueid": "MTK1204:3KOPY89HM997Z2LVETRTGYX84QD3JK", "current_trial": 272, "dateTime": 1513462367291, "trialdata": {"rt": -1, "stimulus": "<p id=\"stim\">8</p>", "key_press": -1, "trial_type": "single-stim", "trial_index": 272, "time_elapsed": 3967063, "internal_node_id": "0.0-198.0-2.0"}}, {"uniqueid": "MTK1204:3KOPY89HM997Z2LVETRTGYX84QD3JK", "current_trial": 273, "dateTime": 1513462368295, "trialdata": {"rt": -1, "stimulus": "<p id=\"stim\">7</p>", "key_press": -1, "trial_type": "single-stim", "trial_index": 273, "time_elapsed": 3968067, "internal_node_id": "0.0-198.0-3.0"}}, {"uniqueid": "MTK1204:3KOPY89HM997Z2LVETRTGYX84QD3JK", "current_trial": 274, "dateTime": 1513462369298, "trialdata": {"rt": -1, "stimulus": "<p id=\"stim\">6</p>", "key_press": -1, "trial_type": "single-stim", "trial_index": 274, "time_elaps