{"assignmentId": "3Y54SXRO1MSLCZUJ571Y5DAHJRXUT9", "workerId": "MTK1876", "questiondata": {"origin": "United States", "strat-rehearsal": "48", "marital": "Married/Domestic Partnership", "education": "High school diploma", "ethnicity": "Not Hispanic", "color_depth": 24, "distracted": "No", "wrote-notes": "No", "strat-other": "", "screen_width": 1280, "avail_screen_width": 1280, "avail_screen_height": 760, "strat-image": "0", "language": "english", "gender": "Female", "age": "-35", "gender_other": "", "race": ["White"], "strat-categorize": "90", "pixel_depth": 24, "strat-spatial": "0", "strat-story": "90", "race_other": "", "screen_height": 800}, "bonus": 0, "hitId": "3I7SHAD35M3DE9U9T029KN5LZ3BM72", "counterbalance": 2335, "useragent": "Mozilla/5.0 (Windows NT 10.0) AppleWebKit/537.36 (KHTML, like Gecko) Chrome/63.0.3239.132 Safari/537.36", "eventdata": [{"eventtype": "initialized", "interval": 0, "value": null, "timestamp": 1516486769438}, {"eventtype": "window_resize", "interval": 0, "value": [1280, 753], "timestamp": 1516486769438}, {"eventtype": "window_resize", "interval": 7581, "value": [1280, 709], "timestamp": 1516486777019}, {"eventtype": "focus", "interval": 538481, "value": "off", "timestamp": 1516487315500}, {"eventtype": "focus", "interval": 1731, "value": "on", "timestamp": 1516487317231}, {"eventtype": "window_resize", "interval": 690283, "value": [1164, 645], "timestamp": 1516488007514}], "data": [{"current_trial": 0, "trialdata": {"rt": 11212, "trial_type": "text", "internal_node_id": "0.0-0.0", "time_elapsed": 11227, "key_press": 32, "type": "INSTRUCTIONS", "trial_index": 0}, "uniqueid": "MTK1876:3Y54SXRO1MSLCZUJ571Y5DAHJRXUT9", "dateTime": 1516486781528}, {"current_trial": 1, "trialdata": {"rt": 72152, "trial_type": "text", "internal_node_id": "0.0-1.0", "time_elapsed": 83392, "key_press": 32, "type": "INSTRUCTIONS", "trial_index": 1}, "uniqueid": "MTK1876:3Y54SXRO1MSLCZUJ571Y5DAHJRXUT9", "dateTime": 1516486853685}, {"current_trial": 2, "trialdata": {"rt": [12098], "trial_type": "audio-test", "responses": ["ocean"], "internal_node_id": "0.0-2.0", "time_elapsed": 95564, "type": "AUDIO_TEST", "trial_index": 2}, "uniqueid": "MTK1876:3Y54SXRO1MSLCZUJ571Y5DAHJRXUT9", "dateTime": 1516486865857}, {"current_trial": 3, "trialdata": {"rt": [7706], "trial_type": "audio-test", "responses": ["crystal"], "internal_node_id": "0.0-3.0", "time_elapsed": 103286, "type": "AUDIO_TEST", "trial_index": 3}, "uniqueid": "MTK1876:3Y54SXRO1MSLCZUJ571Y5DAHJRXUT9", "dateTime": 1516486873579}, {"current_trial": 4, "trialdata": {"rt": [6174], "trial_type": "audio-test", "responses": ["spice"], "internal_node_id": "0.0-4.0", "time_elapsed": 109478, "type": "AUDIO_TEST", "trial_index": 4}, "uniqueid": "MTK1876:3Y54SXRO1MSLCZUJ571Y5DAHJRXUT9", "dateTime": 1516486879771}, {"current_trial": 5, "trialdata": {"rt": 36050, "trial_type": "survey-text", "responses": "{\"Q0\":\"11:00 pm\",\"Q1\":\"9:00 am\",\"Q2\":\"5\"}", "internal_node_id": "0.0-5.0", "time_elapsed": 146286, "type": "SLEEP_SURVEY", "trial_index": 5}, "uniqueid": "MTK1876:3Y54SXRO1MSLCZUJ571Y5DAHJRXUT9", "dateTime": 1516486916579}, {"current_trial": 6, "trialdata": {"rt": 35708, "trial_type": "text", "internal_node_id": "0.0-6.0", "time_elapsed": 182997, "key_press": 32, "type": "INSTRUCTIONS", "trial_index": 6}, "uniqueid": "MTK1876:3Y54SXRO1MSLCZUJ571Y5DAHJRXUT9", "dateTime": 1516486953290}, {"current_trial": 7, "trialdata": {"rt": 15483, "trial_type": "text", "internal_node_id": "0.0-7.0", "time_elapsed": 198983, "key_press": 32, "type": "INSTRUCTIONS", "trial_index": 7}, "uniqueid": "MTK1876:3Y54SXRO1MSLCZUJ571Y5DAHJRXUT9", "dateTime": 1516486969276}, {"current_trial": 8, "trialdata": {"rt": 3471, "trial_type": "text", "internal_node_id": "0.0-8.0", "time_elapsed": 202956, "key_press": 32, "type": "INSTRUCTIONS", "trial_index": 8}, "uniqueid": "MTK1876:3Y54SXRO1MSLCZUJ571Y5DAHJRXUT9", "dateTime": 1516486973249}, {"current_trial": 9, "trialdata": {"rt": [7961, 13754], "trial_type": "math-distractor", "key_times": [6475, 6578, 7961, 12763, 13043, 13754], "responses": ["10", "22"], "num2": [2, 6, 6], "num3": [7, 8, 5], "conditions": [18, 1200, "v", 18000], "internal_node_id": "0.0-9.0", "key_presses": [49, 48, 13, 50, 50, 13], "trial": 0, "time_elapsed": 221981, "type": "DISTRACTOR", "trial_index": 9, "num1": [2, 8, 2]}, "uniqueid": "MTK1876:3Y54SXRO1MSLCZUJ571Y5DAHJRXUT9", "dateTime": 1516486992274}, {"current_trial": 10, "trialdata": {"rt": -1, "trial_type": "single-stim", "stimulus": "<p id=\"stim\">10</p>", "internal_node_id": "0.0-10.0-0.0", "time_elapsed": 224987, "key_press": -1, "trial_index": 10}, "uniqueid": "MTK1876:3Y54SXRO1MSLCZUJ571Y5DAHJRXUT9", "dateTime": 1516486995281}, {"current_trial": 11, "trialdata": {"rt": -1, "trial_type": "single-stim", "stimulus": "<p id=\"stim\">9</p>", "internal_node_id": "0.0-10.0-1.0", "time_elapsed": 225992, "key_press": -1, "trial_index": 11}, "uniqueid": "MTK1876:3Y54SXRO1MSLCZUJ571Y5DAHJRXUT9", "dateTime": 1516486996286}, {"current_trial": 12, "trialdata": {"rt": -1, "trial_type": "single-stim", "stimulus": "<p id=\"stim\">8</p>", "internal_node_id": "0.0-10.0-2.0", "time_elapsed": 226996, "key_press": -1, "trial_index": 12}, "uniqueid": "MTK1876:3Y54SXRO1MSLCZUJ571Y5DAHJRXUT9", "dateTime": 1516486997290}, {"current_trial": 13, "trialdata": {"rt": -1, "trial_type": "single-stim", "stimulus": "<p id=\"stim\">7</p>", "internal_node_id": "0.0-10.0-3.0", "time_elapsed": 227999, "key_press": -1, "trial_index": 13}, "uniqueid": "MTK1876:3Y54SXRO1MSLCZUJ571Y5DAHJRXUT9", "dateTime": 1516486998292}, {"current_trial": 14, "trialdata": {"rt": -1, "trial_type": "single-stim", "stimulus": "<p id=\"stim\">6</p>", "internal_node_id": "0.0-10.0-4.0", "time_elapsed": 229002, "key_press": -1, "trial_index": 14}, "uniqueid": "MTK1876:3Y54SXRO1MSLCZUJ571Y5DAHJRXUT9", "dateTime": 1516486999295}, {"current_trial": 15, "trialdata": {"rt": -1, "trial_type": "single-stim", "stimulus": "<p id=\"stim\">5</p>", "internal_node_id": "0.0-10.0-5.0", "time_elapsed": 230004, "key_press": -1, "trial_index": 15}, "uniqueid": "MTK1876:3Y54SXRO1MSLCZUJ571Y5DAHJRXUT9", "dateTime": 1516487000298}, {"current_trial": 16, "trialdata": {"rt": -1, "trial_type": "single-stim", "stimulus": "<p id=\"stim\">4</p>", "internal_node_id": "0.0-10.0-6.0", "time_elapsed": 231008, "key_press": -1, "trial_index": 16}, "uniqueid": "MTK1876:3Y54SXRO1MSLCZUJ571Y5DAHJRXUT9", "dateTime": 1516487001301}, {"current_trial": 17, "trialdata": {"rt": -1, "trial_type": "single-stim", "stimulus": "<p id=\"stim\">3</p>", "internal_node_id": "0.0-10.0-7.0", "time_elapsed": 232016, "key_press": -1, "trial_index": 17}, "uniqueid": "MTK1876:3Y54SXRO1MSLCZUJ571Y5DAHJRXUT9", "dateTime": 1516487002309}, {"current_trial": 18, "trialdata": {"rt": -1, "trial_type": "single-stim", "stimulus": "<p id=\"stim\">2</p>", "internal_node_id": "0.0-10.0-8.0", "time_elapsed": 233020, "key_press": -1, "trial_index": 18}, "uniqueid": "MTK1876:3Y54SXRO1MSLCZUJ571Y5DAHJRXUT9", "dateTime": 1516487003313}, {"current_trial": 19, "trialdata": {"rt": -1, "trial_type": "single-stim", "stimulus": "<p id=\"stim\">1</p>", "internal_node_id": "0.0-10.0-9.0", "time_elapsed": 234024, "key_press": -1, "trial_index": 19}, "uniqueid": "MTK1876:3Y54SXRO1MSLCZUJ571Y5DAHJRXUT9", "dateTime": 1516487004317}, {"current_trial": 20, "trialdata": {"rt": -1, "trial_type": "single-stim", "stimulus": "<p id=\"stim\">+</p>", "internal_node_id": "0.0-11.0-0.0", "time_elapsed": 235528, "key_press": -1, "type": "FIXATION", "trial_index": 20}, "uniqueid": "MTK1876:3Y54SXRO1MSLCZUJ571Y5DAHJRXUT9", "dateTime": 1516487005821}, {"current_trial": 21, "trialdata": {"rt": -1, "trial_type": "single-stim", "word": "wardrobe", "stimulus": "<p id=\"stim\">WARDROBE</p>", "conditions": [18, 1200, "v", 18000], "internal_node_id": "0.0-12.0", "trial": 0, "time_elapsed": 236731, "serialpos": 0, "key_press": -1, "wordID": 1586, "type": "PRES_VIS", "trial_index": 21}, "uniqueid": "MTK1876:3Y54SXRO1MSLCZUJ571Y5DAHJRXUT9", "dateTime": 1516487007025}, {"current_trial": 22, "trialdata": {"rt": -1, "trial_type": "single-stim", "word": "sticker", "stimulus": "<p id=\"stim\">STICKER</p>", "conditions": [18, 1200, "v", 18000], "internal_node_id": "0.0-13.0", "trial": 0, "time_elapsed": 239072, "serialpos": 1, "key_press": -1, "wordID": 1381, "type": "PRES_VIS", "trial_index": 22}, "uniqueid": "MTK1876:3Y54SXRO1MSLCZUJ571Y5DAHJRXUT9", "dateTime": 1516487009366}, {"current_trial": 23, "trialdata": {"rt": -1, "trial_type": "single-stim", "word": "perch", "stimulus": "<p id=\"stim\">PERCH</p>", "conditions": [18, 1200, "v", 18000], "internal_node_id": "0.0-14.0", "trial": 0, "time_elapsed": 241402, "serialpos": 2, "key_press": -1, "wordID": 1047, "type": "PRES_VIS", "trial_index": 23}, "uniqueid": "MTK1876:3Y54SXRO1MSLCZUJ571Y5DAHJRXUT9", "dateTime": 1516487011695}, {"current_trial": 24, "trialdata": {"rt": -1, "trial_type": "single-stim", "word": "machine", "stimulus": "<p id=\"stim\">MACHINE</p>", "conditions": [18, 1200, "v", 18000], "internal_node_id": "0.0-15.0", "trial": 0, "time_elapsed": 243440, "serialpos": 3, "key_press": -1, "wordID": 851, "type": "PRES_VIS", "trial_index": 24}, "uniqueid": "MTK1876:3Y54SXRO1MSLCZUJ571Y5DAHJRXUT9", "dateTime": 1516487013734}, {"current_trial": 25, "trialdata": {"rt": -1, "trial_type": "single-stim", "word": "sphinx", "stimulus": "<p id=\"stim\">SPHINX</p>", "conditions": [18, 1200, "v", 18000], "internal_node_id": "0.0-16.0", "trial": 0, "time_elapsed": 245589, "serialpos": 4, "key_press": -1, "wordID": 1348, "type": "PRES_VIS", "trial_index": 25}, "uniqueid": "MTK1876:3Y54SXRO1MSLCZUJ571Y5DAHJRXUT9", "dateTime": 1516487015883}, {"current_trial": 26, "trialdata": {"rt": -1, "trial_type": "single-stim", "word": "clock", "stimulus": "<p id=\"stim\">CLOCK</p>", "conditions": [18, 1200, "v", 18000], "internal_node_id": "0.0-17.0", "trial": 0, "time_elapsed": 247955, "serialpos": 5, "key_press": -1, "wordID": 324, "type": "PRES_VIS", "trial_index": 26}, "uniqueid": "MTK1876:3Y54SXRO1MSLCZUJ571Y5DAHJRXUT9", "dateTime": 1516487018249}, {"current_trial": 27, "trialdata": {"rt": -1, "trial_type": "single-stim", "word": "peach", "stimulus": "<p id=\"stim\">PEACH</p>", "conditions": [18, 1200, "v", 18000], "internal_node_id": "0.0-18.0", "trial": 0, "time_elapsed": 250332, "serialpos": 6, "key_press": -1, "wordID": 1030, "type": "PRES_VIS", "trial_index": 27}, "uniqueid": "MTK1876:3Y54SXRO1MSLCZUJ571Y5DAHJRXUT9", "dateTime": 1516487020625}, {"current_trial": 28, "trialdata": {"rt": -1, "trial_type": "single-stim", "word": "spoon", "stimulus": "<p id=\"stim\">SPOON</p>", "conditions": [18, 1200, "v", 18000], "internal_node_id": "0.0-19.0", "trial": 0, "time_elapsed": 252461, "serialpos": 7, "key_press": -1, "wordID": 1356, "type": "PRES_VIS", "trial_index": 28}, "uniqueid": "MTK1876:3Y54SXRO1MSLCZUJ571Y5DAHJRXUT9", "dateTime": 1516487022754}, {"current_trial": 29, "trialdata": {"rt": -1, "trial_type": "single-stim", "word": "clamp", "stimulus": "<p id=\"stim\">CLAMP</p>", "conditions": [18, 1200, "v", 18000], "internal_node_id": "0.0-20.0", "trial": 0, "time_elapsed": 254828, "serialpos": 8, "key_press": -1, "wordID": 315, "type": "PRES_VIS", "trial_index": 29}, "uniqueid": "MTK1876:3Y54SXRO1MSLCZUJ571Y5DAHJRXUT9", "dateTime": 1516487025122}, {"current_trial": 30, "trialdata": {"rt": -1, "trial_type": "single-stim", "word": "ground", "stimulus": "<p id=\"stim\">GROUND</p>", "conditions": [18, 1200, "v", 18000], "internal_node_id": "0.0-21.0", "trial": 0, "time_elapsed": 257121, "serialpos": 9, "key_press": -1, "wordID": 665, "type": "PRES_VIS", "trial_index": 30}, "uniqueid": "MTK1876:3Y54SXRO1MSLCZUJ571Y5DAHJRXUT9", "dateTime": 1516487027415}, {"current_trial": 31, "trialdata": {"rt": -1, "trial_type": "single-stim", "word": "agent", "stimulus": "<p id=\"stim\">AGENT</p>", "conditions": [18, 1200, "v", 18000], "internal_node_id": "0.0-22.0", "trial": 0, "time_elapsed": 259437, "serialpos": 10, "key_press": -1, "wordID": 9, "type": "PRES_VIS", "trial_index": 31}, "uniqueid": "MTK1876:3Y54SXRO1MSLCZUJ571Y5DAHJRXUT9", "dateTime": 1516487029731}, {"current_trial": 32, "trialdata": {"rt": -1, "trial_type": "single-stim", "word": "pork", "stimulus": "<p id=\"stim\">PORK</p>", "conditions": [18, 1200, "v", 18000], "internal_node_id": "0.0-23.0", "trial": 0, "time_elapsed": 261727, "serialpos": 11, "key_press": -1, "wordID": 1107, "type": "PRES_VIS", "trial_index": 32}, "uniqueid": "MTK1876:3Y54SXRO1MSLCZUJ571Y5DAHJRXUT9", "dateTime": 1516487032021}, {"current_trial": 33, "trialdata": {"rt": -1, "trial_type": "single-stim", "word": "pizza", "stimulus": "<p id=\"stim\">PIZZA</p>", "conditions": [18, 1200, "v", 18000], "internal_node_id": "0.0-24.0", "trial": 0, "time_elapsed": 264022, "serialpos": 12, "key_press": -1, "wordID": 1078, "type": "PRES_VIS", "trial_index": 33}, "uniqueid": "MTK1876:3Y54SXRO1MSLCZUJ571Y5DAHJRXUT9", "dateTime": 1516487034315}, {"current_trial": 34, "trialdata": {"rt": -1, "trial_type": "single-stim", "word": "paddle", "stimulus": "<p id=\"stim\">PADDLE</p>", "conditions": [18, 1200, "v", 18000], "internal_node_id": "0.0-25.0", "trial": 0, "time_elapsed": 266228, "serialpos": 13, "key_press": -1, "wordID": 999, "type": "PRES_VIS", "trial_index": 34}, "uniqueid": "MTK1876:3Y54SXRO1MSLCZUJ571Y5DAHJRXUT9", "dateTime": 1516487036522}, {"current_trial": 35, "trialdata": {"rt": -1, "trial_type": "single-stim", "word": "liver", "stimulus": "<p id=\"stim\">LIVER</p>", "conditions": [18, 1200, "v", 18000], "internal_node_id": "0.0-26.0", "trial": 0, "time_elapsed": 268513, "serialpos": 14, "key_press": -1, "wordID": 832, "type": "PRES_VIS", "trial_index": 35}, "uniqueid": "MTK1876:3Y54SXRO1MSLCZUJ571Y5DAHJRXUT9", "dateTime": 1516487038806}, {"current_trial": 36, "trialdata": {"rt": -1, "trial_type": "single-stim", "word": "luggage", "stimulus": "<p id=\"stim\">LUGGAGE</p>", "conditions": [18, 1200, "v", 18000], "internal_node_id": "0.0-27.0", "trial": 0, "time_elapsed": 270642, "serialpos": 15, "key_press": -1, "wordID": 846, "type": "PRES_VIS", "trial_index": 36}, "uniqueid": "MTK1876:3Y54SXRO1MSLCZUJ571Y5DAHJRXUT9", "dateTime": 1516487040936}, {"current_trial": 37, "trialdata": {"rt": -1, "trial_type": "single-stim", "word": "sponge", "stimulus": "<p id=\"stim\">SPONGE</p>", "conditions": [18, 1200, "v", 18000], "internal_node_id": "0.0-28.0", "trial": 0, "time_elapsed": 272966, "serialpos": 16, "key_press": -1, "wordID": 1354, "type": "PRES_VIS", "trial_index": 37}, "uniqueid": "MTK1876:3Y54SXRO1MSLCZUJ571Y5DAHJRXUT9", "dateTime": 1516487043259}, {"current_trial": 38, "trialdata": {"rt": -1, "trial_type": "single-stim", "word": "crayon", "stimulus": "<p id=\"stim\">CRAYON</p>", "conditions": [18, 1200, "v", 18000], "internal_node_id": "0.0-29.0", "trial": 0, "time_elapsed": 274987, "serialpos": 17, "key_press": -1, "wordID": 400, "type": "PRES_VIS", "trial_index": 38}, "uniqueid": "MTK1876:3Y54SXRO1MSLCZUJ571Y5DAHJRXUT9", "dateTime": 1516487045281}, {"current_trial": 39, "trialdata": {"rt": -1, "trial_type": "single-stim", "stimulus": "", "internal_node_id": "0.0-30.0-0.0", "time_elapsed": 277192, "key_press": -1, "type": "PRE_RECALL_DELAY", "trial_index": 39}, "uniqueid": "MTK1876:3Y54SXRO1MSLCZUJ571Y5DAHJRXUT9", "dateTime": 1516487047486}, {"current_trial": 40, "trialdata": {"rt": -1000, "trial_type": "single-audio", "stimulus": "/static/audio/400Hz.wav", "internal_node_id": "0.0-31.0", "time_elapsed": 277711, "key_press": -1, "type": "PRE_RECALL_ALERT", "trial_index": 40}, "uniqueid": "MTK1876:3Y54SXRO1MSLCZUJ571Y5DAHJRXUT9", "dateTime": 1516487048005}, {"current_trial": 41, "trialdata": {"rt": [7554, 9001, 14385, 17250, 44889], "recwords": ["wardrobe", "peach", "perch", "machine", "crayon"], "key_times": [1466, 1721, 1938, 2017, 2665, 2810, 3209, 3457, 4049, 4513, 4673, 4890, 5025, 5098, 5714, 5866, 6017, 6834, 7145, 7409, 7554, 8137, 8233, 8353, 8530, 8673, 9001, 13421, 13617, 13681, 13962, 14137, 14385, 15793, 15930, 16042, 16666, 16889, 17009, 17113, 17250, 37202, 37537, 38337, 38730, 43544, 43842, 44009, 44169, 44394, 44497, 44889], "trial_type": "free-recall", "conditions": [18, 1200, "v", 18000], "internal_node_id": "0.0-32.0-0.0", "key_presses": [87, 65, 68, 68, 8, 8, 82, 68, 79, 8, 82, 73, 79, 80, 8, 8, 8, 79, 66, 69, 13, 80, 69, 65, 67, 72, 32, 80, 69, 82, 67, 72, 13, 77, 65, 67, 72, 73, 78, 69, 13, 87, 65, 8, 8, 67, 82, 65, 89, 79, 78, 13], "trial": 0, "time_elapsed": 337749, "type": "FREE_RECALL", "trial_index": 41}, "uniqueid": "MTK1876:3Y54SXRO1MSLCZUJ571Y5DAHJRXUT9", "dateTime": 1516487108047}, {"current_trial": 42, "trialdata": {"rt": 1185, "trial_type": "text", "internal_node_id": "0.0-33.0", "time_elapsed": 340941, "key_press": 32, "type": "INSTRUCTIONS", "trial_index": 42}, "uniqueid": "MTK1876:3Y54SXRO1MSLCZUJ571Y5DAHJRXUT9", "dateTime": 1516487111234}, {"current_trial": 43, "trialdata": {"rt": [4018], "trial_type": "math-distractor", "key_times": [2593, 2761, 4018], "responses": ["15"], "num2": [1, 9], "num3": [7, 8], "conditions": [18, 1200, "v", 18000], "internal_node_id": "0.0-34.0", "key_presses": [49, 53, 13], "trial": 1, "time_elapsed": 360950, "type": "DISTRACTOR", "trial_index": 43, "num1": [7, 9]}, "uniqueid": "MTK1876:3Y54SXRO1MSLCZUJ571Y5DAHJRXUT9", "dateTime": 1516487131244}, {"current_trial": 44, "trialdata": {"rt": -1, "trial_type": "single-stim", "stimulus": "<p id=\"stim\">10</p>", "internal_node_id": "0.0-35.0-0.0", "time_elapsed": 363955, "key_press": -1, "trial_index": 44}, "uniqueid": "MTK1876:3Y54SXRO1MSLCZUJ571Y5DAHJRXUT9", "dateTime": 1516487134248}, {"current_trial": 45, "trialdata": {"rt": -1, "trial_type": "single-stim", "stimulus": "<p id=\"stim\">9</p>", "internal_node_id": "0.0-35.0-1.0", "time_elapsed": 364959, "key_press": -1, "trial_index": 45}, "uniqueid": "MTK1876:3Y54SXRO1MSLCZUJ571Y5DAHJRXUT9", "dateTime": 1516487135252}, {"current_trial": 46, "trialdata": {"rt": -1, "trial_type": "single-stim", "stimulus": "<p id=\"stim\">8</p>", "internal_node_id": "0.0-35.0-2.0", "time_elapsed": 365963, "key_press": -1, "trial_index": 46}, "uniqueid": "MTK1876:3Y54SXRO1MSLCZUJ571Y5DAHJRXUT9", "dateTime": 1516487136256}, {"current_trial": 47, "trialdata": {"rt": -1, "trial_type": "single-stim", "stimulus": "<p id=\"stim\">7</p>", "internal_node_id": "0.0-35.0-3.0", "time_elapsed": 366966, "key_press": -1, "trial_index": 47}, "uniqueid": "MTK1876:3Y54SXRO1MSLCZUJ571Y5DAHJRXUT9", "dateTime": 1516487137259}, {"current_trial": 48, "trialdata": {"rt": -1, "trial_type": "single-stim", "stimulus": "<p id=\"stim\">6</p>", "internal_node_id": "0.0-35.0-4.0", "time_elapsed": 367969, "key_press": -1, "trial_index": 48}, "uniqueid": "MTK1876:3Y54SXRO1MSLCZUJ571Y5DAHJRXUT9", "dateTime": 1516487138263}, {"current_trial": 49, "trialdata": {"rt": -1, "trial_type": "single-stim", "stimulus": "<p id=\"stim\">5</p>", "internal_node_id": "0.0-35.0-5.0", "time_elapsed": 368973, "key_press": -1, "trial_index": 49}, "uniqueid": "MTK1876:3Y54SXRO1MSLCZUJ571Y5DAHJRXUT9", "dateTime": 1516487139267}, {"current_trial": 50, "trialdata": {"rt": -1, "trial_type": "single-stim", "stimulus": "<p id=\"stim\">4</p>", "internal_node_id": "0.0-35.0-6.0", "time_elapsed": 369976, "key_press": -1, "trial_index": 50}, "uniqueid": "MTK1876:3Y54SXRO1MSLCZUJ571Y5DAHJRXUT9", "dateTime": 1516487140270}, {"current_trial": 51, "trialdata": {"rt": -1, "trial_type": "single-stim", "stimulus": "<p id=\"stim\">3</p>", "internal_node_id": "0.0-35.0-7.0", "time_elapsed": 370980, "key_press": -1, "trial_index": 51}, "uniqueid": "MTK1876:3Y54SXRO1MSLCZUJ571Y5DAHJRXUT9", "dateTime": 1516487141273}, {"current_trial": 52, "trialdata": {"rt": -1, "trial_type": "single-stim", "stimulus": "<p id=\"stim\">2</p>", "internal_node_id": "0.0-35.0-8.0", "time_elapsed": 371985, "key_press": -1, "trial_index": 52}, "uniqueid": "MTK1876:3Y54SXRO1MSLCZUJ571Y5DAHJRXUT9", "dateTime": 1516487142278}, {"current_trial": 53, "trialdata": {"rt": -1, "trial_type": "single-stim", "stimulus": "<p id=\"stim\">1</p>", "internal_node_id": "0.0-35.0-9.0", "time_elapsed": 372988, "key_press": -1, "trial_index": 53}, "uniqueid": "MTK1876:3Y54SXRO1MSLCZUJ571Y5DAHJRXUT9", "dateTime": 1516487143281}, {"current_trial": 54, "trialdata": {"rt": -1, "trial_type": "single-stim", "stimulus": "<p id=\"stim\">+</p>", "internal_node_id": "0.0-36.0-0.0", "time_elapsed": 374491, "key_press": -1, "type": "FIXATION", "trial_index": 54}, "uniqueid": "MTK1876:3Y54SXRO1MSLCZUJ571Y5DAHJRXUT9", "dateTime": 1516487144785}, {"current_trial": 55, "trialdata": {"rt": -1, "trial_type": "single-stim", "word": "package", "stimulus": "<p id=\"stim\">PACKAGE</p>", "conditions": [18, 1200, "v", 18000], "internal_node_id": "0.0-37.0", "trial": 1, "time_elapsed": 375695, "serialpos": 0, "key_press": -1, "wordID": 996, "type": "PRES_VIS", "trial_index": 55}, "uniqueid": "MTK1876:3Y54SXRO1MSLCZUJ571Y5DAHJRXUT9", "dateTime": 1516487145988}, {"current_trial": 56, "trialdata": {"rt": -1, "trial_type": "single-stim", "word": "seagull", "stimulus": "<p id=\"stim\">SEAGULL</p>", "conditions": [18, 1200, "v", 18000], "internal_node_id": "0.0-38.0", "trial": 1, "time_elapsed": 378003, "serialpos": 1, "key_press": -1, "wordID": 1260, "type": "PRES_VIS", "trial_index": 56}, "uniqueid": "MTK1876:3Y54SXRO1MSLCZUJ571Y5DAHJRXUT9", "dateTime": 1516487148296}, {"current_trial": 57, "trialdata": {"rt": -1, "trial_type": "single-stim", "word": "police", "stimulus": "<p id=\"stim\">POLICE</p>", "conditions": [18, 1200, "v", 18000], "internal_node_id": "0.0-39.0", "trial": 1, "time_elapsed": 380026, "serialpos": 2, "key_press": -1, "wordID": 1097, "type": "PRES_VIS", "trial_index": 57}, "uniqueid": "MTK1876:3Y54SXRO1MSLCZUJ571Y5DAHJRXUT9", "dateTime": 1516487150320}, {"current_trial": 58, "trialdata": {"rt": -1, "trial_type": "single-stim", "word": "glass", "stimulus": "<p id=\"stim\">GLASS</p>", "conditions": [18, 1200, "v", 18000], "internal_node_id": "0.0-40.0", "trial": 1, "time_elapsed": 382150, "serialpos": 3, "key_press": -1, "wordID": 638, "type": "PRES_VIS", "trial_index": 58}, "uniqueid": "MTK1876:3Y54SXRO1MSLCZUJ571Y5DAHJRXUT9", "dateTime": 1516487152444}, {"current_trial": 59, "trialdata": {"rt": -1, "trial_type": "single-stim", "word": "cafe", "stimulus": "<p id=\"stim\">CAFE</p>", "conditions": [18, 1200, "v", 18000], "internal_node_id": "0.0-41.0", "trial": 1, "time_elapsed": 384195, "serialpos": 4, "key_press": -1, "wordID": 215, "type": "PRES_VIS", "trial_index": 59}, "uniqueid": "MTK1876:3Y54SXRO1MSLCZUJ571Y5DAHJRXUT9", "dateTime": 1516487154488}, {"current_trial": 60, "trialdata": {"rt": -1, "trial_type": "single-stim", "word": "sunset", "stimulus": "<p id=\"stim\">SUNSET</p>", "conditions": [18, 1200, "v", 18000], "internal_node_id": "0.0-42.0", "trial": 1, "time_elapsed": 386399, "serialpos": 5, "key_press": -1, "wordID": 1407, "type": "PRES_VIS", "trial_index": 60}, "uniqueid": "MTK1876:3Y54SXRO1MSLCZUJ571Y5DAHJRXUT9", "dateTime": 1516487156692}, {"current_trial": 61, "trialdata": {"rt": -1, "trial_type": "single-stim", "word": "sunrise", "stimulus": "<p id=\"stim\">SUNRISE</p>", "conditions": [18, 1200, "v", 18000], "internal_node_id": "0.0-43.0", "trial": 1, "time_elapsed": 388764, "serialpos": 6, "key_press": -1, "wordID": 1406, "type": "PRES_VIS", "trial_index": 61}, "uniqueid": "MTK1876:3Y54SXRO1MSLCZUJ571Y5DAHJRXUT9", "dateTime": 1516487159058}, {"current_trial": 62, "trialdata": {"rt": -1, "trial_type": "single-stim", "word": "canyon", "stimulus": "<p id=\"stim\">CANYON</p>", "conditions": [18, 1200, "v", 18000], "internal_node_id": "0.0-44.0", "trial": 1, "time_elapsed": 391067, "serialpos": 7, "key_press": -1, "wordID": 234, "type": "PRES_VIS", "trial_index": 62}, "uniqueid": "MTK1876:3Y54SXRO1MSLCZUJ571Y5DAHJRXUT9", "dateTime": 1516487161361}, {"current_trial": 63, "trialdata": {"rt": -1, "trial_type": "single-stim", "word": "pigeon", "stimulus": "<p id=\"stim\">PIGEON</p>", "conditions": [18, 1200, "v", 18000], "internal_node_id": "0.0-45.0", "trial": 1, "time_elapsed": 393346, "serialpos": 8, "key_press": -1, "wordID": 1064, "type": "PRES_VIS", "trial_index": 63}, "uniqueid": "MTK1876:3Y54SXRO1MSLCZUJ571Y5DAHJRXUT9", "dateTime": 1516487163639}, {"current_trial": 64, "trialdata": {"rt": -1, "trial_type": "single-stim", "word": "staple", "stimulus": "<p id=\"stim\">STAPLE</p>", "conditions": [18, 1200, "v", 18000], "internal_node_id": "0.0-46.0", "trial": 1, "time_elapsed": 395570, "serialpos": 9, "key_press": -1, "wordID": 1370, "type": "PRES_VIS", "trial_index": 64}, "uniqueid": "MTK1876:3Y54SXRO1MSLCZUJ571Y5DAHJRXUT9", "dateTime": 1516487165864}, {"current_trial": 65, "trialdata": {"rt": -1, "trial_type": "single-stim", "word": "human", "stimulus": "<p id=\"stim\">HUMAN</p>", "conditions": [18, 1200, "v", 18000], "internal_node_id": "0.0-47.0", "trial": 1, "time_elapsed": 397731, "serialpos": 10, "key_press": -1, "wordID": 725, "type": "PRES_VIS", "trial_index": 65}, "uniqueid": "MTK1876:3Y54SXRO1MSLCZUJ571Y5DAHJRXUT9", "dateTime": 1516487168025}, {"current_trial": 66, "trialdata": {"rt": -1, "trial_type": "single-stim", "word": "worker", "stimulus": "<p id=\"stim\">WORKER</p>", "conditions": [18, 1200, "v", 18000], "internal_node_id": "0.0-48.0", "trial": 1, "time_elapsed": 399981, "serialpos": 11, "key_press": -1, "wordID": 1620, "type": "PRES_VIS", "trial_index": 66}, "uniqueid": "MTK1876:3Y54SXRO1MSLCZUJ571Y5DAHJRXUT9", "dateTime": 1516487170275}, {"current_trial": 67, "trialdata": {"rt": -1, "trial_type": "single-stim", "word": "award", "stimulus": "<p id=\"stim\">AWARD</p>", "conditions": [18, 1200, "v", 18000], "internal_node_id": "0.0-49.0", "trial": 1, "time_elapsed": 402100, "serialpos": 12, "key_press": -1, "wordID": 62, "type": "PRES_VIS", "trial_index": 67}, "uniqueid": "MTK1876:3Y54SXRO1MSLCZUJ571Y5DAHJRXUT9", "dateTime": 1516487172393}, {"current_trial": 68, "trialdata": {"rt": -1, "trial_type": "single-stim", "word": "iceberg", "stimulus": "<p id=\"stim\">ICEBERG</p>", "conditions": [18, 1200, "v", 18000], "internal_node_id": "0.0-50.0", "trial": 1, "time_elapsed": 404482, "serialpos": 13, "key_press": -1, "wordID": 730, "type": "PRES_VIS", "trial_index": 68}, "uniqueid": "MTK1876:3Y54SXRO1MSLCZUJ571Y5DAHJRXUT9", "dateTime": 1516487174794}, {"current_trial": 69, "trialdata": {"rt": -1, "trial_type": "single-stim", "word": "puppy", "stimulus": "<p id=\"stim\">PUPPY</p>", "conditions": [18, 1200, "v", 18000], "internal_node_id": "0.0-51.0", "trial": 1, "time_elapsed": 406628, "serialpos": 14, "key_press": -1, "wordID": 1143, "type": "PRES_VIS", "trial_index": 69}, "uniqueid": "MTK1876:3Y54SXRO1MSLCZUJ571Y5DAHJRXUT9", "dateTime": 1516487176921}, {"current_trial": 70, "trialdata": {"rt": -1, "trial_type": "single-stim", "word": "umpire", "stimulus": "<p id=\"stim\">UMPIRE</p>", "conditions": [18, 1200, "v", 18000], "internal_node_id": "0.0-52.0", "trial": 1, "time_elapsed": 408744, "serialpos": 15, "key_press": -1, "wordID": 1534, "type": "PRES_VIS", "trial_index": 70}, "uniqueid": "MTK1876:3Y54SXRO1MSLCZUJ571Y5DAHJRXUT9", "dateTime": 1516487179038}, {"current_trial": 71, "trialdata": {"rt": -1, "trial_type": "single-stim", "word": "sketch", "stimulus": "<p id=\"stim\">SKETCH</p>", "conditions": [18, 1200, "v", 18000], "internal_node_id": "0.0-53.0", "trial": 1, "time_elapsed": 411146, "serialpos": 16, "key_press": -1, "wordID": 1314, "type": "PRES_VIS", "trial_index": 71}, "uniqueid": "MTK1876:3Y54SXRO1MSLCZUJ571Y5DAHJRXUT9", "dateTime": 1516487181439}, {"current_trial": 72, "trialdata": {"rt": -1, "trial_type": "single-stim", "word": "atlas", "stimulus": "<p id=\"stim\">ATLAS</p>", "conditions": [18, 1200, "v", 18000], "internal_node_id": "0.0-54.0", "trial": 1, "time_elapsed": 413434, "serialpos": 17, "key_press": -1, "wordID": 52, "type": "PRES_VIS", "trial_index": 72}, "uniqueid": "MTK1876:3Y54SXRO1MSLCZUJ571Y5DAHJRXUT9", "dateTime": 1516487183727}, {"current_trial": 73, "trialdata": {"rt": -1, "trial_type": "single-stim", "stimulus": "", "internal_node_id": "0.0-55.0-0.0", "time_elapsed": 415513, "key_press": -1, "type": "PRE_RECALL_DELAY", "trial_index": 73}, "uniqueid": "MTK1876:3Y54SXRO1MSLCZUJ571Y5DAHJRXUT9", "dateTime": 1516487185806}, {"current_trial": 74, "trialdata": {"rt": -1000, "trial_type": "single-audio", "stimulus": "/static/audio/400Hz.wav", "internal_node_id": "0.0-56.0", "time_elapsed": 416016, "key_press": -1, "type": "PRE_RECALL_ALERT", "trial_index": 74}, "uniqueid": "MTK1876:3Y54SXRO1MSLCZUJ571Y5DAHJRXUT9", "dateTime": 1516487186310}, {"current_trial": 75, "trialdata": {"rt": [3071, 5334, 8222, 9518, 13607, 15383, 19055, 32647, 37198], "recwords": ["seagull", "package", "glass", "cafe", "sunset", "sunrise", "pigeon", "glass", "police"], "key_times": [1368, 1551, 2022, 2294, 2510, 2726, 2878, 3071, 3935, 4055, 4223, 4507, 4839, 4974, 5166, 5334, 7238, 7430, 7599, 7744, 7903, 8222, 8750, 8926, 9142, 9320, 9518, 11720, 11880, 12095, 12390, 12792, 13247, 13422, 13511, 13607, 14055, 14222, 14431, 14622, 14743, 14879, 15142, 15383, 16526, 16742, 16983, 17262, 17446, 17486, 17654, 18143, 18287, 18423, 18767, 18863, 19055, 30992, 31175, 31478, 31990, 32134, 32286, 32495, 32647, 36055, 36294, 36542, 36695, 36926, 37054, 37198], "trial_type": "free-recall", "conditions": [18, 1200, "v", 18000], "internal_node_id": "0.0-57.0-0.0", "key_presses": [83, 69, 65, 71, 85, 76, 76, 13, 80, 65, 67, 75, 65, 71, 69, 13, 71, 76, 65, 83, 83, 13, 67, 65, 70, 69, 13, 83, 85, 78, 83, 84, 8, 69, 84, 13, 83, 85, 78, 82, 73, 83, 69, 13, 80, 73, 71, 69, 73, 79, 78, 8, 8, 8, 79, 78, 13, 71, 76, 83, 8, 65, 83, 83, 13, 80, 79, 76, 73, 67, 69, 13], "trial": 1, "time_elapsed": 476026, "type": "FREE_RECALL", "trial_index": 75}, "uniqueid": "MTK1876:3Y54SXRO1MSLCZUJ571Y5DAHJRXUT9", "dateTime": 1516487246332}, {"current_trial": 76, "trialdata": {"rt": 2003, "trial_type": "text", "internal_node_id": "0.0-58.0", "time_elapsed": 480044, "key_press": 32, "type": "INSTRUCTIONS", "trial_index": 76}, "uniqueid": "MTK1876:3Y54SXRO1MSLCZUJ571Y5DAHJRXUT9", "dateTime": 1516487250338}, {"current_trial": 77, "trialdata": {"rt": [8468, 12973, 18091, 22700], "trial_type": "math-distractor", "key_times": [6956, 7291, 8468, 11228, 11843, 12973, 17098, 17723, 18091, 21876, 22060, 22700], "responses": ["13", "15", "10", "23"], "num2": [9, 5, 6, 5, 7], "num3": [3, 6, 1, 9, 6], "conditions": [12, 800, "v", 24000], "internal_node_id": "0.0-59.0", "key_presses": [49, 51, 13, 49, 53, 13, 49, 48, 13, 50, 51, 13], "trial": 2, "time_elapsed": 505052, "type": "DISTRACTOR", "trial_index": 77, "num1": [1, 4, 5, 8, 3]}, "uniqueid": "MTK1876:3Y54SXRO1MSLCZUJ571Y5DAHJRXUT9", "dateTime": 1516487275345}, {"current_trial": 78, "trialdata": {"rt": -1, "trial_type": "single-stim", "stimulus": "<p id=\"stim\">10</p>", "internal_node_id": "0.0-60.0-0.0", "time_elapsed": 508056, "key_press": -1, "trial_index": 78}, "uniqueid": "MTK1876:3Y54SXRO1MSLCZUJ571Y5DAHJRXUT9", "dateTime": 1516487278349}, {"current_trial": 79, "trialdata": {"rt": -1, "trial_type": "single-stim", "stimulus": "<p id=\"stim\">9</p>", "internal_node_id": "0.0-60.0-1.0", "time_elapsed": 509059, "key_press": -1, "trial_index": 79}, "uniqueid": "MTK1876:3Y54SXRO1MSLCZUJ571Y5DAHJRXUT9", "dateTime": 1516487279353}, {"current_trial": 80, "trialdata": {"rt": -1, "trial_type": "single-stim", "stimulus": "<p id=\"stim\">8</p>", "internal_node_id": "0.0-60.0-2.0", "time_elapsed": 510064, "key_press": -1, "trial_index": 80}, "uniqueid": "MTK1876:3Y54SXRO1MSLCZUJ571Y5DAHJRXUT9", "dateTime": 1516487280357}, {"current_trial": 81, "trialdata": {"rt": -1, "trial_type": "single-stim", "stimulus": "<p id=\"stim\">7</p>", "internal_node_id": "0.0-60.0-3.0", "time_elapsed": 511067, "key_press": -1, "trial_index": 81}, "uniqueid": "MTK1876:3Y54SXRO1MSLCZUJ571Y5DAHJRXUT9", "dateTime": 1516487281360}, {"current_trial": 82, "trialdata": {"rt": -1, "trial_type": "single-stim", "stimulus": "<p id=\"stim\">6</p>", "internal_node_id": "0.0-60.0-4.0", "time_elapsed": 512070, "key_press": -1, "trial_index": 82}, "uniqueid": "MTK1876:3Y54SXRO1MSLCZUJ571Y5DAHJRXUT9", "dateTime": 1516487282364}, {"current_trial": 83, "trialdata": {"rt": -1, "trial_type": "single-stim", "stimulus": "<p id=\"stim\">5</p>", "internal_node_id": "0.0-60.0-5.0", "time_elapsed": 513073, "key_press": -1, "trial_index": 83}, "uniqueid": "MTK1876:3Y54SXRO1MSLCZUJ571Y5DAHJRXUT9", "dateTime": 1516487283367}, {"current_trial": 84, "trialdata": {"rt": -1, "trial_type": "single-stim", "stimulus": "<p id=\"stim\">4</p>", "internal_node_id": "0.0-60.0-6.0", "time_elapsed": 514077, "key_press": -1, "trial_index": 84}, "uniqueid": "MTK1876:3Y54SXRO1MSLCZUJ571Y5DAHJRXUT9", "dateTime": 1516487284371}, {"current_trial": 85, "trialdata": {"rt": -1, "trial_type": "single-stim", "stimulus": "<p id=\"stim\">3</p>", "internal_node_id": "0.0-60.0-7.0", "time_elapsed": 515081, "key_press": -1, "trial_index": 85}, "uniqueid": "MTK1876:3Y54SXRO1MSLCZUJ571Y5DAHJRXUT9", "dateTime": 1516487285374}, {"current_trial": 86, "trialdata": {"rt": -1, "trial_type": "single-stim", "stimulus": "<p id=\"stim\">2</p>", "internal_node_id": "0.0-60.0-8.0", "time_elapsed": 516085, "key_press": -1, "trial_index": 86}, "uniqueid": "MTK1876:3Y54SXRO1MSLCZUJ571Y5DAHJRXUT9", "dateTime": 1516487286378}, {"current_trial": 87, "trialdata": {"rt": -1, "trial_type": "single-stim", "stimulus": "<p id=\"stim\">1</p>", "internal_node_id": "0.0-60.0-9.0", "time_elapsed": 517089, "key_press": -1, "trial_index": 87}, "uniqueid": "MTK1876:3Y54SXRO1MSLCZUJ571Y5DAHJRXUT9", "dateTime": 1516487287382}, {"current_trial": 88, "trialdata": {"rt": -1, "trial_type": "single-stim", "stimulus": "<p id=\"stim\">+</p>", "internal_node_id": "0.0-61.0-0.0", "time_elapsed": 518593, "key_press": -1, "type": "FIXATION", "trial_index": 88}, "uniqueid": "MTK1876:3Y54SXRO1MSLCZUJ571Y5DAHJRXUT9", "dateTime": 1516487288886}, {"current_trial": 89, "trialdata": {"rt": -1, "trial_type": "single-stim", "word": "gavel", "stimulus": "<p id=\"stim\">GAVEL</p>", "conditions": [12, 800, "v", 24000], "internal_node_id": "0.0-62.0", "trial": 2, "time_elapsed": 519396, "serialpos": 0, "key_press": -1, "wordID": 626, "type": "PRES_VIS", "trial_index": 89}, "uniqueid": "MTK1876:3Y54SXRO1MSLCZUJ571Y5DAHJRXUT9", "dateTime": 1516487289689}, {"current_trial": 90, "trialdata": {"rt": -1, "trial_type": "single-stim", "word": "bunny", "stimulus": "<p id=\"stim\">BUNNY</p>", "conditions": [12, 800, "v", 24000], "internal_node_id": "0.0-63.0", "trial": 2, "time_elapsed": 521364, "serialpos": 1, "key_press": -1, "wordID": 197, "type": "PRES_VIS", "trial_index": 90}, "uniqueid": "MTK1876:3Y54SXRO1MSLCZUJ571Y5DAHJRXUT9", "dateTime": 1516487291657}, {"current_trial": 91, "trialdata": {"rt": -1, "trial_type": "single-stim", "word": "beaker", "stimulus": "<p id=\"stim\">BEAKER</p>", "conditions": [12, 800, "v", 24000], "internal_node_id": "0.0-64.0", "trial": 2, "time_elapsed": 522974, "serialpos": 2, "key_press": -1, "wordID": 103, "type": "PRES_VIS", "trial_index": 91}, "uniqueid": "MTK1876:3Y54SXRO1MSLCZUJ571Y5DAHJRXUT9", "dateTime": 1516487293267}, {"current_trial": 92, "trialdata": {"rt": -1, "trial_type": "single-stim", "word": "garlic", "stimulus": "<p id=\"stim\">GARLIC</p>", "conditions": [12, 800, "v", 24000], "internal_node_id": "0.0-65.0", "trial": 2, "time_elapsed": 524624, "serialpos": 3, "key_press": -1, "wordID": 623, "type": "PRES_VIS", "trial_index": 92}, "uniqueid": "MTK1876:3Y54SXRO1MSLCZUJ571Y5DAHJRXUT9", "dateTime": 1516487294917}, {"current_trial": 93, "trialdata": {"rt": -1, "trial_type": "single-stim", "word": "maple", "stimulus": "<p id=\"stim\">MAPLE</p>", "conditions": [12, 800, "v", 24000], "internal_node_id": "0.0-66.0", "trial": 2, "time_elapsed": 526617, "serialpos": 4, "key_press": -1, "wordID": 865, "type": "PRES_VIS", "trial_index": 93}, "uniqueid": "MTK1876:3Y54SXRO1MSLCZUJ571Y5DAHJRXUT9", "dateTime": 1516487296910}, {"current_trial": 94, "trialdata": {"rt": -1, "trial_type": "single-stim", "word": "jury", "stimulus": "<p id=\"stim\">JURY</p>", "conditions": [12, 800, "v", 24000], "internal_node_id": "0.0-67.0", "trial": 2, "time_elapsed": 528513, "serialpos": 5, "key_press": -1, "wordID": 765, "type": "PRES_VIS", "trial_index": 94}, "uniqueid": "MTK1876:3Y54SXRO1MSLCZUJ571Y5DAHJRXUT9", "dateTime": 1516487298806}, {"current_trial": 95, "trialdata": {"rt": -1, "trial_type": "single-stim", "word": "judge", "stimulus": "<p id=\"stim\">JUDGE</p>", "conditions": [12, 800, "v", 24000], "internal_node_id": "0.0-68.0", "trial": 2, "time_elapsed": 530461, "serialpos": 6, "key_press": -1, "wordID": 760, "type": "PRES_VIS", "trial_index": 95}, "uniqueid": "MTK1876:3Y54SXRO1MSLCZUJ571Y5DAHJRXUT9", "dateTime": 1516487300754}, {"current_trial": 96, "trialdata": {"rt": -1, "trial_type": "single-stim", "word": "cottage", "stimulus": "<p id=\"stim\">COTTAGE</p>", "conditions": [12, 800, "v", 24000], "internal_node_id": "0.0-69.0", "trial": 2, "time_elapsed": 532116, "serialpos": 7, "key_press": -1, "wordID": 383, "type": "PRES_VIS", "trial_index": 96}, "uniqueid": "MTK1876:3Y54SXRO1MSLCZUJ571Y5DAHJRXUT9", "dateTime": 1516487302409}, {"current_trial": 97, "trialdata": {"rt": -1, "trial_type": "single-stim", "word": "pepper", "stimulus": "<p id=\"stim\">PEPPER</p>", "conditions": [12, 800, "v", 24000], "internal_node_id": "0.0-70.0", "trial": 2, "time_elapsed": 533899, "serialpos": 8, "key_press": -1, "wordID": 1046, "type": "PRES_VIS", "trial_index": 97}, "uniqueid": "MTK1876:3Y54SXRO1MSLCZUJ571Y5DAHJRXUT9", "dateTime": 1516487304193}, {"current_trial": 98, "trialdata": {"rt": -1, "trial_type": "single-stim", "word": "snake", "stimulus": "<p id=\"stim\">SNAKE</p>", "conditions": [12, 800, "v", 24000], "internal_node_id": "0.0-71.0", "trial": 2, "time_elapsed": 535774, "serialpos": 9, "key_press": -1, "wordID": 1332, "type": "PRES_VIS", "trial_index": 98}, "uniqueid": "MTK1876:3Y54SXRO1MSLCZUJ571Y5DAHJRXUT9", "dateTime": 1516487306068}, {"current_trial": 99, "trialdata": {"rt": -1, "trial_type": "single-stim", "word": "whistle", "stimulus": "<p id=\"stim\">WHISTLE</p>", "conditions": [12, 800, "v", 24000], "internal_node_id": "0.0-72.0", "trial": 2, "time_elapsed": 537673, "serialpos": 10, "key_press": -1, "wordID": 1605, "type": "PRES_VIS", "trial_index": 99}, "uniqueid": "MTK1876:3Y54SXRO1MSLCZUJ571Y5DAHJRXUT9", "dateTime": 1516487307966}, {"current_trial": 100, "trialdata": {"rt": -1, "trial_type": "single-stim", "word": "rattle", "stimulus": "<p id=\"stim\">RATTLE</p>", "conditions": [12, 800, "v", 24000], "internal_node_id": "0.0-73.0", "trial": 2, "time_elapsed": 539520, "serialpos": 11, "key_press": -1, "wordID": 1169, "type": "PRES_VIS", "trial_index": 100}, "uniqueid": "MTK1876:3Y54SXRO1MSLCZUJ571Y5DAHJRXUT9", "dateTime": 1516487309813}, {"current_trial": 101, "trialdata": {"rt": -1, "trial_type": "single-stim", "stimulus": "", "internal_node_id": "0.0-74.0-0.0", "time_elapsed": 541950, "key_press": -1, "type": "PRE_RECALL_DELAY", "trial_index": 101}, "uniqueid": "MTK1876:3Y54SXRO1MSLCZUJ571Y5DAHJRXUT9", "dateTime": 1516487312243}, {"current_trial": 102, "trialdata": {"rt": -1000, "trial_type": "single-audio", "stimulus": "/static/audio/400Hz.wav", "internal_node_id": "0.0-75.0", "time_elapsed": 542452, "key_press": -1, "type": "PRE_RECALL_ALERT", "trial_index": 102}, "uniqueid": "MTK1876:3Y54SXRO1MSLCZUJ571Y5DAHJRXUT9", "dateTime": 1516487312746}, {"current_trial": 103, "trialdata": {"rt": [2319, 6903, 8352, 15431, 20254, 23103, 37823], "recwords": ["gavel", "bunny", "beaker", "cabin", "whistle", "rattle", "baby"], "key_times": [817, 976, 1679, 1911, 2087, 2319, 2742, 2742, 5831, 6032, 6263, 6456, 6671, 6903, 7415, 7551, 7671, 7818, 7984, 8072, 8352, 14257, 14631, 14816, 15055, 15167, 15431, 18103, 18399, 18527, 18831, 19064, 19256, 19439, 20254, 21335, 21687, 22103, 22359, 22526, 22743, 23103, 36753, 36919, 37049, 37551, 37823], "trial_type": "free-recall", "conditions": [12, 800, "v", 24000], "internal_node_id": "0.0-76.0-0.0", "key_presses": [71, 65, 86, 69, 76, 13, 17, 91, 66, 85, 78, 78, 89, 13, 66, 69, 65, 75, 69, 82, 13, 67, 65, 66, 73, 78, 13, 87, 72, 73, 83, 84, 76, 69, 13, 82, 65, 84, 84, 76, 69, 13, 66, 65, 66, 89, 13], "trial": 2, "time_elapsed": 602463, "type": "FREE_RECALL", "trial_index": 103}, "uniqueid": "MTK1876:3Y54SXRO1MSLCZUJ571Y5DAHJRXUT9", "dateTime": 1516487372761}, {"current_trial": 104, "trialdata": {"rt": 1190, "trial_type": "text", "internal_node_id": "0.0-77.0", "time_elapsed": 605660, "key_press": 32, "type": "INSTRUCTIONS", "trial_index": 104}, "uniqueid": "MTK1876:3Y54SXRO1MSLCZUJ571Y5DAHJRXUT9", "dateTime": 1516487375953}, {"current_trial": 105, "trialdata": {"rt": [2794, 7554, 10418, 22633], "trial_type": "math-distractor", "key_times": [2249, 2409, 2794, 6745, 6905, 7554, 9970, 10106, 10418, 21994, 22129, 22633], "responses": ["10", "13", "10", "20"], "num2": [2, 4, 1, 6, 5], "num3": [1, 3, 1, 8, 5], "conditions": [24, 800, "v", 24000], "internal_node_id": "0.0-78.0", "key_presses": [49, 48, 13, 49, 51, 13, 49, 48, 13, 50, 48, 13], "trial": 3, "time_elapsed": 631669, "type": "DISTRACTOR", "trial_index": 105, "num1": [7, 6, 8, 6, 4]}, "uniqueid": "MTK1876:3Y54SXRO1MSLCZUJ571Y5DAHJRXUT9", "dateTime": 1516487401962}, {"current_trial": 106, "trialdata": {"rt": -1, "trial_type": "single-stim", "stimulus": "<p id=\"stim\">10</p>", "internal_node_id": "0.0-79.0-0.0", "time_elapsed": 634673, "key_press": -1, "trial_index": 106}, "uniqueid": "MTK1876:3Y54SXRO1MSLCZUJ571Y5DAHJRXUT9", "dateTime": 1516487404966}, {"current_trial": 107, "trialdata": {"rt": -1, "trial_type": "single-stim", "stimulus": "<p id=\"stim\">9</p>", "internal_node_id": "0.0-79.0-1.0", "time_elapsed": 635676, "key_press": -1, "trial_index": 107}, "uniqueid": "MTK1876:3Y54SXRO1MSLCZUJ571Y5DAHJRXUT9", "dateTime": 1516487405969}, {"current_trial": 108, "trialdata": {"rt": -1, "trial_type": "single-stim", "stimulus": "<p id=\"stim\">8</p>", "internal_node_id": "0.0-79.0-2.0", "time_elapsed": 636678, "key_press": -1, "trial_index": 108}, "uniqueid": "MTK1876:3Y54SXRO1MSLCZUJ571Y5DAHJRXUT9", "dateTime": 1516487406972}, {"current_trial": 109, "trialdata": {"rt": -1, "trial_type": "single-stim", "stimulus": "<p id=\"stim\">7</p>", "internal_node_id": "0.0-79.0-3.0", "time_elapsed": 637682, "key_press": -1, "trial_index": 109}, "uniqueid": "MTK1876:3Y54SXRO1MSLCZUJ571Y5DAHJRXUT9", "dateTime": 1516487407975}, {"current_trial": 110, "trialdata": {"rt": -1, "trial_type": "single-stim", "stimulus": "<p id=\"stim\">6</p>", "internal_node_id": "0.0-79.0-4.0", "time_elapsed": 638685, "key_press": -1, "trial_index": 110}, "uniqueid": "MTK1876:3Y54SXRO1MSLCZUJ571Y5DAHJRXUT9", "dateTime": 1516487408978}, {"current_trial": 111, "trialdata": {"rt": -1, "trial_type": "single-stim", "stimulus": "<p id=\"stim\">5</p>", "internal_node_id": "0.0-79.0-5.0", "time_elapsed": 639689, "key_press": -1, "trial_index": 111}, "uniqueid": "MTK1876:3Y54SXRO1MSLCZUJ571Y5DAHJRXUT9", "dateTime": 1516487409982}, {"current_trial": 112, "trialdata": {"rt": -1, "trial_type": "single-stim", "stimulus": "<p id=\"stim\">4</p>", "internal_node_id": "0.0-79.0-6.0", "time_elapsed": 640693, "key_press": -1, "trial_index": 112}, "uniqueid": "MTK1876:3Y54SXRO1MSLCZUJ571Y5DAHJRXUT9", "dateTime": 1516487410987}, {"current_trial": 113, "trialdata": {"rt": -1, "trial_type": "single-stim", "stimulus": "<p id=\"stim\">3</p>", "internal_node_id": "0.0-79.0-7.0", "time_elapsed": 641697, "key_press": -1, "trial_index": 113}, "uniqueid": "MTK1876:3Y54SXRO1MSLCZUJ571Y5DAHJRXUT9", "dateTime": 1516487411990}, {"current_trial": 114, "trialdata": {"rt": -1, "trial_type": "single-stim", "stimulus": "<p id=\"stim\">2</p>", "internal_node_id": "0.0-79.0-8.0", "time_elapsed": 642702, "key_press": -1, "trial_index": 114}, "uniqueid": "MTK1876:3Y54SXRO1MSLCZUJ571Y5DAHJRXUT9", "dateTime": 1516487412995}, {"current_trial": 115, "trialdata": {"rt": -1, "trial_type": "single-stim", "stimulus": "<p id=\"stim\">1</p>", "internal_node_id": "0.0-79.0-9.0", "time_elapsed": 643706, "key_press": -1, "trial_index": 115}, "uniqueid": "MTK1876:3Y54SXRO1MSLCZUJ571Y5DAHJRXUT9", "dateTime": 1516487413999}, {"current_trial": 116, "trialdata": {"rt": -1, "trial_type": "single-stim", "stimulus": "<p id=\"stim\">+</p>", "internal_node_id": "0.0-80.0-0.0", "time_elapsed": 645210, "key_press": -1, "type": "FIXATION", "trial_index": 116}, "uniqueid": "MTK1876:3Y54SXRO1MSLCZUJ571Y5DAHJRXUT9", "dateTime": 1516487415503}, {"current_trial": 117, "trialdata": {"rt": -1, "trial_type": "single-stim", "word": "headband", "stimulus": "<p id=\"stim\">HEADBAND</p>", "conditions": [24, 800, "v", 24000], "internal_node_id": "0.0-81.0", "trial": 3, "time_elapsed": 646013, "serialpos": 0, "key_press": -1, "wordID": 695, "type": "PRES_VIS", "trial_index": 117}, "uniqueid": "MTK1876:3Y54SXRO1MSLCZUJ571Y5DAHJRXUT9", "dateTime": 1516487416306}, {"current_trial": 118, "trialdata": {"rt": -1, "trial_type": "single-stim", "word": "onion", "stimulus": "<p id=\"stim\">ONION</p>", "conditions": [24, 800, "v", 24000], "internal_node_id": "0.0-82.0", "trial": 3, "time_elapsed": 647802, "serialpos": 1, "key_press": -1, "wordID": 976, "type": "PRES_VIS", "trial_index": 118}, "uniqueid": "MTK1876:3Y54SXRO1MSLCZUJ571Y5DAHJRXUT9", "dateTime": 1516487418096}, {"current_trial": 119, "trialdata": {"rt": -1, "trial_type": "single-stim", "word": "donkey", "stimulus": "<p id=\"stim\">DONKEY</p>", "conditions": [24, 800, "v", 24000], "internal_node_id": "0.0-83.0", "trial": 3, "time_elapsed": 649471, "serialpos": 2, "key_press": -1, "wordID": 483, "type": "PRES_VIS", "trial_index": 119}, "uniqueid": "MTK1876:3Y54SXRO1MSLCZUJ571Y5DAHJRXUT9", "dateTime": 1516487419765}, {"current_trial": 120, "trialdata": {"rt": -1, "trial_type": "single-stim", "word": "motel", "stimulus": "<p id=\"stim\">MOTEL</p>", "conditions": [24, 800, "v", 24000], "internal_node_id": "0.0-84.0", "trial": 3, "time_elapsed": 651261, "serialpos": 3, "key_press": -1, "wordID": 918, "type": "PRES_VIS", "trial_index": 120}, "uniqueid": "MTK1876:3Y54SXRO1MSLCZUJ571Y5DAHJRXUT9", "dateTime": 1516487421554}, {"current_trial": 121, "trialdata": {"rt": -1, "trial_type": "single-stim", "word": "daughter", "stimulus": "<p id=\"stim\">DAUGHTER</p>", "conditions": [24, 800, "v", 24000], "internal_node_id": "0.0-85.0", "trial": 3, "time_elapsed": 653249, "serialpos": 4, "key_press": -1, "wordID": 441, "type": "PRES_VIS", "trial_index": 121}, "uniqueid": "MTK1876:3Y54SXRO1MSLCZUJ571Y5DAHJRXUT9", "dateTime": 1516487423542}, {"current_trial": 122, "trialdata": {"rt": -1, "trial_type": "single-stim", "word": "shirt", "stimulus": "<p id=\"stim\">SHIRT</p>", "conditions": [24, 800, "v", 24000], "internal_node_id": "0.0-86.0", "trial": 3, "time_elapsed": 654857, "serialpos": 5, "key_press": -1, "wordID": 1286, "type": "PRES_VIS", "trial_index": 122}, "uniqueid": "MTK1876:3Y54SXRO1MSLCZUJ571Y5DAHJRXUT9", "dateTime": 1516487425151}, {"current_trial": 123, "trialdata": {"rt": -1, "trial_type": "single-stim", "word": "rooster", "stimulus": "<p id=\"stim\">ROOSTER</p>", "conditions": [24, 800, "v", 24000], "internal_node_id": "0.0-87.0", "trial": 3, "time_elapsed": 656499, "serialpos": 6, "key_press": -1, "wordID": 1208, "type": "PRES_VIS", "trial_index": 123}, "uniqueid": "MTK1876:3Y54SXRO1MSLCZUJ571Y5DAHJRXUT9", "dateTime": 1516487426792}, {"current_trial": 124, "trialdata": {"rt": -1, "trial_type": "single-stim", "word": "star", "stimulus": "<p id=\"stim\">STAR</p>", "conditions": [24, 800, "v", 24000], "internal_node_id": "0.0-88.0", "trial": 3, "time_elapsed": 658127, "serialpos": 7, "key_press": -1, "wordID": 1372, "type": "PRES_VIS", "trial_index": 124}, "uniqueid": "MTK1876:3Y54SXRO1MSLCZUJ571Y5DAHJRXUT9", "dateTime": 1516487428421}, {"current_trial": 125, "trialdata": {"rt": -1, "trial_type": "single-stim", "word": "cobra", "stimulus": "<p id=\"stim\">COBRA</p>", "conditions": [24, 800, "v", 24000], "internal_node_id": "0.0-89.0", "trial": 3, "time_elapsed": 660109, "serialpos": 8, "key_press": -1, "wordID": 335, "type": "PRES_VIS", "trial_index": 125}, "uniqueid": "MTK1876:3Y54SXRO1MSLCZUJ571Y5DAHJRXUT9", "dateTime": 1516487430403}, {"current_trial": 126, "trialdata": {"rt": -1, "trial_type": "single-stim", "word": "lizard", "stimulus": "<p id=\"stim\">LIZARD</p>", "conditions": [24, 800, "v", 24000], "internal_node_id": "0.0-90.0", "trial": 3, "time_elapsed": 661797, "serialpos": 9, "key_press": -1, "wordID": 833, "type": "PRES_VIS", "trial_index": 126}, "uniqueid": "MTK1876:3Y54SXRO1MSLCZUJ571Y5DAHJRXUT9", "dateTime": 1516487432090}, {"current_trial": 127, "trialdata": {"rt": -1, "trial_type": "single-stim", "word": "cowboy", "stimulus": "<p id=\"stim\">COWBOY</p>", "conditions": [24, 800, "v", 24000], "internal_node_id": "0.0-91.0", "trial": 3, "time_elapsed": 663488, "serialpos": 10, "key_press": -1, "wordID": 394, "type": "PRES_VIS", "trial_index": 127}, "uniqueid": "MTK1876:3Y54SXRO1MSLCZUJ571Y5DAHJRXUT9", "dateTime": 1516487433781}, {"current_trial": 128, "trialdata": {"rt": -1, "trial_type": "single-stim", "word": "fireman", "stimulus": "<p id=\"stim\">FIREMAN</p>", "conditions": [24, 800, "v", 24000], "internal_node_id": "0.0-92.0", "trial": 3, "time_elapsed": 665157, "serialpos": 11, "key_press": -1, "wordID": 568, "type": "PRES_VIS", "trial_index": 128}, "uniqueid": "MTK1876:3Y54SXRO1MSLCZUJ571Y5DAHJRXUT9", "dateTime": 1516487435451}, {"current_trial": 129, "trialdata": {"rt": -1, "trial_type": "single-stim", "word": "switch", "stimulus": "<p id=\"stim\">SWITCH</p>", "conditions": [24, 800, "v", 24000], "internal_node_id": "0.0-93.0", "trial": 3, "time_elapsed": 666911, "serialpos": 12, "key_press": -1, "wordID": 1421, "type": "PRES_VIS", "trial_index": 129}, "uniqueid": "MTK1876:3Y54SXRO1MSLCZUJ571Y5DAHJRXUT9", "dateTime": 1516487437205}, {"current_trial": 130, "trialdata": {"rt": -1, "trial_type": "single-stim", "word": "mask", "stimulus": "<p id=\"stim\">MASK</p>", "conditions": [24, 800, "v", 24000], "internal_node_id": "0.0-94.0", "trial": 3, "time_elapsed": 668857, "serialpos": 13, "key_press": -1, "wordID": 875, "type": "PRES_VIS", "trial_index": 130}, "uniqueid": "MTK1876:3Y54SXRO1MSLCZUJ571Y5DAHJRXUT9", "dateTime": 1516487439150}, {"current_trial": 131, "trialdata": {"rt": -1, "trial_type": "single-stim", "word": "sandwich", "stimulus": "<p id=\"stim\">SANDWICH</p>", "conditions": [24, 800, "v", 24000], "internal_node_id": "0.0-95.0", "trial": 3, "time_elapsed": 670753, "serialpos": 14, "key_press": -1, "wordID": 1231, "type": "PRES_VIS", "trial_index": 131}, "uniqueid": "MTK1876:3Y54SXRO1MSLCZUJ571Y5DAHJRXUT9", "dateTime": 1516487441046}, {"current_trial": 132, "trialdata": {"rt": -1, "trial_type": "single-stim", "word": "scribble", "stimulus": "<p id=\"stim\">SCRIBBLE</p>", "conditions": [24, 800, "v", 24000], "internal_node_id": "0.0-96.0", "trial": 3, "time_elapsed": 672443, "serialpos": 15, "key_press": -1, "wordID": 1255, "type": "PRES_VIS", "trial_index": 132}, "uniqueid": "MTK1876:3Y54SXRO1MSLCZUJ571Y5DAHJRXUT9", "dateTime": 1516487442736}, {"current_trial": 133, "trialdata": {"rt": -1, "trial_type": "single-stim", "word": "paper", "stimulus": "<p id=\"stim\">PAPER</p>", "conditions": [24, 800, "v", 24000], "internal_node_id": "0.0-97.0", "trial": 3, "time_elapsed": 674362, "serialpos": 16, "key_press": -1, "wordID": 1010, "type": "PRES_VIS", "trial_index": 133}, "uniqueid": "MTK1876:3Y54SXRO1MSLCZUJ571Y5DAHJRXUT9", "dateTime": 1516487444655}, {"current_trial": 134, "trialdata": {"rt": -1, "trial_type": "single-stim", "word": "leg", "stimulus": "<p id=\"stim\">LEG</p>", "conditions": [24, 800, "v", 24000], "internal_node_id": "0.0-98.0", "trial": 3, "time_elapsed": 676280, "serialpos": 17, "key_press": -1, "wordID": 808, "type": "PRES_VIS", "trial_index": 134}, "uniqueid": "MTK1876:3Y54SXRO1MSLCZUJ571Y5DAHJRXUT9", "dateTime": 1516487446573}, {"current_trial": 135, "trialdata": {"rt": -1, "trial_type": "single-stim", "word": "diner", "stimulus": "<p id=\"stim\">DINER</p>", "conditions": [24, 800, "v", 24000], "internal_node_id": "0.0-99.0", "trial": 3, "time_elapsed": 678165, "serialpos": 18, "key_press": -1, "wordID": 466, "type": "PRES_VIS", "trial_index": 135}, "uniqueid": "MTK1876:3Y54SXRO1MSLCZUJ571Y5DAHJRXUT9", "dateTime": 1516487448458}, {"current_trial": 136, "trialdata": {"rt": -1, "trial_type": "single-stim", "word": "pocket", "stimulus": "<p id=\"stim\">POCKET</p>", "conditions": [24, 800, "v", 24000], "internal_node_id": "0.0-100.0", "trial": 3, "time_elapsed": 679917, "serialpos": 19, "key_press": -1, "wordID": 1092, "type": "PRES_VIS", "trial_index": 136}, "uniqueid": "MTK1876:3Y54SXRO1MSLCZUJ571Y5DAHJRXUT9", "dateTime": 1516487450210}, {"current_trial": 137, "trialdata": {"rt": -1, "trial_type": "single-stim", "word": "briefcase", "stimulus": "<p id=\"stim\">BRIEFCASE</p>", "conditions": [24, 800, "v", 24000], "internal_node_id": "0.0-101.0", "trial": 3, "time_elapsed": 681638, "serialpos": 20, "key_press": -1, "wordID": 174, "type": "PRES_VIS", "trial_index": 137}, "uniqueid": "MTK1876:3Y54SXRO1MSLCZUJ571Y5DAHJRXUT9", "dateTime": 1516487451932}, {"current_trial": 138, "trialdata": {"rt": -1, "trial_type": "single-stim", "word": "cattle", "stimulus": "<p id=\"stim\">CATTLE</p>", "conditions": [24, 800, "v", 24000], "internal_node_id": "0.0-102.0", "trial": 3, "time_elapsed": 683493, "serialpos": 21, "key_press": -1, "wordID": 260, "type": "PRES_VIS", "trial_index": 138}, "uniqueid": "MTK1876:3Y54SXRO1MSLCZUJ571Y5DAHJRXUT9", "dateTime": 1516487453786}, {"current_trial": 139, "trialdata": {"rt": -1, "trial_type": "single-stim", "word": "chapel", "stimulus": "<p id=\"stim\">CHAPEL</p>", "conditions": [24, 800, "v", 24000], "internal_node_id": "0.0-103.0", "trial": 3, "time_elapsed": 685439, "serialpos": 22, "key_press": -1, "wordID": 279, "type": "PRES_VIS", "trial_index": 139}, "uniqueid": "MTK1876:3Y54SXRO1MSLCZUJ571Y5DAHJRXUT9", "dateTime": 1516487455732}, {"current_trial": 140, "trialdata": {"rt": -1, "trial_type": "single-stim", "word": "robot", "stimulus": "<p id=\"stim\">ROBOT</p>", "conditions": [24, 800, "v", 24000], "internal_node_id": "0.0-104.0", "trial": 3, "time_elapsed": 687350, "serialpos": 23, "key_press": -1, "wordID": 1199, "type": "PRES_VIS", "trial_index": 140}, "uniqueid": "MTK1876:3Y54SXRO1MSLCZUJ571Y5DAHJRXUT9", "dateTime": 1516487457643}, {"current_trial": 141, "trialdata": {"rt": -1, "trial_type": "single-stim", "stimulus": "", "internal_node_id": "0.0-105.0-0.0", "time_elapsed": 689593, "key_press": -1, "type": "PRE_RECALL_DELAY", "trial_index": 141}, "uniqueid": "MTK1876:3Y54SXRO1MSLCZUJ571Y5DAHJRXUT9", "dateTime": 1516487459887}, {"current_trial": 142, "trialdata": {"rt": -1000, "trial_type": "single-audio", "stimulus": "/static/audio/400Hz.wav", "internal_node_id": "0.0-106.0", "time_elapsed": 690098, "key_press": -1, "type": "PRE_RECALL_ALERT", "trial_index": 142}, "uniqueid": "MTK1876:3Y54SXRO1MSLCZUJ571Y5DAHJRXUT9", "dateTime": 1516487460391}, {"current_trial": 143, "trialdata": {"rt": [2527, 5222, 11822, 15935, 17983, 23038, 30062, 45279, 50992], "recwords": ["scribble", "paper", "headband", "daughter", "motel", "briefcase", "cobra", "donkey", "paper"], "key_times": [1039, 1286, 1574, 1718, 1983, 2159, 2278, 2416, 2527, 3335, 3670, 4262, 4559, 4742, 4951, 5063, 5222, 6134, 6286, 6416, 6638, 10072, 10222, 10495, 10688, 11055, 11216, 11535, 11687, 11822, 13119, 13367, 13543, 13702, 14071, 14703, 15023, 15270, 15599, 15670, 15935, 17198, 17335, 17486, 17695, 17806, 17983, 21014, 21166, 21319, 21542, 21926, 22326, 22495, 22685, 22822, 23038, 29168, 29375, 29583, 29782, 29887, 30062, 44136, 44303, 44488, 44679, 44959, 45087, 45279, 50352, 50496, 50646, 50816, 50912, 50992], "trial_type": "free-recall", "conditions": [24, 800, "v", 24000], "internal_node_id": "0.0-107.0-0.0", "key_presses": [83, 67, 82, 73, 66, 66, 76, 69, 13, 80, 80, 8, 65, 80, 69, 82, 13, 72, 69, 65, 68, 66, 65, 68, 78, 8, 8, 78, 68, 13, 68, 65, 85, 71, 69, 8, 72, 84, 69, 82, 13, 77, 79, 84, 69, 76, 13, 66, 82, 73, 69, 70, 67, 65, 83, 69, 13, 67, 79, 66, 82, 65, 13, 68, 79, 78, 75, 69, 89, 13, 80, 65, 80, 69, 82, 13], "trial": 3, "time_elapsed": 750103, "type": "FREE_RECALL", "trial_index": 143}, "uniqueid": "MTK1876:3Y54SXRO1MSLCZUJ571Y5DAHJRXUT9", "dateTime": 1516487520401}, {"current_trial": 144, "trialdata": {"rt": 838, "trial_type": "text", "internal_node_id": "0.0-108.0", "time_elapsed": 752949, "key_press": 77, "type": "INSTRUCTIONS", "trial_index": 144}, "uniqueid": "MTK1876:3Y54SXRO1MSLCZUJ571Y5DAHJRXUT9", "dateTime": 1516487523242}, {"current_trial": 145, "trialdata": {"rt": [4105, 8569], "trial_type": "math-distractor", "key_times": [3538, 4105, 6962, 7898, 8569, 11177, 11736], "responses": ["9", "16"], "num2": [4, 4, 8], "num3": [4, 7, 4], "conditions": [24, 1600, "v", 12000], "internal_node_id": "0.0-109.0", "key_presses": [57, 13, 49, 54, 13, 49, 55], "trial": 4, "time_elapsed": 766956, "type": "DISTRACTOR", "trial_index": 145, "num1": [1, 5, 5]}, "uniqueid": "MTK1876:3Y54SXRO1MSLCZUJ571Y5DAHJRXUT9", "dateTime": 1516487537250}, {"current_trial": 146, "trialdata": {"rt": -1, "trial_type": "single-stim", "stimulus": "<p id=\"stim\">10</p>", "internal_node_id": "0.0-110.0-0.0", "time_elapsed": 769959, "key_press": -1, "trial_index": 146}, "uniqueid": "MTK1876:3Y54SXRO1MSLCZUJ571Y5DAHJRXUT9", "dateTime": 1516487540252}, {"current_trial": 147, "trialdata": {"rt": -1, "trial_type": "single-stim", "stimulus": "<p id=\"stim\">9</p>", "internal_node_id": "0.0-110.0-1.0", "time_elapsed": 770962, "key_press": -1, "trial_index": 147}, "uniqueid": "MTK1876:3Y54SXRO1MSLCZUJ571Y5DAHJRXUT9", "dateTime": 1516487541255}, {"current_trial": 148, "trialdata": {"rt": -1, "trial_type": "single-stim", "stimulus": "<p id=\"stim\">8</p>", "internal_node_id": "0.0-110.0-2.0", "time_elapsed": 771966, "key_press": -1, "trial_index": 148}, "uniqueid": "MTK1876:3Y54SXRO1MSLCZUJ571Y5DAHJRXUT9", "dateTime": 1516487542259}, {"current_trial": 149, "trialdata": {"rt": -1, "trial_type": "single-stim", "stimulus": "<p id=\"stim\">7</p>", "internal_node_id": "0.0-110.0-3.0", "time_elapsed": 772970, "key_press": -1, "trial_index": 149}, "uniqueid": "MTK1876:3Y54SXRO1MSLCZUJ571Y5DAHJRXUT9", "dateTime": 1516487543264}, {"current_trial": 150, "trialdata": {"rt": -1, "trial_type": "single-stim", "stimulus": "<p id=\"stim\">6</p>", "internal_node_id": "0.0-110.0-4.0", "time_elapsed": 773974, "key_press": -1, "trial_index": 150}, "uniqueid": "MTK1876:3Y54SXRO1MSLCZUJ571Y5DAHJRXUT9", "dateTime": 1516487544267}, {"current_trial": 151, "trialdata": {"rt": -1, "trial_type": "single-stim", "stimulus": "<p id=\"stim\">5</p>", "internal_node_id": "0.0-110.0-5.0", "time_elapsed": 774977, "key_press": -1, "trial_index": 151}, "uniqueid": "MTK1876:3Y54SXRO1MSLCZUJ571Y5DAHJRXUT9", "dateTime": 1516487545270}, {"current_trial": 152, "trialdata": {"rt": -1, "trial_type": "single-stim", "stimulus": "<p id=\"stim\">4</p>", "internal_node_id": "0.0-110.0-6.0", "time_elapsed": 775981, "key_press": -1, "trial_index": 152}, "uniqueid": "MTK1876:3Y54SXRO1MSLCZUJ571Y5DAHJRXUT9", "dateTime": 1516487546274}, {"current_trial": 153, "trialdata": {"rt": -1, "trial_type": "single-stim", "stimulus": "<p id=\"stim\">3</p>", "internal_node_id": "0.0-110.0-7.0", "time_elapsed": 776983, "key_press": -1, "trial_index": 153}, "uniqueid": "MTK1876:3Y54SXRO1MSLCZUJ571Y5DAHJRXUT9", "dateTime": 1516487547276}, {"current_trial": 154, "trialdata": {"rt": -1, "trial_type": "single-stim", "stimulus": "<p id=\"stim\">2</p>", "internal_node_id": "0.0-110.0-8.0", "time_elapsed": 777985, "key_press": -1, "trial_index": 154}, "uniqueid": "MTK1876:3Y54SXRO1MSLCZUJ571Y5DAHJRXUT9", "dateTime": 1516487548279}, {"current_trial": 155, "trialdata": {"rt": -1, "trial_type": "single-stim", "stimulus": "<p id=\"stim\">1</p>", "internal_node_id": "0.0-110.0-9.0", "time_elapsed": 778988, "key_press": -1, "trial_index": 155}, "uniqueid": "MTK1876:3Y54SXRO1MSLCZUJ571Y5DAHJRXUT9", "dateTime": 1516487549282}, {"current_trial": 156, "trialdata": {"rt": -1, "trial_type": "single-stim", "stimulus": "<p id=\"stim\">+</p>", "internal_node_id": "0.0-111.0-0.0", "time_elapsed": 780491, "key_press": -1, "type": "FIXATION", "trial_index": 156}, "uniqueid": "MTK1876:3Y54SXRO1MSLCZUJ571Y5DAHJRXUT9", "dateTime": 1516487550784}, {"current_trial": 157, "trialdata": {"rt": -1, "trial_type": "single-stim", "word": "france", "stimulus": "<p id=\"stim\">FRANCE</p>", "conditions": [24, 1600, "v", 12000], "internal_node_id": "0.0-112.0", "trial": 4, "time_elapsed": 782093, "serialpos": 0, "key_press": -1, "wordID": 600, "type": "PRES_VIS", "trial_index": 157}, "uniqueid": "MTK1876:3Y54SXRO1MSLCZUJ571Y5DAHJRXUT9", "dateTime": 1516487552386}, {"current_trial": 158, "trialdata": {"rt": -1, "trial_type": "single-stim", "word": "quail", "stimulus": "<p id=\"stim\">QUAIL</p>", "conditions": [24, 1600, "v", 12000], "internal_node_id": "0.0-113.0", "trial": 4, "time_elapsed": 784850, "serialpos": 1, "key_press": -1, "wordID": 1146, "type": "PRES_VIS", "trial_index": 158}, "uniqueid": "MTK1876:3Y54SXRO1MSLCZUJ571Y5DAHJRXUT9", "dateTime": 1516487555143}, {"current_trial": 159, "trialdata": {"rt": -1, "trial_type": "single-stim", "word": "turkey", "stimulus": "<p id=\"stim\">TURKEY</p>", "conditions": [24, 1600, "v", 12000], "internal_node_id": "0.0-114.0", "trial": 4, "time_elapsed": 787540, "serialpos": 2, "key_press": -1, "wordID": 1519, "type": "PRES_VIS", "trial_index": 159}, "uniqueid": "MTK1876:3Y54SXRO1MSLCZUJ571Y5DAHJRXUT9", "dateTime": 1516487557833}, {"current_trial": 160, "trialdata": {"rt": -1, "trial_type": "single-stim", "word": "marrow", "stimulus": "<p id=\"stim\">MARROW</p>", "conditions": [24, 1600, "v", 12000], "internal_node_id": "0.0-115.0", "trial": 4, "time_elapsed": 790194, "serialpos": 3, "key_press": -1, "wordID": 871, "type": "PRES_VIS", "trial_index": 160}, "uniqueid": "MTK1876:3Y54SXRO1MSLCZUJ571Y5DAHJRXUT9", "dateTime": 1516487560487}, {"current_trial": 161, "trialdata": {"rt": -1, "trial_type": "single-stim", "word": "london", "stimulus": "<p id=\"stim\">LONDON</p>", "conditions": [24, 1600, "v", 12000], "internal_node_id": "0.0-116.0", "trial": 4, "time_elapsed": 792916, "serialpos": 4, "key_press": -1, "wordID": 842, "type": "PRES_VIS", "trial_index": 161}, "uniqueid": "MTK1876:3Y54SXRO1MSLCZUJ571Y5DAHJRXUT9", "dateTime": 1516487563209}, {"current_trial": 162, "trialdata": {"rt": -1, "trial_type": "single-stim", "word": "razor", "stimulus": "<p id=\"stim\">RAZOR</p>", "conditions": [24, 1600, "v", 12000], "internal_node_id": "0.0-117.0", "trial": 4, "time_elapsed": 795429, "serialpos": 5, "key_press": -1, "wordID": 1170, "type": "PRES_VIS", "trial_index": 162}, "uniqueid": "MTK1876:3Y54SXRO1MSLCZUJ571Y5DAHJRXUT9", "dateTime": 1516487565722}, {"current_trial": 163, "trialdata": {"rt": -1, "trial_type": "single-stim", "word": "shark", "stimulus": "<p id=\"stim\">SHARK</p>", "conditions": [24, 1600, "v", 12000], "internal_node_id": "0.0-118.0", "trial": 4, "time_elapsed": 798086, "serialpos": 6, "key_press": -1, "wordID": 1274, "type": "PRES_VIS", "trial_index": 163}, "uniqueid": "MTK1876:3Y54SXRO1MSLCZUJ571Y5DAHJRXUT9", "dateTime": 1516487568379}, {"current_trial": 164, "trialdata": {"rt": -1, "trial_type": "single-stim", "word": "nurse", "stimulus": "<p id=\"stim\">NURSE</p>", "conditions": [24, 1600, "v", 12000], "internal_node_id": "0.0-119.0", "trial": 4, "time_elapsed": 800608, "serialpos": 7, "key_press": -1, "wordID": 962, "type": "PRES_VIS", "trial_index": 164}, "uniqueid": "MTK1876:3Y54SXRO1MSLCZUJ571Y5DAHJRXUT9", "dateTime": 1516487570901}, {"current_trial": 165, "trialdata": {"rt": -1, "trial_type": "single-stim", "word": "patient", "stimulus": "<p id=\"stim\">PATIENT</p>", "conditions": [24, 1600, "v", 12000], "internal_node_id": "0.0-120.0", "trial": 4, "time_elapsed": 803120, "serialpos": 8, "key_press": -1, "wordID": 1023, "type": "PRES_VIS", "trial_index": 165}, "uniqueid": "MTK1876:3Y54SXRO1MSLCZUJ571Y5DAHJRXUT9", "dateTime": 1516487573414}, {"current_trial": 166, "trialdata": {"rt": -1, "trial_type": "single-stim", "word": "passage", "stimulus": "<p id=\"stim\">PASSAGE</p>", "conditions": [24, 1600, "v", 12000], "internal_node_id": "0.0-121.0", "trial": 4, "time_elapsed": 805906, "serialpos": 9, "key_press": -1, "wordID": 1018, "type": "PRES_VIS", "trial_index": 166}, "uniqueid": "MTK1876:3Y54SXRO1MSLCZUJ571Y5DAHJRXUT9", "dateTime": 1516487576200}, {"current_trial": 167, "trialdata": {"rt": -1, "trial_type": "single-stim", "word": "slide", "stimulus": "<p id=\"stim\">SLIDE</p>", "conditions": [24, 1600, "v", 12000], "internal_node_id": "0.0-122.0", "trial": 4, "time_elapsed": 808543, "serialpos": 10, "key_press": -1, "wordID": 1325, "type": "PRES_VIS", "trial_index": 167}, "uniqueid": "MTK1876:3Y54SXRO1MSLCZUJ571Y5DAHJRXUT9", "dateTime": 1516487578836}, {"current_trial": 168, "trialdata": {"rt": -1, "trial_type": "single-stim", "word": "wasp", "stimulus": "<p id=\"stim\">WASP</p>", "conditions": [24, 1600, "v", 12000], "internal_node_id": "0.0-123.0", "trial": 4, "time_elapsed": 811248, "serialpos": 11, "key_press": -1, "wordID": 1592, "type": "PRES_VIS", "trial_index": 168}, "uniqueid": "MTK1876:3Y54SXRO1MSLCZUJ571Y5DAHJRXUT9", "dateTime": 1516487581541}, {"current_trial": 169, "trialdata": {"rt": -1, "trial_type": "single-stim", "word": "shelf", "stimulus": "<p id=\"stim\">SHELF</p>", "conditions": [24, 1600, "v", 12000], "internal_node_id": "0.0-124.0", "trial": 4, "time_elapsed": 814042, "serialpos": 12, "key_press": -1, "wordID": 1279, "type": "PRES_VIS", "trial_index": 169}, "uniqueid": "MTK1876:3Y54SXRO1MSLCZUJ571Y5DAHJRXUT9", "dateTime": 1516487584335}, {"current_trial": 170, "trialdata": {"rt": -1, "trial_type": "single-stim", "word": "monster", "stimulus": "<p id=\"stim\">MONSTER</p>", "conditions": [24, 1600, "v", 12000], "internal_node_id": "0.0-125.0", "trial": 4, "time_elapsed": 816477, "serialpos": 13, "key_press": -1, "wordID": 911, "type": "PRES_VIS", "trial_index": 170}, "uniqueid": "MTK1876:3Y54SXRO1MSLCZUJ571Y5DAHJRXUT9", "dateTime": 1516487586771}, {"current_trial": 171, "trialdata": {"rt": -1, "trial_type": "single-stim", "word": "bike", "stimulus": "<p id=\"stim\">BIKE</p>", "conditions": [24, 1600, "v", 12000], "internal_node_id": "0.0-126.0", "trial": 4, "time_elapsed": 818983, "serialpos": 14, "key_press": -1, "wordID": 124, "type": "PRES_VIS", "trial_index": 171}, "uniqueid": "MTK1876:3Y54SXRO1MSLCZUJ571Y5DAHJRXUT9", "dateTime": 1516487589276}, {"current_trial": 172, "trialdata": {"rt": -1, "trial_type": "single-stim", "word": "airport", "stimulus": "<p id=\"stim\">AIRPORT</p>", "conditions": [24, 1600, "v", 12000], "internal_node_id": "0.0-127.0", "trial": 4, "time_elapsed": 821556, "serialpos": 15, "key_press": -1, "wordID": 12, "type": "PRES_VIS", "trial_index": 172}, "uniqueid": "MTK1876:3Y54SXRO1MSLCZUJ571Y5DAHJRXUT9", "dateTime": 1516487591849}, {"current_trial": 173, "trialdata": {"rt": -1, "trial_type": "single-stim", "word": "mattress", "stimulus": "<p id=\"stim\">MATTRESS</p>", "conditions": [24, 1600, "v", 12000], "internal_node_id": "0.0-128.0", "trial": 4, "time_elapsed": 824253, "serialpos": 16, "key_press": -1, "wordID": 878, "type": "PRES_VIS", "trial_index": 173}, "uniqueid": "MTK1876:3Y54SXRO1MSLCZUJ571Y5DAHJRXUT9", "dateTime": 1516487594546}, {"current_trial": 174, "trialdata": {"rt": -1, "trial_type": "single-stim", "word": "fox", "stimulus": "<p id=\"stim\">FOX</p>", "conditions": [24, 1600, "v", 12000], "internal_node_id": "0.0-129.0", "trial": 4, "time_elapsed": 826918, "serialpos": 17, "key_press": -1, "wordID": 597, "type": "PRES_VIS", "trial_index": 174}, "uniqueid": "MTK1876:3Y54SXRO1MSLCZUJ571Y5DAHJRXUT9", "dateTime": 1516487597212}, {"current_trial": 175, "trialdata": {"rt": -1, "trial_type": "single-stim", "word": "rabbit", "stimulus": "<p id=\"stim\">RABBIT</p>", "conditions": [24, 1600, "v", 12000], "internal_node_id": "0.0-130.0", "trial": 4, "time_elapsed": 829459, "serialpos": 18, "key_press": -1, "wordID": 1151, "type": "PRES_VIS", "trial_index": 175}, "uniqueid": "MTK1876:3Y54SXRO1MSLCZUJ571Y5DAHJRXUT9", "dateTime": 1516487599752}, {"current_trial": 176, "trialdata": {"rt": -1, "trial_type": "single-stim", "word": "couch", "stimulus": "<p id=\"stim\">COUCH</p>", "conditions": [24, 1600, "v", 12000], "internal_node_id": "0.0-131.0", "trial": 4, "time_elapsed": 832164, "serialpos": 19, "key_press": -1, "wordID": 385, "type": "PRES_VIS", "trial_index": 176}, "uniqueid": "MTK1876:3Y54SXRO1MSLCZUJ571Y5DAHJRXUT9", "dateTime": 1516487602458}, {"current_trial": 177, "trialdata": {"rt": -1, "trial_type": "single-stim", "word": "omelet", "stimulus": "<p id=\"stim\">OMELET</p>", "conditions": [24, 1600, "v", 12000], "internal_node_id": "0.0-132.0", "trial": 4, "time_elapsed": 834692, "serialpos": 20, "key_press": -1, "wordID": 975, "type": "PRES_VIS", "trial_index": 177}, "uniqueid": "MTK1876:3Y54SXRO1MSLCZUJ571Y5DAHJRXUT9", "dateTime": 1516487604986}, {"current_trial": 178, "trialdata": {"rt": -1, "trial_type": "single-stim", "word": "office", "stimulus": "<p id=\"stim\">OFFICE</p>", "conditions": [24, 1600, "v", 12000], "internal_node_id": "0.0-133.0", "trial": 4, "time_elapsed": 837364, "serialpos": 21, "key_press": -1, "wordID": 971, "type": "PRES_VIS", "trial_index": 178}, "uniqueid": "MTK1876:3Y54SXRO1MSLCZUJ571Y5DAHJRXUT9", "dateTime": 1516487607657}, {"current_trial": 179, "trialdata": {"rt": -1, "trial_type": "single-stim", "word": "buggy", "stimulus": "<p id=\"stim\">BUGGY</p>", "conditions": [24, 1600, "v", 12000], "internal_node_id": "0.0-134.0", "trial": 4, "time_elapsed": 839789, "serialpos": 22, "key_press": -1, "wordID": 187, "type": "PRES_VIS", "trial_index": 179}, "uniqueid": "MTK1876:3Y54SXRO1MSLCZUJ571Y5DAHJRXUT9", "dateTime": 1516487610082}, {"current_trial": 180, "trialdata": {"rt": -1, "trial_type": "single-stim", "word": "rocket", "stimulus": "<p id=\"stim\">ROCKET</p>", "conditions": [24, 1600, "v", 12000], "internal_node_id": "0.0-135.0", "trial": 4, "time_elapsed": 842459, "serialpos": 23, "key_press": -1, "wordID": 1201, "type": "PRES_VIS", "trial_index": 180}, "uniqueid": "MTK1876:3Y54SXRO1MSLCZUJ571Y5DAHJRXUT9", "dateTime": 1516487612754}, {"current_trial": 181, "trialdata": {"rt": -1, "trial_type": "single-stim", "stimulus": "", "internal_node_id": "0.0-136.0-0.0", "time_elapsed": 844741, "key_press": -1, "type": "PRE_RECALL_DELAY", "trial_index": 181}, "uniqueid": "MTK1876:3Y54SXRO1MSLCZUJ571Y5DAHJRXUT9", "dateTime": 1516487615034}, {"current_trial": 182, "trialdata": {"rt": -1000, "trial_type": "single-audio", "stimulus": "/static/audio/400Hz.wav", "internal_node_id": "0.0-137.0", "time_elapsed": 845244, "key_press": -1, "type": "PRE_RECALL_ALERT", "trial_index": 182}, "uniqueid": "MTK1876:3Y54SXRO1MSLCZUJ571Y5DAHJRXUT9", "dateTime": 1516487615537}, {"current_trial": 183, "trialdata": {"rt": [2861, 5772, 8517, 10901, 14573, 19428, 20838, 24229], "recwords": ["omelet", "france", "quail", "turkey", "london", "patient", "nurse", "mattress"], "key_times": [1518, 1668, 1917, 2309, 2607, 2741, 2861, 4557, 4789, 4941, 5142, 5476, 5589, 5772, 7477, 7661, 7893, 8076, 8229, 8517, 9981, 10132, 10285, 10389, 10535, 10709, 10901, 13087, 13278, 13436, 13985, 14173, 14245, 14573, 18149, 18317, 18685, 18789, 18940, 19077, 19253, 19428, 19934, 20142, 20246, 20430, 20653, 20838, 22492, 22629, 22790, 23029, 23535, 23645, 23901, 24020, 24229], "trial_type": "free-recall", "conditions": [24, 1600, "v", 12000], "internal_node_id": "0.0-138.0-0.0", "key_presses": [79, 77, 69, 76, 69, 84, 13, 70, 82, 65, 78, 67, 69, 13, 81, 85, 65, 73, 76, 13, 84, 85, 82, 75, 69, 89, 13, 76, 79, 78, 68, 79, 78, 13, 80, 65, 84, 73, 69, 78, 84, 13, 78, 85, 82, 83, 69, 13, 77, 65, 84, 84, 82, 69, 83, 83, 13], "trial": 4, "time_elapsed": 905249, "type": "FREE_RECALL", "trial_index": 183}, "uniqueid": "MTK1876:3Y54SXRO1MSLCZUJ571Y5DAHJRXUT9", "dateTime": 1516487675550}, {"current_trial": 184, "trialdata": {"rt": 411, "trial_type": "text", "internal_node_id": "0.0-139.0", "time_elapsed": 907669, "key_press": 32, "type": "INSTRUCTIONS", "trial_index": 184}, "uniqueid": "MTK1876:3Y54SXRO1MSLCZUJ571Y5DAHJRXUT9", "dateTime": 1516487677962}, {"current_trial": 185, "trialdata": {"rt": [3370, 7234, 11107], "trial_type": "math-distractor", "key_times": [2539, 2674, 3370, 6522, 6658, 7234, 9475, 10250, 10635, 11107], "responses": ["16", "15", "7"], "num2": [6, 7, 3, 9], "num3": [8, 6, 1, 6], "conditions": [12, 800, "v", 12000], "internal_node_id": "0.0-140.0", "key_presses": [49, 54, 13, 49, 53, 13, 56, 8, 55, 13], "trial": 5, "time_elapsed": 921676, "type": "DISTRACTOR", "trial_index": 185, "num1": [2, 2, 3, 3]}, "uniqueid": "MTK1876:3Y54SXRO1MSLCZUJ571Y5DAHJRXUT9", "dateTime": 1516487691969}, {"current_trial": 186, "trialdata": {"rt": -1, "trial_type": "single-stim", "stimulus": "<p id=\"stim\">10</p>", "internal_node_id": "0.0-141.0-0.0", "time_elapsed": 924681, "key_press": -1, "trial_index": 186}, "uniqueid": "MTK1876:3Y54SXRO1MSLCZUJ571Y5DAHJRXUT9", "dateTime": 1516487694975}, {"current_trial": 187, "trialdata": {"rt": -1, "trial_type": "single-stim", "stimulus": "<p id=\"stim\">9</p>", "internal_node_id": "0.0-141.0-1.0", "time_elapsed": 925684, "key_press": -1, "trial_index": 187}, "uniqueid": "MTK1876:3Y54SXRO1MSLCZUJ571Y5DAHJRXUT9", "dateTime": 1516487695977}, {"current_trial": 188, "trialdata": {"rt": -1, "trial_type": "single-stim", "stimulus": "<p id=\"stim\">8</p>", "internal_node_id": "0.0-141.0-2.0", "time_elapsed": 926687, "key_press": -1, "trial_index": 188}, "uniqueid": "MTK1876:3Y54SXRO1MSLCZUJ571Y5DAHJRXUT9", "dateTime": 1516487696981}, {"current_trial": 189, "trialdata": {"rt": -1, "trial_type": "single-stim", "stimulus": "<p id=\"stim\">7</p>", "internal_node_id": "0.0-141.0-3.0", "time_elapsed": 927692, "key_press": -1, "trial_index": 189}, "uniqueid": "MTK1876:3Y54SXRO1MSLCZUJ571Y5DAHJRXUT9", "dateTime": 1516487697985}, {"current_trial": 190, "trialdata": {"rt": -1, "trial_type": "single-stim", "stimulus": "<p id=\"stim\">6</p>", "internal_node_id": "0.0-141.0-4.0", "time_elapsed": 928696, "key_press": -1, "trial_index": 190}, "uniqueid": "MTK1876:3Y54SXRO1MSLCZUJ571Y5DAHJRXUT9", "dateTime": 1516487698989}, {"current_trial": 191, "trialdata": {"rt": -1, "trial_type": "single-stim", "stimulus": "<p id=\"stim\">5</p>", "internal_node_id": "0.0-141.0-5.0", "time_elapsed": 929699, "key_press": -1, "trial_index": 191}, "uniqueid": "MTK1876:3Y54SXRO1MSLCZUJ571Y5DAHJRXUT9", "dateTime": 1516487699992}, {"current_trial": 192, "trialdata": {"rt": -1, "trial_type": "single-stim", "stimulus": "<p id=\"stim\">4</p>", "internal_node_id": "0.0-141.0-6.0", "time_elapsed": 930701, "key_press": -1, "trial_index": 192}, "uniqueid": "MTK1876:3Y54SXRO1MSLCZUJ571Y5DAHJRXUT9", "dateTime": 1516487700995}, {"current_trial": 193, "trialdata": {"rt": -1, "trial_type": "single-stim", "stimulus": "<p id=\"stim\">3</p>", "internal_node_id": "0.0-141.0-7.0", "time_elapsed": 931705, "key_press": -1, "trial_index": 193}, "uniqueid": "MTK1876:3Y54SXRO1MSLCZUJ571Y5DAHJRXUT9", "dateTime": 1516487701998}, {"current_trial": 194, "trialdata": {"rt": -1, "trial_type": "single-stim", "stimulus": "<p id=\"stim\">2</p>", "internal_node_id": "0.0-141.0-8.0", "time_elapsed": 932709, "key_press": -1, "trial_index": 194}, "uniqueid": "MTK1876:3Y54SXRO1MSLCZUJ571Y5DAHJRXUT9", "dateTime": 1516487703002}, {"current_trial": 195, "trialdata": {"rt": -1, "trial_type": "single-stim", "stimulus": "<p id=\"stim\">1</p>", "internal_node_id": "0.0-141.0-9.0", "time_elapsed": 933712, "key_press": -1, "trial_index": 195}, "uniqueid": "MTK1876:3Y54SXRO1MSLCZUJ571Y5DAHJRXUT9", "dateTime": 1516487704005}, {"current_trial": 196, "trialdata": {"rt": -1, "trial_type": "single-stim", "stimulus": "<p id=\"stim\">+</p>", "internal_node_id": "0.0-142.0-0.0", "time_elapsed": 935215, "key_press": -1, "type": "FIXATION", "trial_index": 196}, "uniqueid": "MTK1876:3Y54SXRO1MSLCZUJ571Y5DAHJRXUT9", "dateTime": 1516487705508}, {"current_trial": 197, "trialdata": {"rt": -1, "trial_type": "single-stim", "word": "driver", "stimulus": "<p id=\"stim\">DRIVER</p>", "conditions": [12, 800, "v", 12000], "internal_node_id": "0.0-143.0", "trial": 5, "time_elapsed": 936016, "serialpos": 0, "key_press": -1, "wordID": 498, "type": "PRES_VIS", "trial_index": 197}, "uniqueid": "MTK1876:3Y54SXRO1MSLCZUJ571Y5DAHJRXUT9", "dateTime": 1516487706310}, {"current_trial": 198, "trialdata": {"rt": -1, "trial_type": "single-stim", "word": "truck", "stimulus": "<p id=\"stim\">TRUCK</p>", "conditions": [12, 800, "v", 12000], "internal_node_id": "0.0-144.0", "trial": 5, "time_elapsed": 937902, "serialpos": 1, "key_press": -1, "wordID": 1511, "type": "PRES_VIS", "trial_index": 198}, "uniqueid": "MTK1876:3Y54SXRO1MSLCZUJ571Y5DAHJRXUT9", "dateTime": 1516487708195}, {"current_trial": 199, "trialdata": {"rt": -1, "trial_type": "single-stim", "word": "knapsack", "stimulus": "<p id=\"stim\">KNAPSACK</p>", "conditions": [12, 800, "v", 12000], "internal_node_id": "0.0-145.0", "trial": 5, "time_elapsed": 939794, "serialpos": 2, "key_press": -1, "wordID": 782, "type": "PRES_VIS", "trial_index": 199}, "uniqueid": "MTK1876:3Y54SXRO1MSLCZUJ571Y5DAHJRXUT9", "dateTime": 1516487710087}, {"current_trial": 200, "trialdata": {"rt": -1, "trial_type": "single-stim", "word": "queen", "stimulus": "<p id=\"stim\">QUEEN</p>", "conditions": [12, 800, "v", 12000], "internal_node_id": "0.0-146.0", "trial": 5, "time_elapsed": 941449, "serialpos": 3, "key_press": -1, "wordID": 1148, "type": "PRES_VIS", "trial_index": 200}, "uniqueid": "MTK1876:3Y54SXRO1MSLCZUJ571Y5DAHJRXUT9", "dateTime": 1516487711742}, {"current_trial": 201, "trialdata": {"rt": -1, "trial_type": "single-stim", "word": "ointment", "stimulus": "<p id=\"stim\">OINTMENT</p>", "conditions": [12, 800, "v", 12000], "internal_node_id": "0.0-147.0", "trial": 5, "time_elapsed": 943428, "serialpos": 4, "key_press": -1, "wordID": 973, "type": "PRES_VIS", "trial_index": 201}, "uniqueid": "MTK1876:3Y54SXRO1MSLCZUJ571Y5DAHJRXUT9", "dateTime": 1516487713722}, {"current_trial": 202, "trialdata": {"rt": -1, "trial_type": "single-stim", "word": "scalpel", "stimulus": "<p id=\"stim\">SCALPEL</p>", "conditions": [12, 800, "v", 12000], "internal_node_id": "0.0-148.0", "trial": 5, "time_elapsed": 945044, "serialpos": 5, "key_press": -1, "wordID": 1242, "type": "PRES_VIS", "trial_index": 202}, "uniqueid": "MTK1876:3Y54SXRO1MSLCZUJ571Y5DAHJRXUT9", "dateTime": 1516487715338}, {"current_trial": 203, "trialdata": {"rt": -1, "trial_type": "single-stim", "word": "jelly", "stimulus": "<p id=\"stim\">JELLY</p>", "conditions": [12, 800, "v", 12000], "internal_node_id": "0.0-149.0", "trial": 5, "time_elapsed": 946742, "serialpos": 6, "key_press": -1, "wordID": 754, "type": "PRES_VIS", "trial_index": 203}, "uniqueid": "MTK1876:3Y54SXRO1MSLCZUJ571Y5DAHJRXUT9", "dateTime": 1516487717036}, {"current_trial": 204, "trialdata": {"rt": -1, "trial_type": "single-stim", "word": "servant", "stimulus": "<p id=\"stim\">SERVANT</p>", "conditions": [12, 800, "v", 12000], "internal_node_id": "0.0-150.0", "trial": 5, "time_elapsed": 948681, "serialpos": 7, "key_press": -1, "wordID": 1270, "type": "PRES_VIS", "trial_index": 204}, "uniqueid": "MTK1876:3Y54SXRO1MSLCZUJ571Y5DAHJRXUT9", "dateTime": 1516487718975}, {"current_trial": 205, "trialdata": {"rt": -1, "trial_type": "single-stim", "word": "kitchen", "stimulus": "<p id=\"stim\">KITCHEN</p>", "conditions": [12, 800, "v", 12000], "internal_node_id": "0.0-151.0", "trial": 5, "time_elapsed": 950287, "serialpos": 8, "key_press": -1, "wordID": 777, "type": "PRES_VIS", "trial_index": 205}, "uniqueid": "MTK1876:3Y54SXRO1MSLCZUJ571Y5DAHJRXUT9", "dateTime": 1516487720581}, {"current_trial": 206, "trialdata": {"rt": -1, "trial_type": "single-stim", "word": "backbone", "stimulus": "<p id=\"stim\">BACKBONE</p>", "conditions": [12, 800, "v", 12000], "internal_node_id": "0.0-152.0", "trial": 5, "time_elapsed": 952132, "serialpos": 9, "key_press": -1, "wordID": 65, "type": "PRES_VIS", "trial_index": 206}, "uniqueid": "MTK1876:3Y54SXRO1MSLCZUJ571Y5DAHJRXUT9", "dateTime": 1516487722426}, {"current_trial": 207, "trialdata": {"rt": -1, "trial_type": "single-stim", "word": "ghetto", "stimulus": "<p id=\"stim\">GHETTO</p>", "conditions": [12, 800, "v", 12000], "internal_node_id": "0.0-153.0", "trial": 5, "time_elapsed": 954123, "serialpos": 10, "key_press": -1, "wordID": 632, "type": "PRES_VIS", "trial_index": 207}, "uniqueid": "MTK1876:3Y54SXRO1MSLCZUJ571Y5DAHJRXUT9", "dateTime": 1516487724416}, {"current_trial": 208, "trialdata": {"rt": -1, "trial_type": "single-stim", "word": "custard", "stimulus": "<p id=\"stim\">CUSTARD</p>", "conditions": [12, 800, "v", 12000], "internal_node_id": "0.0-154.0", "trial": 5, "time_elapsed": 955841, "serialpos": 11, "key_press": -1, "wordID": 428, "type": "PRES_VIS", "trial_index": 208}, "uniqueid": "MTK1876:3Y54SXRO1MSLCZUJ571Y5DAHJRXUT9", "dateTime": 1516487726134}, {"current_trial": 209, "trialdata": {"rt": -1, "trial_type": "single-stim", "stimulus": "", "internal_node_id": "0.0-155.0-0.0", "time_elapsed": 957971, "key_press": -1, "type": "PRE_RECALL_DELAY", "trial_index": 209}, "uniqueid": "MTK1876:3Y54SXRO1MSLCZUJ571Y5DAHJRXUT9", "dateTime": 1516487728264}, {"current_trial": 210, "trialdata": {"rt": -1000, "trial_type": "single-audio", "stimulus": "/static/audio/400Hz.wav", "internal_node_id": "0.0-156.0", "time_elapsed": 958473, "key_press": -1, "type": "PRE_RECALL_ALERT", "trial_index": 210}, "uniqueid": "MTK1876:3Y54SXRO1MSLCZUJ571Y5DAHJRXUT9", "dateTime": 1516487728766}, {"current_trial": 211, "trialdata": {"rt": [5600, 7080, 8833, 11416, 13176, 16208, 23424, 46232], "recwords": ["truck", "driver", "ghetto", "queen", "servant", "kitchen", "custard", "knapsack"], "key_times": [2800, 2976, 3063, 3753, 3768, 3920, 4096, 4617, 4768, 4984, 5137, 5312, 5417, 5600, 6024, 6257, 6343, 6568, 6760, 6840, 7080, 7617, 7984, 8168, 8344, 8505, 8647, 8833, 10175, 10392, 10536, 11016, 11208, 11416, 11833, 11961, 12040, 12312, 12792, 12936, 13041, 13176, 14783, 14983, 15081, 15386, 15528, 15681, 15919, 16208, 19017, 19481, 19616, 19768, 19935, 20160, 20385, 20578, 21036, 21640, 21904, 22080, 22224, 22448, 22767, 22947, 23224, 23424, 42266, 42615, 42656, 43145, 43160, 43279, 43832, 44073, 44320, 44480, 44905, 45688, 45928, 46056, 46232], "trial_type": "free-recall", "conditions": [12, 800, "v", 12000], "internal_node_id": "0.0-157.0-0.0", "key_presses": [84, 85, 82, 8, 8, 8, 82, 8, 84, 82, 85, 67, 75, 13, 68, 82, 73, 86, 69, 82, 13, 71, 72, 69, 84, 84, 79, 13, 81, 85, 69, 69, 78, 13, 83, 69, 82, 86, 65, 78, 84, 13, 75, 73, 84, 67, 72, 69, 78, 13, 85, 8, 67, 85, 83, 84, 65, 82, 68, 8, 67, 85, 83, 84, 65, 82, 68, 13, 75, 75, 78, 8, 8, 8, 75, 78, 65, 80, 83, 65, 67, 75, 13], "trial": 5, "time_elapsed": 1018477, "type": "FREE_RECALL", "trial_index": 211}, "uniqueid": "MTK1876:3Y54SXRO1MSLCZUJ571Y5DAHJRXUT9", "dateTime": 1516487788778}, {"current_trial": 212, "trialdata": {"rt": 766, "trial_type": "text", "internal_node_id": "0.0-158.0", "time_elapsed": 1021253, "key_press": 32, "type": "INSTRUCTIONS", "trial_index": 212}, "uniqueid": "MTK1876:3Y54SXRO1MSLCZUJ571Y5DAHJRXUT9", "dateTime": 1516487791546}, {"current_trial": 213, "trialdata": {"rt": [3707, 12940, 17395, 21612], "trial_type": "math-distractor", "key_times": [3123, 3219, 3707, 12020, 12275, 12940, 16867, 17083, 17395, 20828, 21052, 21612], "responses": ["17", "21", "23", "23"], "num2": [8, 7, 9, 8, 5], "num3": [5, 8, 8, 6, 9], "conditions": [12, 800, "v", 24000], "internal_node_id": "0.0-159.0", "key_presses": [49, 55, 13, 50, 49, 13, 50, 51, 13, 50, 51, 13], "trial": 6, "time_elapsed": 1047258, "type": "DISTRACTOR", "trial_index": 213, "num1": [4, 6, 6, 9, 5]}, "uniqueid": "MTK1876:3Y54SXRO1MSLCZUJ571Y5DAHJRXUT9", "dateTime": 1516487817552}, {"current_trial": 214, "trialdata": {"rt": -1, "trial_type": "single-stim", "stimulus": "<p id=\"stim\">10</p>", "internal_node_id": "0.0-160.0-0.0", "time_elapsed": 1050261, "key_press": -1, "trial_index": 214}, "uniqueid": "MTK1876:3Y54SXRO1MSLCZUJ571Y5DAHJRXUT9", "dateTime": 1516487820555}, {"current_trial": 215, "trialdata": {"rt": -1, "trial_type": "single-stim", "stimulus": "<p id=\"stim\">9</p>", "internal_node_id": "0.0-160.0-1.0", "time_elapsed": 1051264, "key_press": -1, "trial_index": 215}, "uniqueid": "MTK1876:3Y54SXRO1MSLCZUJ571Y5DAHJRXUT9", "dateTime": 1516487821557}, {"current_trial": 216, "trialdata": {"rt": -1, "trial_type": "single-stim", "stimulus": "<p id=\"stim\">8</p>", "internal_node_id": "0.0-160.0-2.0", "time_elapsed": 1052266, "key_press": -1, "trial_index": 216}, "uniqueid": "MTK1876:3Y54SXRO1MSLCZUJ571Y5DAHJRXUT9", "dateTime": 1516487822559}, {"current_trial": 217, "trialdata": {"rt": -1, "trial_type": "single-stim", "stimulus": "<p id=\"stim\">7</p>", "internal_node_id": "0.0-160.0-3.0", "time_elapsed": 1053269, "key_press": -1, "trial_index": 217}, "uniqueid": "MTK1876:3Y54SXRO1MSLCZUJ571Y5DAHJRXUT9", "dateTime": 1516487823562}, {"current_trial": 218, "trialdata": {"rt": -1, "trial_type": "single-stim", "stimulus": "<p id=\"stim\">6</p>", "internal_node_id": "0.0-160.0-4.0", "time_elapsed": 1054273, "key_press": -1, "trial_index": 218}, "uniqueid": "MTK1876:3Y54SXRO1MSLCZUJ571Y5DAHJRXUT9", "dateTime": 1516487824566}, {"current_trial": 219, "trialdata": {"rt": -1, "trial_type": "single-stim", "stimulus": "<p id=\"stim\">5</p>", "internal_node_id": "0.0-160.0-5.0", "time_elapsed": 1055276, "key_press": -1, "trial_index": 219}, "uniqueid": "MTK1876:3Y54SXRO1MSLCZUJ571Y5DAHJRXUT9", "dateTime": 1516487825570}, {"current_trial": 220, "trialdata": {"rt": -1, "trial_type": "single-stim", "stimulus": "<p id=\"stim\">4</p>", "internal_node_id": "0.0-160.0-6.0", "time_elapsed": 1056280, "key_press": -1, "trial_index": 220}, "uniqueid": "MTK1876:3Y54SXRO1MSLCZUJ571Y5DAHJRXUT9", "dateTime": 1516487826573}, {"current_trial": 221, "trialdata": {"rt": -1, "trial_type": "single-stim", "stimulus": "<p id=\"stim\">3</p>", "internal_node_id": "0.0-160.0-7.0", "time_elapsed": 1057284, "key_press": -1, "trial_index": 221}, "uniqueid": "MTK1876:3Y54SXRO1MSLCZUJ571Y5DAHJRXUT9", "dateTime": 1516487827577}, {"current_trial": 222, "trialdata": {"rt": -1, "trial_type": "single-stim", "stimulus": "<p id=\"stim\">2</p>", "internal_node_id": "0.0-160.0-8.0", "time_elapsed": 1058287, "key_press": -1, "trial_index": 222}, "uniqueid": "MTK1876:3Y54SXRO1MSLCZUJ571Y5DAHJRXUT9", "dateTime": 1516487828580}, {"current_trial": 223, "trialdata": {"rt": -1, "trial_type": "single-stim", "stimulus": "<p id=\"stim\">1</p>", "internal_node_id": "0.0-160.0-9.0", "time_elapsed": 1059288, "key_press": -1, "trial_index": 223}, "uniqueid": "MTK1876:3Y54SXRO1MSLCZUJ571Y5DAHJRXUT9", "dateTime": 1516487829581}, {"current_trial": 224, "trialdata": {"rt": -1, "trial_type": "single-stim", "stimulus": "<p id=\"stim\">+</p>", "internal_node_id": "0.0-161.0-0.0", "time_elapsed": 1060791, "key_press": -1, "type": "FIXATION", "trial_index": 224}, "uniqueid": "MTK1876:3Y54SXRO1MSLCZUJ571Y5DAHJRXUT9", "dateTime": 1516487831084}, {"current_trial": 225, "trialdata": {"rt": -1, "trial_type": "single-stim", "word": "woman", "stimulus": "<p id=\"stim\">WOMAN</p>", "conditions": [12, 800, "v", 24000], "internal_node_id": "0.0-162.0", "trial": 6, "time_elapsed": 1061595, "serialpos": 0, "key_press": -1, "wordID": 1619, "type": "PRES_VIS", "trial_index": 225}, "uniqueid": "MTK1876:3Y54SXRO1MSLCZUJ571Y5DAHJRXUT9", "dateTime": 1516487831888}, {"current_trial": 226, "trialdata": {"rt": -1, "trial_type": "single-stim", "word": "casket", "stimulus": "<p id=\"stim\">CASKET</p>", "conditions": [12, 800, "v", 24000], "internal_node_id": "0.0-163.0", "trial": 6, "time_elapsed": 1063227, "serialpos": 1, "key_press": -1, "wordID": 254, "type": "PRES_VIS", "trial_index": 226}, "uniqueid": "MTK1876:3Y54SXRO1MSLCZUJ571Y5DAHJRXUT9", "dateTime": 1516487833521}, {"current_trial": 227, "trialdata": {"rt": -1, "trial_type": "single-stim", "word": "brother", "stimulus": "<p id=\"stim\">BROTHER</p>", "conditions": [12, 800, "v", 24000], "internal_node_id": "0.0-164.0", "trial": 6, "time_elapsed": 1065025, "serialpos": 2, "key_press": -1, "wordID": 178, "type": "PRES_VIS", "trial_index": 227}, "uniqueid": "MTK1876:3Y54SXRO1MSLCZUJ571Y5DAHJRXUT9", "dateTime": 1516487835319}, {"current_trial": 228, "trialdata": {"rt": -1, "trial_type": "single-stim", "word": "victim", "stimulus": "<p id=\"stim\">VICTIM</p>", "conditions": [12, 800, "v", 24000], "internal_node_id": "0.0-165.0", "trial": 6, "time_elapsed": 1066820, "serialpos": 3, "key_press": -1, "wordID": 1561, "type": "PRES_VIS", "trial_index": 228}, "uniqueid": "MTK1876:3Y54SXRO1MSLCZUJ571Y5DAHJRXUT9", "dateTime": 1516487837118}, {"current_trial": 229, "trialdata": {"rt": -1, "trial_type": "single-stim", "word": "leopard", "stimulus": "<p id=\"stim\">LEOPARD</p>", "conditions": [12, 800, "v", 24000], "internal_node_id": "0.0-166.0", "trial": 6, "time_elapsed": 1068524, "serialpos": 4, "key_press": -1, "wordID": 811, "type": "PRES_VIS", "trial_index": 229}, "uniqueid": "MTK1876:3Y54SXRO1MSLCZUJ571Y5DAHJRXUT9", "dateTime": 1516487838817}, {"current_trial": 230, "trialdata": {"rt": -1, "trial_type": "single-stim", "word": "gift", "stimulus": "<p id=\"stim\">GIFT</p>", "conditions": [12, 800, "v", 24000], "internal_node_id": "0.0-167.0", "trial": 6, "time_elapsed": 1070184, "serialpos": 5, "key_press": -1, "wordID": 634, "type": "PRES_VIS", "trial_index": 230}, "uniqueid": "MTK1876:3Y54SXRO1MSLCZUJ571Y5DAHJRXUT9", "dateTime": 1516487840477}, {"current_trial": 231, "trialdata": {"rt": -1, "trial_type": "single-stim", "word": "expert", "stimulus": "<p id=\"stim\">EXPERT</p>", "conditions": [12, 800, "v", 24000], "internal_node_id": "0.0-168.0", "trial": 6, "time_elapsed": 1071816, "serialpos": 6, "key_press": -1, "wordID": 542, "type": "PRES_VIS", "trial_index": 231}, "uniqueid": "MTK1876:3Y54SXRO1MSLCZUJ571Y5DAHJRXUT9", "dateTime": 1516487842109}, {"current_trial": 232, "trialdata": {"rt": -1, "trial_type": "single-stim", "word": "breast", "stimulus": "<p id=\"stim\">BREAST</p>", "conditions": [12, 800, "v", 24000], "internal_node_id": "0.0-169.0", "trial": 6, "time_elapsed": 1073576, "serialpos": 7, "key_press": -1, "wordID": 170, "type": "PRES_VIS", "trial_index": 232}, "uniqueid": "MTK1876:3Y54SXRO1MSLCZUJ571Y5DAHJRXUT9", "dateTime": 1516487843870}, {"current_trial": 233, "trialdata": {"rt": -1, "trial_type": "single-stim", "word": "farmer", "stimulus": "<p id=\"stim\">FARMER</p>", "conditions": [12, 800, "v", 24000], "internal_node_id": "0.0-170.0", "trial": 6, "time_elapsed": 1075398, "serialpos": 8, "key_press": -1, "wordID": 552, "type": "PRES_VIS", "trial_index": 233}, "uniqueid": "MTK1876:3Y54SXRO1MSLCZUJ571Y5DAHJRXUT9", "dateTime": 1516487845692}, {"current_trial": 234, "trialdata": {"rt": -1, "trial_type": "single-stim", "word": "knife", "stimulus": "<p id=\"stim\">KNIFE</p>", "conditions": [12, 800, "v", 24000], "internal_node_id": "0.0-171.0", "trial": 6, "time_elapsed": 1077174, "serialpos": 9, "key_press": -1, "wordID": 784, "type": "PRES_VIS", "trial_index": 234}, "uniqueid": "MTK1876:3Y54SXRO1MSLCZUJ571Y5DAHJRXUT9", "dateTime": 1516487847468}, {"current_trial": 235, "trialdata": {"rt": -1, "trial_type": "single-stim", "word": "pistol", "stimulus": "<p id=\"stim\">PISTOL</p>", "conditions": [12, 800, "v", 24000], "internal_node_id": "0.0-172.0", "trial": 6, "time_elapsed": 1079101, "serialpos": 10, "key_press": -1, "wordID": 1074, "type": "PRES_VIS", "trial_index": 235}, "uniqueid": "MTK1876:3Y54SXRO1MSLCZUJ571Y5DAHJRXUT9", "dateTime": 1516487849395}, {"current_trial": 236, "trialdata": {"rt": -1, "trial_type": "single-stim", "word": "receipt", "stimulus": "<p id=\"stim\">RECEIPT</p>", "conditions": [12, 800, "v", 24000], "internal_node_id": "0.0-173.0", "trial": 6, "time_elapsed": 1080957, "serialpos": 11, "key_press": -1, "wordID": 1172, "type": "PRES_VIS", "trial_index": 236}, "uniqueid": "MTK1876:3Y54SXRO1MSLCZUJ571Y5DAHJRXUT9", "dateTime": 1516487851251}, {"current_trial": 237, "trialdata": {"rt": -1, "trial_type": "single-stim", "stimulus": "", "internal_node_id": "0.0-174.0-0.0", "time_elapsed": 1083424, "key_press": -1, "type": "PRE_RECALL_DELAY", "trial_index": 237}, "uniqueid": "MTK1876:3Y54SXRO1MSLCZUJ571Y5DAHJRXUT9", "dateTime": 1516487853718}, {"current_trial": 238, "trialdata": {"rt": -1000, "trial_type": "single-audio", "stimulus": "/static/audio/400Hz.wav", "internal_node_id": "0.0-175.0", "time_elapsed": 1083932, "key_press": -1, "type": "PRE_RECALL_ALERT", "trial_index": 238}, "uniqueid": "MTK1876:3Y54SXRO1MSLCZUJ571Y5DAHJRXUT9", "dateTime": 1516487854225}, {"current_trial": 239, "trialdata": {"rt": [2204, 3979, 6403, 16067], "recwords": ["woman", "breast", "pistol", "gift"], "key_times": [1403, 1555, 1731, 1892, 2020, 2204, 2835, 2979, 3099, 3275, 3507, 3747, 3979, 5011, 5211, 5579, 5763, 5962, 6171, 6403, 14516, 14699, 14915, 15194, 16067], "trial_type": "free-recall", "conditions": [12, 800, "v", 24000], "internal_node_id": "0.0-176.0-0.0", "key_presses": [87, 79, 77, 65, 78, 13, 66, 82, 69, 65, 83, 84, 13, 80, 73, 83, 84, 79, 76, 13, 71, 73, 70, 84, 13], "trial": 6, "time_elapsed": 1143940, "type": "FREE_RECALL", "trial_index": 239}, "uniqueid": "MTK1876:3Y54SXRO1MSLCZUJ571Y5DAHJRXUT9", "dateTime": 1516487914241}, {"current_trial": 240, "trialdata": {"rt": 3613, "trial_type": "text", "internal_node_id": "0.0-177.0", "time_elapsed": 1149563, "key_press": 32, "type": "INSTRUCTIONS", "trial_index": 240}, "uniqueid": "MTK1876:3Y54SXRO1MSLCZUJ571Y5DAHJRXUT9", "dateTime": 1516487919857}, {"current_trial": 241, "trialdata": {"rt": [3436, 8287], "trial_type": "math-distractor", "key_times": [2628, 2852, 3436, 7356, 7556, 8287], "responses": ["12", "17"], "num2": [3, 6, 9], "num3": [2, 3, 3], "conditions": [24, 800, "v", 12000], "internal_node_id": "0.0-178.0", "key_presses": [49, 50, 13, 49, 55, 13], "trial": 7, "time_elapsed": 1163570, "type": "DISTRACTOR", "trial_index": 241, "num1": [7, 8, 6]}, "uniqueid": "MTK1876:3Y54SXRO1MSLCZUJ571Y5DAHJRXUT9", "dateTime": 1516487933864}, {"current_trial": 242, "trialdata": {"rt": -1, "trial_type": "single-stim", "stimulus": "<p id=\"stim\">10</p>", "internal_node_id": "0.0-179.0-0.0", "time_elapsed": 1166573, "key_press": -1, "trial_index": 242}, "uniqueid": "MTK1876:3Y54SXRO1MSLCZUJ571Y5DAHJRXUT9", "dateTime": 1516487936867}, {"current_trial": 243, "trialdata": {"rt": -1, "trial_type": "single-stim", "stimulus": "<p id=\"stim\">9</p>", "internal_node_id": "0.0-179.0-1.0", "time_elapsed": 1167575, "key_press": -1, "trial_index": 243}, "uniqueid": "MTK1876:3Y54SXRO1MSLCZUJ571Y5DAHJRXUT9", "dateTime": 1516487937868}, {"current_trial": 244, "trialdata": {"rt": -1, "trial_type": "single-stim", "stimulus": "<p id=\"stim\">8</p>", "internal_node_id": "0.0-179.0-2.0", "time_elapsed": 1168577, "key_press": -1, "trial_index": 244}, "uniqueid": "MTK1876:3Y54SXRO1MSLCZUJ571Y5DAHJRXUT9", "dateTime": 1516487938870}, {"current_trial": 245, "trialdata": {"rt": -1, "trial_type": "single-stim", "stimulus": "<p id=\"stim\">7</p>", "internal_node_id": "0.0-179.0-3.0", "time_elapsed": 1169580, "key_press": -1, "trial_index": 245}, "uniqueid": "MTK1876:3Y54SXRO1MSLCZUJ571Y5DAHJRXUT9", "dateTime": 1516487939873}, {"current_trial": 246, "trialdata": {"rt": -1, "trial_type": "single-stim", "stimulus": "<p id=\"stim\">6</p>", "internal_node_id": "0.0-179.0-4.0", "time_elapsed": 1170582, "key_press": -1, "trial_index": 246}, "uniqueid": "MTK1876:3Y54SXRO1MSLCZUJ571Y5DAHJRXUT9", "dateTime": 1516487940875}, {"current_trial": 247, "trialdata": {"rt": -1, "trial_type": "single-stim", "stimulus": "<p id=\"stim\">5</p>", "internal_node_id": "0.0-179.0-5.0", "time_elapsed": 1171585, "key_press": -1, "trial_index": 247}, "uniqueid": "MTK1876:3Y54SXRO1MSLCZUJ571Y5DAHJRXUT9", "dateTime": 1516487941878}, {"current_trial": 248, "trialdata": {"rt": -1, "trial_type": "single-stim", "stimulus": "<p id=\"stim\">4</p>", "internal_node_id": "0.0-179.0-6.0", "time_elapsed": 1172588, "key_press": -1, "trial_index": 248}, "uniqueid": "MTK1876:3Y54SXRO1MSLCZUJ571Y5DAHJRXUT9", "dateTime": 1516487942881}, {"current_trial": 249, "trialdata": {"rt": -1, "trial_type": "single-stim", "stimulus": "<p id=\"stim\">3</p>", "internal_node_id": "0.0-179.0-7.0", "time_elapsed": 1173590, "key_press": -1, "trial_index": 249}, "uniqueid": "MTK1876:3Y54SXRO1MSLCZUJ571Y5DAHJRXUT9", "dateTime": 1516487943883}, {"current_trial": 250, "trialdata": {"rt": -1, "trial_type": "single-stim", "stimulus": "<p id=\"stim\">2</p>", "internal_node_id": "0.0-179.0-8.0", "time_elapsed": 1174592, "key_press": -1, "trial_index": 250}, "uniqueid": "MTK1876:3Y54SXRO1MSLCZUJ571Y5DAHJRXUT9", "dateTime": 1516487944885}, {"current_trial": 251, "trialdata": {"rt": -1, "trial_type": "single-stim", "stimulus": "<p id=\"stim\">1</p>", "internal_node_id": "0.0-179.0-9.0", "time_elapsed": 1175593, "key_press": -1, "trial_index": 251}, "uniqueid": "MTK1876:3Y54SXRO1MSLCZUJ571Y5DAHJRXUT9", "dateTime": 1516487945886}, {"current_trial": 252, "trialdata": {"rt": -1, "trial_type": "single-stim", "stimulus": "<p id=\"stim\">+</p>", "internal_node_id": "0.0-180.0-0.0", "time_elapsed": 1177098, "key_press": -1, "type": "FIXATION", "trial_index": 252}, "uniqueid": "MTK1876:3Y54SXRO1MSLCZUJ571Y5DAHJRXUT9", "dateTime": 1516487947391}, {"current_trial": 253, "trialdata": {"rt": -1, "trial_type": "single-stim", "word": "compass", "stimulus": "<p id=\"stim\">COMPASS</p>", "conditions": [24, 800, "v", 12000], "internal_node_id": "0.0-181.0", "trial": 7, "time_elapsed": 1177900, "serialpos": 0, "key_press": -1, "wordID": 357, "type": "PRES_VIS", "trial_index": 253}, "uniqueid": "MTK1876:3Y54SXRO1MSLCZUJ571Y5DAHJRXUT9", "dateTime": 1516487948194}, {"current_trial": 254, "trialdata": {"rt": -1, "trial_type": "single-stim", "word": "igloo", "stimulus": "<p id=\"stim\">IGLOO</p>", "conditions": [24, 800, "v", 12000], "internal_node_id": "0.0-182.0", "trial": 7, "time_elapsed": 1179703, "serialpos": 1, "key_press": -1, "wordID": 733, "type": "PRES_VIS", "trial_index": 254}, "uniqueid": "MTK1876:3Y54SXRO1MSLCZUJ571Y5DAHJRXUT9", "dateTime": 1516487949996}, {"current_trial": 255, "trialdata": {"rt": -1, "trial_type": "single-stim", "word": "fungus", "stimulus": "<p id=\"stim\">FUNGUS</p>", "conditions": [24, 800, "v", 12000], "internal_node_id": "0.0-183.0", "trial": 7, "time_elapsed": 1181371, "serialpos": 2, "key_press": -1, "wordID": 613, "type": "PRES_VIS", "trial_index": 255}, "uniqueid": "MTK1876:3Y54SXRO1MSLCZUJ571Y5DAHJRXUT9", "dateTime": 1516487951664}, {"current_trial": 256, "trialdata": {"rt": -1, "trial_type": "single-stim", "word": "playground", "stimulus": "<p id=\"stim\">PLAYGROUND</p>", "conditions": [24, 800, "v", 12000], "internal_node_id": "0.0-184.0", "trial": 7, "time_elapsed": 1183059, "serialpos": 3, "key_press": -1, "wordID": 1086, "type": "PRES_VIS", "trial_index": 256}, "uniqueid": "MTK1876:3Y54SXRO1MSLCZUJ571Y5DAHJRXUT9", "dateTime": 1516487953353}, {"current_trial": 257, "trialdata": {"rt": -1, "trial_type": "single-stim", "word": "radish", "stimulus": "<p id=\"stim\">RADISH</p>", "conditions": [24, 800, "v", 12000], "internal_node_id": "0.0-185.0", "trial": 7, "time_elapsed": 1184736, "serialpos": 4, "key_press": -1, "wordID": 1157, "type": "PRES_VIS", "trial_index": 257}, "uniqueid": "MTK1876:3Y54SXRO1MSLCZUJ571Y5DAHJRXUT9", "dateTime": 1516487955030}, {"current_trial": 258, "trialdata": {"rt": -1, "trial_type": "single-stim", "word": "blockade", "stimulus": "<p id=\"stim\">BLOCKADE</p>", "conditions": [24, 800, "v", 12000], "internal_node_id": "0.0-186.0", "trial": 7, "time_elapsed": 1186356, "serialpos": 5, "key_press": -1, "wordID": 136, "type": "PRES_VIS", "trial_index": 258}, "uniqueid": "MTK1876:3Y54SXRO1MSLCZUJ571Y5DAHJRXUT9", "dateTime": 1516487956650}, {"current_trial": 259, "trialdata": {"rt": -1,