{"condition": 0, "counterbalance": 2612, "assignmentId": "3QY7M81QH8TKB5S0YQUVUU91OCJ7K2", "workerId": "MTK1164", "hitId": "3UL5XDRDNCQJ6GEMB6DTHLQUNSM85F", "currenttrial": 626, "bonus": 0, "data": [{"uniqueid": "MTK1164:3QY7M81QH8TKB5S0YQUVUU91OCJ7K2", "current_trial": 0, "dateTime": 1513264357201, "trialdata": {"rt": 170, "key_press": 121, "type": "INSTRUCTIONS", "trial_type": "text", "trial_index": 0, "time_elapsed": 176, "internal_node_id": "0.0-0.0"}}, {"uniqueid": "MTK1164:3QY7M81QH8TKB5S0YQUVUU91OCJ7K2", "current_trial": 1, "dateTime": 1513264372703, "trialdata": {"rt": 15497, "key_press": 175, "type": "INSTRUCTIONS", "trial_type": "text", "trial_index": 1, "time_elapsed": 15678, "internal_node_id": "0.0-1.0"}}, {"uniqueid": "MTK1164:3QY7M81QH8TKB5S0YQUVUU91OCJ7K2", "current_trial": 2, "dateTime": 1513264385185, "trialdata": {"rt": [12433], "responses": ["ocean"], "type": "AUDIO_TEST", "trial_type": "audio-test", "trial_index": 2, "time_elapsed": 28160, "internal_node_id": "0.0-2.0"}}, {"uniqueid": "MTK1164:3QY7M81QH8TKB5S0YQUVUU91OCJ7K2", "current_trial": 3, "dateTime": 1513264397230, "trialdata": {"rt": [12031], "responses": ["crystal"], "type": "AUDIO_TEST", "trial_type": "audio-test", "trial_index": 3, "time_elapsed": 40206, "internal_node_id": "0.0-3.0"}}, {"uniqueid": "MTK1164:3QY7M81QH8TKB5S0YQUVUU91OCJ7K2", "current_trial": 4, "dateTime": 1513264404745, "trialdata": {"rt": [7503], "responses": ["spice"], "type": "AUDIO_TEST", "trial_type": "audio-test", "trial_index": 4, "time_elapsed": 47721, "internal_node_id": "0.0-4.0"}}, {"uniqueid": "MTK1164:3QY7M81QH8TKB5S0YQUVUU91OCJ7K2", "current_trial": 5, "dateTime": 1513264426854, "trialdata": {"rt": 21349, "responses": "{\"Q0\":\"10:30\",\"Q1\":\"6:30\",\"Q2\":\"5\"}", "type": "SLEEP_SURVEY", "trial_type": "survey-text", "trial_index": 5, "time_elapsed": 69830, "internal_node_id": "0.0-5.0"}}, {"uniqueid": "MTK1164:3QY7M81QH8TKB5S0YQUVUU91OCJ7K2", "current_trial": 6, "dateTime": 1513264646950, "trialdata": {"rt": 219093, "key_press": 32, "type": "INSTRUCTIONS", "trial_type": "text", "trial_index": 6, "time_elapsed": 289926, "internal_node_id": "0.0-6.0"}}, {"uniqueid": "MTK1164:3QY7M81QH8TKB5S0YQUVUU91OCJ7K2", "current_trial": 7, "dateTime": 1513264667988, "trialdata": {"rt": 20532, "key_press": 32, "type": "INSTRUCTIONS", "trial_type": "text", "trial_index": 7, "time_elapsed": 310964, "internal_node_id": "0.0-7.0"}}, {"uniqueid": "MTK1164:3QY7M81QH8TKB5S0YQUVUU91OCJ7K2", "current_trial": 8, "dateTime": 1513264672810, "trialdata": {"rt": 4317, "key_press": 32, "type": "INSTRUCTIONS", "trial_type": "text", "trial_index": 8, "time_elapsed": 315786, "internal_node_id": "0.0-8.0"}}, {"uniqueid": "MTK1164:3QY7M81QH8TKB5S0YQUVUU91OCJ7K2", "current_trial": 9, "dateTime": 1513264691856, "trialdata": {"rt": [4918, 8352, 11874], "responses": ["12", "8", "17"], "num1": [2, 3, 4, 7], "num2": [3, 2, 8, 6], "num3": [7, 3, 5, 9], "type": "DISTRACTOR", "conditions": [18, 1200, "v", 18000], "trial": 0, "trial_type": "math-distractor", "trial_index": 9, "time_elapsed": 334831, "internal_node_id": "0.0-9.0"}}, {"uniqueid": "MTK1164:3QY7M81QH8TKB5S0YQUVUU91OCJ7K2", "current_trial": 10, "dateTime": 1513264694869, "trialdata": {"rt": -1, "stimulus": "<p id=\"stim\">10</p>", "key_press": -1, "trial_type": "single-stim", "trial_index": 10, "time_elapsed": 337844, "internal_node_id": "0.0-10.0-0.0"}}, {"uniqueid": "MTK1164:3QY7M81QH8TKB5S0YQUVUU91OCJ7K2", "current_trial": 11, "dateTime": 1513264695877, "trialdata": {"rt": -1, "stimulus": "<p id=\"stim\">9</p>", "key_press": -1, "trial_type": "single-stim", "trial_index": 11, "time_elapsed": 338852, "internal_node_id": "0.0-10.0-1.0"}}, {"uniqueid": "MTK1164:3QY7M81QH8TKB5S0YQUVUU91OCJ7K2", "current_trial": 12, "dateTime": 1513264696884, "trialdata": {"rt": -1, "stimulus": "<p id=\"stim\">8</p>", "key_press": -1, "trial_type": "single-stim", "trial_index": 12, "time_elapsed": 339858, "internal_node_id": "0.0-10.0-2.0"}}, {"uniqueid": "MTK1164:3QY7M81QH8TKB5S0YQUVUU91OCJ7K2", "current_trial": 13, "dateTime": 1513264697889, "trialdata": {"rt": -1, "stimulus": "<p id=\"stim\">7</p>", "key_press": -1, "trial_type": "single-stim", "trial_index": 13, "time_elapsed": 340865, "internal_node_id": "0.0-10.0-3.0"}}, {"uniqueid": "MTK1164:3QY7M81QH8TKB5S0YQUVUU91OCJ7K2", "current_trial": 14, "dateTime": 1513264698894, "trialdata": {"rt": -1, "stimulus": "<p id=\"stim\">6</p>", "key_press": -1, "trial_type": "single-stim", "trial_index": 14, "time_elapsed": 341870, "internal_node_id": "0.0-10.0-4.0"}}, {"uniqueid": "MTK1164:3QY7M81QH8TKB5S0YQUVUU91OCJ7K2", "current_trial": 15, "dateTime": 1513264699900, "trialdata": {"rt": -1, "stimulus": "<p id=\"stim\">5</p>", "key_press": -1, "trial_type": "single-stim", "trial_index": 15, "time_elapsed": 342876, "internal_node_id": "0.0-10.0-5.0"}}, {"uniqueid": "MTK1164:3QY7M81QH8TKB5S0YQUVUU91OCJ7K2", "current_trial": 16, "dateTime": 1513264700908, "trialdata": {"rt": -1, "stimulus": "<p id=\"stim\">4</p>", "key_press": -1, "trial_type": "single-stim", "trial_index": 16, "time_elapsed": 343884, "internal_node_id": "0.0-10.0-6.0"}}, {"uniqueid": "MTK1164:3QY7M81QH8TKB5S0YQUVUU91OCJ7K2", "current_trial": 17, "dateTime": 1513264701920, "trialdata": {"rt": -1, "stimulus": "<p id=\"stim\">3</p>", "key_press": -1, "trial_type": "single-stim", "trial_index": 17, "time_elapsed": 344896, "internal_node_id": "0.0-10.0-7.0"}}, {"uniqueid": "MTK1164:3QY7M81QH8TKB5S0YQUVUU91OCJ7K2", "current_trial": 18, "dateTime": 1513264702928, "trialdata": {"rt": -1, "stimulus": "<p id=\"stim\">2</p>", "key_press": -1, "trial_type": "single-stim", "trial_index": 18, "time_elapsed": 345903, "internal_node_id": "0.0-10.0-8.0"}}, {"uniqueid": "MTK1164:3QY7M81QH8TKB5S0YQUVUU91OCJ7K2", "current_trial": 19, "dateTime": 1513264703933, "trialdata": {"rt": -1, "stimulus": "<p id=\"stim\">1</p>", "key_press": -1, "trial_type": "single-stim", "trial_index": 19, "time_elapsed": 346908, "internal_node_id": "0.0-10.0-9.0"}}, {"uniqueid": "MTK1164:3QY7M81QH8TKB5S0YQUVUU91OCJ7K2", "current_trial": 20, "dateTime": 1513264705448, "trialdata": {"rt": -1, "stimulus": "<p id=\"stim\">+</p>", "key_press": -1, "type": "FIXATION", "trial_type": "single-stim", "trial_index": 20, "time_elapsed": 348423, "internal_node_id": "0.0-11.0-0.0"}}, {"uniqueid": "MTK1164:3QY7M81QH8TKB5S0YQUVUU91OCJ7K2", "current_trial": 21, "dateTime": 1513264706654, "trialdata": {"rt": -1, "stimulus": "<p id=\"stim\">PASTRY</p>", "key_press": -1, "type": "PRES_VIS", "word": "pastry", "wordID": 1021, "conditions": [18, 1200, "v", 18000], "trial": 0, "serialpos": 0, "trial_type": "single-stim", "trial_index": 21, "time_elapsed": 349629, "internal_node_id": "0.0-12.0"}}, {"uniqueid": "MTK1164:3QY7M81QH8TKB5S0YQUVUU91OCJ7K2", "current_trial": 22, "dateTime": 1513264708959, "trialdata": {"rt": -1, "stimulus": "<p id=\"stim\">DINER</p>", "key_press": -1, "type": "PRES_VIS", "word": "diner", "wordID": 466, "conditions": [18, 1200, "v", 18000], "trial": 0, "serialpos": 1, "trial_type": "single-stim", "trial_index": 22, "time_elapsed": 351935, "internal_node_id": "0.0-13.0"}}, {"uniqueid": "MTK1164:3QY7M81QH8TKB5S0YQUVUU91OCJ7K2", "current_trial": 23, "dateTime": 1513264711171, "trialdata": {"rt": -1, "stimulus": "<p id=\"stim\">PREACHER</p>", "key_press": -1, "type": "PRES_VIS", "word": "preacher", "wordID": 1118, "conditions": [18, 1200, "v", 18000], "trial": 0, "serialpos": 2, "trial_type": "single-stim", "trial_index": 23, "time_elapsed": 354147, "internal_node_id": "0.0-14.0"}}, {"uniqueid": "MTK1164:3QY7M81QH8TKB5S0YQUVUU91OCJ7K2", "current_trial": 24, "dateTime": 1513264713549, "trialdata": {"rt": -1, "stimulus": "<p id=\"stim\">CONTRACT</p>", "key_press": -1, "type": "PRES_VIS", "word": "contract", "wordID": 367, "conditions": [18, 1200, "v", 18000], "trial": 0, "serialpos": 3, "trial_type": "single-stim", "trial_index": 24, "time_elapsed": 356525, "internal_node_id": "0.0-15.0"}}, {"uniqueid": "MTK1164:3QY7M81QH8TKB5S0YQUVUU91OCJ7K2", "current_trial": 25, "dateTime": 1513264715573, "trialdata": {"rt": -1, "stimulus": "<p id=\"stim\">FLESH</p>", "key_press": -1, "type": "PRES_VIS", "word": "flesh", "wordID": 578, "conditions": [18, 1200, "v", 18000], "trial": 0, "serialpos": 4, "trial_type": "single-stim", "trial_index": 25, "time_elapsed": 358549, "internal_node_id": "0.0-16.0"}}, {"uniqueid": "MTK1164:3QY7M81QH8TKB5S0YQUVUU91OCJ7K2", "current_trial": 26, "dateTime": 1513264717652, "trialdata": {"rt": -1, "stimulus": "<p id=\"stim\">ONION</p>", "key_press": -1, "type": "PRES_VIS", "word": "onion", "wordID": 976, "conditions": [18, 1200, "v", 18000], "trial": 0, "serialpos": 5, "trial_type": "single-stim", "trial_index": 26, "time_elapsed": 360628, "internal_node_id": "0.0-17.0"}}, {"uniqueid": "MTK1164:3QY7M81QH8TKB5S0YQUVUU91OCJ7K2", "current_trial": 27, "dateTime": 1513264719950, "trialdata": {"rt": -1, "stimulus": "<p id=\"stim\">LADY</p>", "key_press": -1, "type": "PRES_VIS", "word": "lady", "wordID": 793, "conditions": [18, 1200, "v", 18000], "trial": 0, "serialpos": 6, "trial_type": "single-stim", "trial_index": 27, "time_elapsed": 362926, "internal_node_id": "0.0-18.0"}}, {"uniqueid": "MTK1164:3QY7M81QH8TKB5S0YQUVUU91OCJ7K2", "current_trial": 28, "dateTime": 1513264722084, "trialdata": {"rt": -1, "stimulus": "<p id=\"stim\">LEOPARD</p>", "key_press": -1, "type": "PRES_VIS", "word": "leopard", "wordID": 811, "conditions": [18, 1200, "v", 18000], "trial": 0, "serialpos": 7, "trial_type": "single-stim", "trial_index": 28, "time_elapsed": 365059, "internal_node_id": "0.0-19.0"}}, {"uniqueid": "MTK1164:3QY7M81QH8TKB5S0YQUVUU91OCJ7K2", "current_trial": 29, "dateTime": 1513264724264, "trialdata": {"rt": -1, "stimulus": "<p id=\"stim\">SALT</p>", "key_press": -1, "type": "PRES_VIS", "word": "salt", "wordID": 1228, "conditions": [18, 1200, "v", 18000], "trial": 0, "serialpos": 8, "trial_type": "single-stim", "trial_index": 29, "time_elapsed": 367240, "internal_node_id": "0.0-20.0"}}, {"uniqueid": "MTK1164:3QY7M81QH8TKB5S0YQUVUU91OCJ7K2", "current_trial": 30, "dateTime": 1513264726292, "trialdata": {"rt": -1, "stimulus": "<p id=\"stim\">LION</p>", "key_press": -1, "type": "PRES_VIS", "word": "lion", "wordID": 826, "conditions": [18, 1200, "v", 18000], "trial": 0, "serialpos": 9, "trial_type": "single-stim", "trial_index": 30, "time_elapsed": 369268, "internal_node_id": "0.0-21.0"}}, {"uniqueid": "MTK1164:3QY7M81QH8TKB5S0YQUVUU91OCJ7K2", "current_trial": 31, "dateTime": 1513264728475, "trialdata": {"rt": -1, "stimulus": "<p id=\"stim\">LASER</p>", "key_press": -1, "type": "PRES_VIS", "word": "laser", "wordID": 800, "conditions": [18, 1200, "v", 18000], "trial": 0, "serialpos": 10, "trial_type": "single-stim", "trial_index": 31, "time_elapsed": 371450, "internal_node_id": "0.0-22.0"}}, {"uniqueid": "MTK1164:3QY7M81QH8TKB5S0YQUVUU91OCJ7K2", "current_trial": 32, "dateTime": 1513264730492, "trialdata": {"rt": -1, "stimulus": "<p id=\"stim\">TRACTOR</p>", "key_press": -1, "type": "PRES_VIS", "word": "tractor", "wordID": 1492, "conditions": [18, 1200, "v", 18000], "trial": 0, "serialpos": 11, "trial_type": "single-stim", "trial_index": 32, "time_elapsed": 373468, "internal_node_id": "0.0-23.0"}}, {"uniqueid": "MTK1164:3QY7M81QH8TKB5S0YQUVUU91OCJ7K2", "current_trial": 33, "dateTime": 1513264732638, "trialdata": {"rt": -1, "stimulus": "<p id=\"stim\">UMPIRE</p>", "key_press": -1, "type": "PRES_VIS", "word": "umpire", "wordID": 1534, "conditions": [18, 1200, "v", 18000], "trial": 0, "serialpos": 12, "trial_type": "single-stim", "trial_index": 33, "time_elapsed": 375614, "internal_node_id": "0.0-24.0"}}, {"uniqueid": "MTK1164:3QY7M81QH8TKB5S0YQUVUU91OCJ7K2", "current_trial": 34, "dateTime": 1513264734720, "trialdata": {"rt": -1, "stimulus": "<p id=\"stim\">CHAUFFEUR</p>", "key_press": -1, "type": "PRES_VIS", "word": "chauffeur", "wordID": 282, "conditions": [18, 1200, "v", 18000], "trial": 0, "serialpos": 13, "trial_type": "single-stim", "trial_index": 34, "time_elapsed": 377695, "internal_node_id": "0.0-25.0"}}, {"uniqueid": "MTK1164:3QY7M81QH8TKB5S0YQUVUU91OCJ7K2", "current_trial": 35, "dateTime": 1513264736744, "trialdata": {"rt": -1, "stimulus": "<p id=\"stim\">FRUIT</p>", "key_press": -1, "type": "PRES_VIS", "word": "fruit", "wordID": 609, "conditions": [18, 1200, "v", 18000], "trial": 0, "serialpos": 14, "trial_type": "single-stim", "trial_index": 35, "time_elapsed": 379718, "internal_node_id": "0.0-26.0"}}, {"uniqueid": "MTK1164:3QY7M81QH8TKB5S0YQUVUU91OCJ7K2", "current_trial": 36, "dateTime": 1513264738980, "trialdata": {"rt": -1, "stimulus": "<p id=\"stim\">MISTER</p>", "key_press": -1, "type": "PRES_VIS", "word": "mister", "wordID": 900, "conditions": [18, 1200, "v", 18000], "trial": 0, "serialpos": 15, "trial_type": "single-stim", "trial_index": 36, "time_elapsed": 381955, "internal_node_id": "0.0-27.0"}}, {"uniqueid": "MTK1164:3QY7M81QH8TKB5S0YQUVUU91OCJ7K2", "current_trial": 37, "dateTime": 1513264741316, "trialdata": {"rt": -1, "stimulus": "<p id=\"stim\">LABEL</p>", "key_press": -1, "type": "PRES_VIS", "word": "label", "wordID": 789, "conditions": [18, 1200, "v", 18000], "trial": 0, "serialpos": 16, "trial_type": "single-stim", "trial_index": 37, "time_elapsed": 384292, "internal_node_id": "0.0-28.0"}}, {"uniqueid": "MTK1164:3QY7M81QH8TKB5S0YQUVUU91OCJ7K2", "current_trial": 38, "dateTime": 1513264743717, "trialdata": {"rt": -1, "stimulus": "<p id=\"stim\">UNCLE</p>", "key_press": -1, "type": "PRES_VIS", "word": "uncle", "wordID": 1535, "conditions": [18, 1200, "v", 18000], "trial": 0, "serialpos": 17, "trial_type": "single-stim", "trial_index": 38, "time_elapsed": 386693, "internal_node_id": "0.0-29.0"}}, {"uniqueid": "MTK1164:3QY7M81QH8TKB5S0YQUVUU91OCJ7K2", "current_trial": 39, "dateTime": 1513264746142, "trialdata": {"rt": -1, "stimulus": "", "key_press": -1, "type": "PRE_RECALL_DELAY", "trial_type": "single-stim", "trial_index": 39, "time_elapsed": 389118, "internal_node_id": "0.0-30.0-0.0"}}, {"uniqueid": "MTK1164:3QY7M81QH8TKB5S0YQUVUU91OCJ7K2", "current_trial": 40, "dateTime": 1513264746669, "trialdata": {"rt": -1000, "stimulus": "/static/audio/400Hz.wav", "key_press": -1, "type": "PRE_RECALL_ALERT", "trial_type": "single-audio", "trial_index": 40, "time_elapsed": 389644, "internal_node_id": "0.0-31.0"}}, {"uniqueid": "MTK1164:3QY7M81QH8TKB5S0YQUVUU91OCJ7K2", "current_trial": 41, "dateTime": 1513264806681, "trialdata": {"rt": [4005, 9515, 13441, 28830, 39903, 42436, 46432], "recwords": ["lady", "chef", "onion", "chofir", "label", "oil", "fruit"], "type": "FREE_RECALL", "conditions": [18, 1200, "v", 18000], "trial": 0, "trial_type": "free-recall", "trial_index": 41, "time_elapsed": 449652, "internal_node_id": "0.0-32.0-0.0"}}, {"uniqueid": "MTK1164:3QY7M81QH8TKB5S0YQUVUU91OCJ7K2", "current_trial": 42, "dateTime": 1513264813130, "trialdata": {"rt": 4442, "key_press": 32, "type": "INSTRUCTIONS", "trial_type": "text", "trial_index": 42, "time_elapsed": 456105, "internal_node_id": "0.0-33.0"}}, {"uniqueid": "MTK1164:3QY7M81QH8TKB5S0YQUVUU91OCJ7K2", "current_trial": 43, "dateTime": 1513264833146, "trialdata": {"rt": [2730, 5129, 9680, 12440, 17130], "responses": ["13", "10", "21", "10", "21"], "num1": [3, 2, 8, 4, 7, 4], "num2": [1, 5, 8, 3, 8, 1], "num3": [9, 3, 5, 3, 6, 9], "type": "DISTRACTOR", "conditions": [18, 1200, "a", 18000], "trial": 1, "trial_type": "math-distractor", "trial_index": 43, "time_elapsed": 476121, "internal_node_id": "0.0-34.0"}}, {"uniqueid": "MTK1164:3QY7M81QH8TKB5S0YQUVUU91OCJ7K2", "current_trial": 44, "dateTime": 1513264836155, "trialdata": {"rt": -1, "stimulus": "<p id=\"stim\">10</p>", "key_press": -1, "trial_type": "single-stim", "trial_index": 44, "time_elapsed": 479130, "internal_node_id": "0.0-35.0-0.0"}}, {"uniqueid": "MTK1164:3QY7M81QH8TKB5S0YQUVUU91OCJ7K2", "current_trial": 45, "dateTime": 1513264837163, "trialdata": {"rt": -1, "stimulus": "<p id=\"stim\">9</p>", "key_press": -1, "trial_type": "single-stim", "trial_index": 45, "time_elapsed": 480138, "internal_node_id": "0.0-35.0-1.0"}}, {"uniqueid": "MTK1164:3QY7M81QH8TKB5S0YQUVUU91OCJ7K2", "current_trial": 46, "dateTime": 1513264838175, "trialdata": {"rt": -1, "stimulus": "<p id=\"stim\">8</p>", "key_press": -1, "trial_type": "single-stim", "trial_index": 46, "time_elapsed": 481144, "internal_node_id": "0.0-35.0-2.0"}}, {"uniqueid": "MTK1164:3QY7M81QH8TKB5S0YQUVUU91OCJ7K2", "current_trial": 47, "dateTime": 1513264839183, "trialdata": {"rt": -1, "stimulus": "<p id=\"stim\">7</p>", "key_press": -1, "trial_type": "single-stim", "trial_index": 47, "time_elapsed": 482158, "internal_node_id": "0.0-35.0-3.0"}}, {"uniqueid": "MTK1164:3QY7M81QH8TKB5S0YQUVUU91OCJ7K2", "current_trial": 48, "dateTime": 1513264840188, "trialdata": {"rt": -1, "stimulus": "<p id=\"stim\">6</p>", "key_press": -1, "trial_type": "single-stim", "trial_index": 48, "time_elapsed": 483164, "internal_node_id": "0.0-35.0-4.0"}}, {"uniqueid": "MTK1164:3QY7M81QH8TKB5S0YQUVUU91OCJ7K2", "current_trial": 49, "dateTime": 1513264841196, "trialdata": {"rt": -1, "stimulus": "<p id=\"stim\">5</p>", "key_press": -1, "trial_type": "single-stim", "trial_index": 49, "time_elapsed": 484171, "internal_node_id": "0.0-35.0-5.0"}}, {"uniqueid": "MTK1164:3QY7M81QH8TKB5S0YQUVUU91OCJ7K2", "current_trial": 50, "dateTime": 1513264842203, "trialdata": {"rt": -1, "stimulus": "<p id=\"stim\">4</p>", "key_press": -1, "trial_type": "single-stim", "trial_index": 50, "time_elapsed": 485178, "internal_node_id": "0.0-35.0-6.0"}}, {"uniqueid": "MTK1164:3QY7M81QH8TKB5S0YQUVUU91OCJ7K2", "current_trial": 51, "dateTime": 1513264843210, "trialdata": {"rt": -1, "stimulus": "<p id=\"stim\">3</p>", "key_press": -1, "trial_type": "single-stim", "trial_index": 51, "time_elapsed": 486185, "internal_node_id": "0.0-35.0-7.0"}}, {"uniqueid": "MTK1164:3QY7M81QH8TKB5S0YQUVUU91OCJ7K2", "current_trial": 52, "dateTime": 1513264844215, "trialdata": {"rt": -1, "stimulus": "<p id=\"stim\">2</p>", "key_press": -1, "trial_type": "single-stim", "trial_index": 52, "time_elapsed": 487191, "internal_node_id": "0.0-35.0-8.0"}}, {"uniqueid": "MTK1164:3QY7M81QH8TKB5S0YQUVUU91OCJ7K2", "current_trial": 53, "dateTime": 1513264845219, "trialdata": {"rt": -1, "stimulus": "<p id=\"stim\">1</p>", "key_press": -1, "trial_type": "single-stim", "trial_index": 53, "time_elapsed": 488195, "internal_node_id": "0.0-35.0-9.0"}}, {"uniqueid": "MTK1164:3QY7M81QH8TKB5S0YQUVUU91OCJ7K2", "current_trial": 54, "dateTime": 1513264846723, "trialdata": {"rt": -1, "stimulus": "<p id=\"stim\">+</p>", "key_press": -1, "type": "FIXATION", "trial_type": "single-stim", "trial_index": 54, "time_elapsed": 489699, "internal_node_id": "0.0-36.0-0.0"}}, {"uniqueid": "MTK1164:3QY7M81QH8TKB5S0YQUVUU91OCJ7K2", "current_trial": 55, "dateTime": 1513264849099, "trialdata": {"rt": -1000, "stimulus": "/static/audio/wordpool/CLAMP.wav", "key_press": -1, "type": "PRES_AUD", "word": "clamp", "wordID": 315, "conditions": [18, 1200, "a", 18000], "trial": 1, "serialpos": 0, "trial_type": "single-audio", "trial_index": 55, "time_elapsed": 492075, "internal_node_id": "0.0-37.0"}}, {"uniqueid": "MTK1164:3QY7M81QH8TKB5S0YQUVUU91OCJ7K2", "current_trial": 56, "dateTime": 1513264851484, "trialdata": {"rt": -1000, "stimulus": "/static/audio/wordpool/MILK.wav", "key_press": -1, "type": "PRES_AUD", "word": "milk", "wordID": 894, "conditions": [18, 1200, "a", 18000], "trial": 1, "serialpos": 1, "trial_type": "single-audio", "trial_index": 56, "time_elapsed": 494460, "internal_node_id": "0.0-38.0"}}, {"uniqueid": "MTK1164:3QY7M81QH8TKB5S0YQUVUU91OCJ7K2", "current_trial": 57, "dateTime": 1513264853762, "trialdata": {"rt": -1000, "stimulus": "/static/audio/wordpool/MONSTER.wav", "key_press": -1, "type": "PRES_AUD", "word": "monster", "wordID": 911, "conditions": [18, 1200, "a", 18000], "trial": 1, "serialpos": 2, "trial_type": "single-audio", "trial_index": 57, "time_elapsed": 496737, "internal_node_id": "0.0-39.0"}}, {"uniqueid": "MTK1164:3QY7M81QH8TKB5S0YQUVUU91OCJ7K2", "current_trial": 58, "dateTime": 1513264855883, "trialdata": {"rt": -1000, "stimulus": "/static/audio/wordpool/SUITCASE.wav", "key_press": -1, "type": "PRES_AUD", "word": "suitcase", "wordID": 1402, "conditions": [18, 1200, "a", 18000], "trial": 1, "serialpos": 3, "trial_type": "single-audio", "trial_index": 58, "time_elapsed": 498858, "internal_node_id": "0.0-40.0"}}, {"uniqueid": "MTK1164:3QY7M81QH8TKB5S0YQUVUU91OCJ7K2", "current_trial": 59, "dateTime": 1513264858091, "trialdata": {"rt": -1000, "stimulus": "/static/audio/wordpool/RECORD.wav", "key_press": -1, "type": "PRES_AUD", "word": "record", "wordID": 1175, "conditions": [18, 1200, "a", 18000], "trial": 1, "serialpos": 4, "trial_type": "single-audio", "trial_index": 59, "time_elapsed": 501067, "internal_node_id": "0.0-41.0"}}, {"uniqueid": "MTK1164:3QY7M81QH8TKB5S0YQUVUU91OCJ7K2", "current_trial": 60, "dateTime": 1513264860281, "trialdata": {"rt": -1000, "stimulus": "/static/audio/wordpool/CLOCK.wav", "key_press": -1, "type": "PRES_AUD", "word": "clock", "wordID": 324, "conditions": [18, 1200, "a", 18000], "trial": 1, "serialpos": 5, "trial_type": "single-audio", "trial_index": 60, "time_elapsed": 503257, "internal_node_id": "0.0-42.0"}}, {"uniqueid": "MTK1164:3QY7M81QH8TKB5S0YQUVUU91OCJ7K2", "current_trial": 61, "dateTime": 1513264862430, "trialdata": {"rt": -1000, "stimulus": "/static/audio/wordpool/RECEIPT.wav", "key_press": -1, "type": "PRES_AUD", "word": "receipt", "wordID": 1172, "conditions": [18, 1200, "a", 18000], "trial": 1, "serialpos": 6, "trial_type": "single-audio", "trial_index": 61, "time_elapsed": 505405, "internal_node_id": "0.0-43.0"}}, {"uniqueid": "MTK1164:3QY7M81QH8TKB5S0YQUVUU91OCJ7K2", "current_trial": 62, "dateTime": 1513264864747, "trialdata": {"rt": -1000, "stimulus": "/static/audio/wordpool/SUMMIT.wav", "key_press": -1, "type": "PRES_AUD", "word": "summit", "wordID": 1404, "conditions": [18, 1200, "a", 18000], "trial": 1, "serialpos": 7, "trial_type": "single-audio", "trial_index": 62, "time_elapsed": 507723, "internal_node_id": "0.0-44.0"}}, {"uniqueid": "MTK1164:3QY7M81QH8TKB5S0YQUVUU91OCJ7K2", "current_trial": 63, "dateTime": 1513264867132, "trialdata": {"rt": -1000, "stimulus": "/static/audio/wordpool/LAVA.wav", "key_press": -1, "type": "PRES_AUD", "word": "lava", "wordID": 803, "conditions": [18, 1200, "a", 18000], "trial": 1, "serialpos": 8, "trial_type": "single-audio", "trial_index": 63, "time_elapsed": 510108, "internal_node_id": "0.0-45.0"}}, {"uniqueid": "MTK1164:3QY7M81QH8TKB5S0YQUVUU91OCJ7K2", "current_trial": 64, "dateTime": 1513264869169, "trialdata": {"rt": -1000, "stimulus": "/static/audio/wordpool/FLIPPER.wav", "key_press": -1, "type": "PRES_AUD", "word": "flipper", "wordID": 579, "conditions": [18, 1200, "a", 18000], "trial": 1, "serialpos": 9, "trial_type": "single-audio", "trial_index": 64, "time_elapsed": 512145, "internal_node_id": "0.0-46.0"}}, {"uniqueid": "MTK1164:3QY7M81QH8TKB5S0YQUVUU91OCJ7K2", "current_trial": 65, "dateTime": 1513264871475, "trialdata": {"rt": -1000, "stimulus": "/static/audio/wordpool/DRESSER.wav", "key_press": -1, "type": "PRES_AUD", "word": "dresser", "wordID": 495, "conditions": [18, 1200, "a", 18000], "trial": 1, "serialpos": 10, "trial_type": "single-audio", "trial_index": 65, "time_elapsed": 514451, "internal_node_id": "0.0-47.0"}}, {"uniqueid": "MTK1164:3QY7M81QH8TKB5S0YQUVUU91OCJ7K2", "current_trial": 66, "dateTime": 1513264873846, "trialdata": {"rt": -1000, "stimulus": "/static/audio/wordpool/ATOM.wav", "key_press": -1, "type": "PRES_AUD", "word": "atom", "wordID": 54, "conditions": [18, 1200, "a", 18000], "trial": 1, "serialpos": 11, "trial_type": "single-audio", "trial_index": 66, "time_elapsed": 516821, "internal_node_id": "0.0-48.0"}}, {"uniqueid": "MTK1164:3QY7M81QH8TKB5S0YQUVUU91OCJ7K2", "current_trial": 67, "dateTime": 1513264876078, "trialdata": {"rt": -1000, "stimulus": "/static/audio/wordpool/ORANGE.wav", "key_press": -1, "type": "PRES_AUD", "word": "orange", "wordID": 979, "conditions": [18, 1200, "a", 18000], "trial": 1, "serialpos": 12, "trial_type": "single-audio", "trial_index": 67, "time_elapsed": 519053, "internal_node_id": "0.0-49.0"}}, {"uniqueid": "MTK1164:3QY7M81QH8TKB5S0YQUVUU91OCJ7K2", "current_trial": 68, "dateTime": 1513264878255, "trialdata": {"rt": -1000, "stimulus": "/static/audio/wordpool/LONDON.wav", "key_press": -1, "type": "PRES_AUD", "word": "london", "wordID": 842, "conditions": [18, 1200, "a", 18000], "trial": 1, "serialpos": 13, "trial_type": "single-audio", "trial_index": 68, "time_elapsed": 521228, "internal_node_id": "0.0-50.0"}}, {"uniqueid": "MTK1164:3QY7M81QH8TKB5S0YQUVUU91OCJ7K2", "current_trial": 69, "dateTime": 1513264880555, "trialdata": {"rt": -1000, "stimulus": "/static/audio/wordpool/TRANSPLANT.wav", "key_press": -1, "type": "PRES_AUD", "word": "transplant", "wordID": 1495, "conditions": [18, 1200, "a", 18000], "trial": 1, "serialpos": 14, "trial_type": "single-audio", "trial_index": 69, "time_elapsed": 523531, "internal_node_id": "0.0-51.0"}}, {"uniqueid": "MTK1164:3QY7M81QH8TKB5S0YQUVUU91OCJ7K2", "current_trial": 70, "dateTime": 1513264882648, "trialdata": {"rt": -1000, "stimulus": "/static/audio/wordpool/THREAD.wav", "key_press": -1, "type": "PRES_AUD", "word": "thread", "wordID": 1459, "conditions": [18, 1200, "a", 18000], "trial": 1, "serialpos": 15, "trial_type": "single-audio", "trial_index": 70, "time_elapsed": 525624, "internal_node_id": "0.0-52.0"}}, {"uniqueid": "MTK1164:3QY7M81QH8TKB5S0YQUVUU91OCJ7K2", "current_trial": 71, "dateTime": 1513264884878, "trialdata": {"rt": -1000, "stimulus": "/static/audio/wordpool/MATCH.wav", "key_press": -1, "type": "PRES_AUD", "word": "match", "wordID": 877, "conditions": [18, 1200, "a", 18000], "trial": 1, "serialpos": 16, "trial_type": "single-audio", "trial_index": 71, "time_elapsed": 527854, "internal_node_id": "0.0-53.0"}}, {"uniqueid": "MTK1164:3QY7M81QH8TKB5S0YQUVUU91OCJ7K2", "current_trial": 72, "dateTime": 1513264887245, "trialdata": {"rt": -1000, "stimulus": "/static/audio/wordpool/HAMPER.wav", "key_press": -1, "type": "PRES_AUD", "word": "hamper", "wordID": 681, "conditions": [18, 1200, "a", 18000], "trial": 1, "serialpos": 17, "trial_type": "single-audio", "trial_index": 72, "time_elapsed": 530221, "internal_node_id": "0.0-54.0"}}, {"uniqueid": "MTK1164:3QY7M81QH8TKB5S0YQUVUU91OCJ7K2", "current_trial": 73, "dateTime": 1513264888563, "trialdata": {"rt": -1, "stimulus": "", "key_press": -1, "type": "PRE_RECALL_DELAY", "trial_type": "single-stim", "trial_index": 73, "time_elapsed": 531539, "internal_node_id": "0.0-55.0-0.0"}}, {"uniqueid": "MTK1164:3QY7M81QH8TKB5S0YQUVUU91OCJ7K2", "current_trial": 74, "dateTime": 1513264889074, "trialdata": {"rt": -1000, "stimulus": "/static/audio/400Hz.wav", "key_press": -1, "type": "PRE_RECALL_ALERT", "trial_type": "single-audio", "trial_index": 74, "time_elapsed": 532050, "internal_node_id": "0.0-56.0"}}, {"uniqueid": "MTK1164:3QY7M81QH8TKB5S0YQUVUU91OCJ7K2", "current_trial": 75, "dateTime": 1513264949107, "trialdata": {"rt": [3948, 7252, 14035, 35187], "recwords": ["hamper", "monster", "match", "lamp"], "type": "FREE_RECALL", "conditions": [18, 1200, "a", 18000], "trial": 1, "trial_type": "free-recall", "trial_index": 75, "time_elapsed": 592066, "internal_node_id": "0.0-57.0-0.0"}}, {"uniqueid": "MTK1164:3QY7M81QH8TKB5S0YQUVUU91OCJ7K2", "current_trial": 76, "dateTime": 1513264955554, "trialdata": {"rt": 4435, "key_press": 32, "type": "INSTRUCTIONS", "trial_type": "text", "trial_index": 76, "time_elapsed": 598523, "internal_node_id": "0.0-58.0"}}, {"uniqueid": "MTK1164:3QY7M81QH8TKB5S0YQUVUU91OCJ7K2", "current_trial": 77, "dateTime": 1513264980563, "trialdata": {"rt": [1897, 4730, 6557, 9515, 11422, 12858, 14897, 19552], "responses": ["12", "18", "12", "13", "16", "13", "15", "15"], "num1": [2, 2, 8, 1, 8, 3, 5, 7, 5], "num2": [9, 8, 2, 4, 2, 9, 3, 9, 7], "num3": [1, 8, 2, 8, 6, 1, 7, 6, 9], "type": "DISTRACTOR", "conditions": [24, 1600, "v", 24000], "trial": 2, "trial_type": "math-distractor", "trial_index": 77, "time_elapsed": 623539, "internal_node_id": "0.0-59.0"}}, {"uniqueid": "MTK1164:3QY7M81QH8TKB5S0YQUVUU91OCJ7K2", "current_trial": 78, "dateTime": 1513264983573, "trialdata": {"rt": -1, "stimulus": "<p id=\"stim\">10</p>", "key_press": -1, "trial_type": "single-stim", "trial_index": 78, "time_elapsed": 626549, "internal_node_id": "0.0-60.0-0.0"}}, {"uniqueid": "MTK1164:3QY7M81QH8TKB5S0YQUVUU91OCJ7K2", "current_trial": 79, "dateTime": 1513264984577, "trialdata": {"rt": -1, "stimulus": "<p id=\"stim\">9</p>", "key_press": -1, "trial_type": "single-stim", "trial_index": 79, "time_elapsed": 627553, "internal_node_id": "0.0-60.0-1.0"}}, {"uniqueid": "MTK1164:3QY7M81QH8TKB5S0YQUVUU91OCJ7K2", "current_trial": 80, "dateTime": 1513264985581, "trialdata": {"rt": -1, "stimulus": "<p id=\"stim\">8</p>", "key_press": -1, "trial_type": "single-stim", "trial_index": 80, "time_elapsed": 628557, "internal_node_id": "0.0-60.0-2.0"}}, {"uniqueid": "MTK1164:3QY7M81QH8TKB5S0YQUVUU91OCJ7K2", "current_trial": 81, "dateTime": 1513264986593, "trialdata": {"rt": -1, "stimulus": "<p id=\"stim\">7</p>", "key_press": -1, "trial_type": "single-stim", "trial_index": 81, "time_elapsed": 629569, "internal_node_id": "0.0-60.0-3.0"}}, {"uniqueid": "MTK1164:3QY7M81QH8TKB5S0YQUVUU91OCJ7K2", "current_trial": 82, "dateTime": 1513264987597, "trialdata": {"rt": -1, "stimulus": "<p id=\"stim\">6</p>", "key_press": -1, "trial_type": "single-stim", "trial_index": 82, "time_elapsed": 630573, "internal_node_id": "0.0-60.0-4.0"}}, {"uniqueid": "MTK1164:3QY7M81QH8TKB5S0YQUVUU91OCJ7K2", "current_trial": 83, "dateTime": 1513264988604, "trialdata": {"rt": -1, "stimulus": "<p id=\"stim\">5</p>", "key_press": -1, "trial_type": "single-stim", "trial_index": 83, "time_elapsed": 631580, "internal_node_id": "0.0-60.0-5.0"}}, {"uniqueid": "MTK1164:3QY7M81QH8TKB5S0YQUVUU91OCJ7K2", "current_trial": 84, "dateTime": 1513264989610, "trialdata": {"rt": -1, "stimulus": "<p id=\"stim\">4</p>", "key_press": -1, "trial_type": "single-stim", "trial_index": 84, "time_elapsed": 632586, "internal_node_id": "0.0-60.0-6.0"}}, {"uniqueid": "MTK1164:3QY7M81QH8TKB5S0YQUVUU91OCJ7K2", "current_trial": 85, "dateTime": 1513264990615, "trialdata": {"rt": -1, "stimulus": "<p id=\"stim\">3</p>", "key_press": -1, "trial_type": "single-stim", "trial_index": 85, "time_elapsed": 633591, "internal_node_id": "0.0-60.0-7.0"}}, {"uniqueid": "MTK1164:3QY7M81QH8TKB5S0YQUVUU91OCJ7K2", "current_trial": 86, "dateTime": 1513264991623, "trialdata": {"rt": -1, "stimulus": "<p id=\"stim\">2</p>", "key_press": -1, "trial_type": "single-stim", "trial_index": 86, "time_elapsed": 634599, "internal_node_id": "0.0-60.0-8.0"}}, {"uniqueid": "MTK1164:3QY7M81QH8TKB5S0YQUVUU91OCJ7K2", "current_trial": 87, "dateTime": 1513264992626, "trialdata": {"rt": -1, "stimulus": "<p id=\"stim\">1</p>", "key_press": -1, "trial_type": "single-stim", "trial_index": 87, "time_elapsed": 635602, "internal_node_id": "0.0-60.0-9.0"}}, {"uniqueid": "MTK1164:3QY7M81QH8TKB5S0YQUVUU91OCJ7K2", "current_trial": 88, "dateTime": 1513264994136, "trialdata": {"rt": -1, "stimulus": "<p id=\"stim\">+</p>", "key_press": -1, "type": "FIXATION", "trial_type": "single-stim", "trial_index": 88, "time_elapsed": 637112, "internal_node_id": "0.0-61.0-0.0"}}, {"uniqueid": "MTK1164:3QY7M81QH8TKB5S0YQUVUU91OCJ7K2", "current_trial": 89, "dateTime": 1513264995741, "trialdata": {"rt": -1, "stimulus": "<p id=\"stim\">MISSILE</p>", "key_press": -1, "type": "PRES_VIS", "word": "missile", "wordID": 899, "conditions": [24, 1600, "v", 24000], "trial": 2, "serialpos": 0, "trial_type": "single-stim", "trial_index": 89, "time_elapsed": 638717, "internal_node_id": "0.0-62.0"}}, {"uniqueid": "MTK1164:3QY7M81QH8TKB5S0YQUVUU91OCJ7K2", "current_trial": 90, "dateTime": 1513264998221, "trialdata": {"rt": -1, "stimulus": "<p id=\"stim\">ROCKET</p>", "key_press": -1, "type": "PRES_VIS", "word": "rocket", "wordID": 1201, "conditions": [24, 1600, "v", 24000], "trial": 2, "serialpos": 1, "trial_type": "single-stim", "trial_index": 90, "time_elapsed": 641196, "internal_node_id": "0.0-63.0"}}, {"uniqueid": "MTK1164:3QY7M81QH8TKB5S0YQUVUU91OCJ7K2", "current_trial": 91, "dateTime": 1513265000762, "trialdata": {"rt": -1, "stimulus": "<p id=\"stim\">COSTUME</p>", "key_press": -1, "type": "PRES_VIS", "word": "costume", "wordID": 382, "conditions": [24, 1600, "v", 24000], "trial": 2, "serialpos": 2, "trial_type": "single-stim", "trial_index": 91, "time_elapsed": 643738, "internal_node_id": "0.0-64.0"}}, {"uniqueid": "MTK1164:3QY7M81QH8TKB5S0YQUVUU91OCJ7K2", "current_trial": 92, "dateTime": 1513265003417, "trialdata": {"rt": -1, "stimulus": "<p id=\"stim\">FLOWER</p>", "key_press": -1, "type": "PRES_VIS", "word": "flower", "wordID": 583, "conditions": [24, 1600, "v", 24000], "trial": 2, "serialpos": 3, "trial_type": "single-stim", "trial_index": 92, "time_elapsed": 646392, "internal_node_id": "0.0-65.0"}}, {"uniqueid": "MTK1164:3QY7M81QH8TKB5S0YQUVUU91OCJ7K2", "current_trial": 93, "dateTime": 1513265006159, "trialdata": {"rt": -1, "stimulus": "<p id=\"stim\">SUPPER</p>", "key_press": -1, "type": "PRES_VIS", "word": "supper", "wordID": 1410, "conditions": [24, 1600, "v", 24000], "trial": 2, "serialpos": 4, "trial_type": "single-stim", "trial_index": 93, "time_elapsed": 649135, "internal_node_id": "0.0-66.0"}}, {"uniqueid": "MTK1164:3QY7M81QH8TKB5S0YQUVUU91OCJ7K2", "current_trial": 94, "dateTime": 1513265008925, "trialdata": {"rt": -1, "stimulus": "<p id=\"stim\">PASSAGE</p>", "key_press": -1, "type": "PRES_VIS", "word": "passage", "wordID": 1018, "conditions": [24, 1600, "v", 24000], "trial": 2, "serialpos": 5, "trial_type": "single-stim", "trial_index": 94, "time_elapsed": 651901, "internal_node_id": "0.0-67.0"}}, {"uniqueid": "MTK1164:3QY7M81QH8TKB5S0YQUVUU91OCJ7K2", "current_trial": 95, "dateTime": 1513265011354, "trialdata": {"rt": -1, "stimulus": "<p id=\"stim\">CHAPEL</p>", "key_press": -1, "type": "PRES_VIS", "word": "chapel", "wordID": 279, "conditions": [24, 1600, "v", 24000], "trial": 2, "serialpos": 6, "trial_type": "single-stim", "trial_index": 95, "time_elapsed": 654329, "internal_node_id": "0.0-68.0"}}, {"uniqueid": "MTK1164:3QY7M81QH8TKB5S0YQUVUU91OCJ7K2", "current_trial": 96, "dateTime": 1513265014058, "trialdata": {"rt": -1, "stimulus": "<p id=\"stim\">OYSTER</p>", "key_press": -1, "type": "PRES_VIS", "word": "oyster", "wordID": 994, "conditions": [24, 1600, "v", 24000], "trial": 2, "serialpos": 7, "trial_type": "single-stim", "trial_index": 96, "time_elapsed": 657033, "internal_node_id": "0.0-69.0"}}, {"uniqueid": "MTK1164:3QY7M81QH8TKB5S0YQUVUU91OCJ7K2", "current_trial": 97, "dateTime": 1513265016678, "trialdata": {"rt": -1, "stimulus": "<p id=\"stim\">SANDWICH</p>", "key_press": -1, "type": "PRES_VIS", "word": "sandwich", "wordID": 1231, "conditions": [24, 1600, "v", 24000], "trial": 2, "serialpos": 8, "trial_type": "single-stim", "trial_index": 97, "time_elapsed": 659653, "internal_node_id": "0.0-70.0"}}, {"uniqueid": "MTK1164:3QY7M81QH8TKB5S0YQUVUU91OCJ7K2", "current_trial": 98, "dateTime": 1513265019186, "trialdata": {"rt": -1, "stimulus": "<p id=\"stim\">DAISY</p>", "key_press": -1, "type": "PRES_VIS", "word": "daisy", "wordID": 434, "conditions": [24, 1600, "v", 24000], "trial": 2, "serialpos": 9, "trial_type": "single-stim", "trial_index": 98, "time_elapsed": 662162, "internal_node_id": "0.0-71.0"}}, {"uniqueid": "MTK1164:3QY7M81QH8TKB5S0YQUVUU91OCJ7K2", "current_trial": 99, "dateTime": 1513265021660, "trialdata": {"rt": -1, "stimulus": "<p id=\"stim\">CANAL</p>", "key_press": -1, "type": "PRES_VIS", "word": "canal", "wordID": 225, "conditions": [24, 1600, "v", 24000], "trial": 2, "serialpos": 10, "trial_type": "single-stim", "trial_index": 99, "time_elapsed": 664636, "internal_node_id": "0.0-72.0"}}, {"uniqueid": "MTK1164:3QY7M81QH8TKB5S0YQUVUU91OCJ7K2", "current_trial": 100, "dateTime": 1513265024072, "trialdata": {"rt": -1, "stimulus": "<p id=\"stim\">BANQUET</p>", "key_press": -1, "type": "PRES_VIS", "word": "banquet", "wordID": 85, "conditions": [24, 1600, "v", 24000], "trial": 2, "serialpos": 11, "trial_type": "single-stim", "trial_index": 100, "time_elapsed": 667048, "internal_node_id": "0.0-73.0"}}, {"uniqueid": "MTK1164:3QY7M81QH8TKB5S0YQUVUU91OCJ7K2", "current_trial": 101, "dateTime": 1513265026592, "trialdata": {"rt": -1, "stimulus": "<p id=\"stim\">BANJO</p>", "key_press": -1, "type": "PRES_VIS", "word": "banjo", "wordID": 81, "conditions": [24, 1600, "v", 24000], "trial": 2, "serialpos": 12, "trial_type": "single-stim", "trial_index": 101, "time_elapsed": 669567, "internal_node_id": "0.0-74.0"}}, {"uniqueid": "MTK1164:3QY7M81QH8TKB5S0YQUVUU91OCJ7K2", "current_trial": 102, "dateTime": 1513265029109, "trialdata": {"rt": -1, "stimulus": "<p id=\"stim\">FLASK</p>", "key_press": -1, "type": "PRES_VIS", "word": "flask", "wordID": 575, "conditions": [24, 1600, "v", 24000], "trial": 2, "serialpos": 13, "trial_type": "single-stim", "trial_index": 102, "time_elapsed": 672085, "internal_node_id": "0.0-75.0"}}, {"uniqueid": "MTK1164:3QY7M81QH8TKB5S0YQUVUU91OCJ7K2", "current_trial": 103, "dateTime": 1513265031730, "trialdata": {"rt": -1, "stimulus": "<p id=\"stim\">POET</p>", "key_press": -1, "type": "PRES_VIS", "word": "poet", "wordID": 1094, "conditions": [24, 1600, "v", 24000], "trial": 2, "serialpos": 14, "trial_type": "single-stim", "trial_index": 103, "time_elapsed": 674706, "internal_node_id": "0.0-76.0"}}, {"uniqueid": "MTK1164:3QY7M81QH8TKB5S0YQUVUU91OCJ7K2", "current_trial": 104, "dateTime": 1513265034148, "trialdata": {"rt": -1, "stimulus": "<p id=\"stim\">RAZOR</p>", "key_press": -1, "type": "PRES_VIS", "word": "razor", "wordID": 1170, "conditions": [24, 1600, "v", 24000], "trial": 2, "serialpos": 15, "trial_type": "single-stim", "trial_index": 104, "time_elapsed": 677123, "internal_node_id": "0.0-77.0"}}, {"uniqueid": "MTK1164:3QY7M81QH8TKB5S0YQUVUU91OCJ7K2", "current_trial": 105, "dateTime": 1513265036682, "trialdata": {"rt": -1, "stimulus": "<p id=\"stim\">LIPSTICK</p>", "key_press": -1, "type": "PRES_VIS", "word": "lipstick", "wordID": 828, "conditions": [24, 1600, "v", 24000], "trial": 2, "serialpos": 16, "trial_type": "single-stim", "trial_index": 105, "time_elapsed": 679658, "internal_node_id": "0.0-78.0"}}, {"uniqueid": "MTK1164:3QY7M81QH8TKB5S0YQUVUU91OCJ7K2", "current_trial": 106, "dateTime": 1513265039252, "trialdata": {"rt": -1, "stimulus": "<p id=\"stim\">LOFT</p>", "key_press": -1, "type": "PRES_VIS", "word": "loft", "wordID": 839, "conditions": [24, 1600, "v", 24000], "trial": 2, "serialpos": 17, "trial_type": "single-stim", "trial_index": 106, "time_elapsed": 682228, "internal_node_id": "0.0-79.0"}}, {"uniqueid": "MTK1164:3QY7M81QH8TKB5S0YQUVUU91OCJ7K2", "current_trial": 107, "dateTime": 1513265041925, "trialdata": {"rt": -1, "stimulus": "<p id=\"stim\">CRITIC</p>", "key_press": -1, "type": "PRES_VIS", "word": "critic", "wordID": 409, "conditions": [24, 1600, "v", 24000], "trial": 2, "serialpos": 18, "trial_type": "single-stim", "trial_index": 107, "time_elapsed": 684901, "internal_node_id": "0.0-80.0"}}, {"uniqueid": "MTK1164:3QY7M81QH8TKB5S0YQUVUU91OCJ7K2", "current_trial": 108, "dateTime": 1513265044644, "trialdata": {"rt": -1, "stimulus": "<p id=\"stim\">MATTRESS</p>", "key_press": -1, "type": "PRES_VIS", "word": "mattress", "wordID": 878, "conditions": [24, 1600, "v", 24000], "trial": 2, "serialpos": 19, "trial_type": "single-stim", "trial_index": 108, "time_elapsed": 687619, "internal_node_id": "0.0-81.0"}}, {"uniqueid": "MTK1164:3QY7M81QH8TKB5S0YQUVUU91OCJ7K2", "current_trial": 109, "dateTime": 1513265047419, "trialdata": {"rt": -1, "stimulus": "<p id=\"stim\">COUCH</p>", "key_press": -1, "type": "PRES_VIS", "word": "couch", "wordID": 385, "conditions": [24, 1600, "v", 24000], "trial": 2, "serialpos": 20, "trial_type": "single-stim", "trial_index": 109, "time_elapsed": 690395, "internal_node_id": "0.0-82.0"}}, {"uniqueid": "MTK1164:3QY7M81QH8TKB5S0YQUVUU91OCJ7K2", "current_trial": 110, "dateTime": 1513265050132, "trialdata": {"rt": -1, "stimulus": "<p id=\"stim\">KNIFE</p>", "key_press": -1, "type": "PRES_VIS", "word": "knife", "wordID": 784, "conditions": [24, 1600, "v", 24000], "trial": 2, "serialpos": 21, "trial_type": "single-stim", "trial_index": 110, "time_elapsed": 693108, "internal_node_id": "0.0-83.0"}}, {"uniqueid": "MTK1164:3QY7M81QH8TKB5S0YQUVUU91OCJ7K2", "current_trial": 111, "dateTime": 1513265052731, "trialdata": {"rt": -1, "stimulus": "<p id=\"stim\">CASKET</p>", "key_press": -1, "type": "PRES_VIS", "word": "casket", "wordID": 254, "conditions": [24, 1600, "v", 24000], "trial": 2, "serialpos": 22, "trial_type": "single-stim", "trial_index": 111, "time_elapsed": 695707, "internal_node_id": "0.0-84.0"}}, {"uniqueid": "MTK1164:3QY7M81QH8TKB5S0YQUVUU91OCJ7K2", "current_trial": 112, "dateTime": 1513265055318, "trialdata": {"rt": -1, "stimulus": "<p id=\"stim\">LOVER</p>", "key_press": -1, "type": "PRES_VIS", "word": "lover", "wordID": 845, "conditions": [24, 1600, "v", 24000], "trial": 2, "serialpos": 23, "trial_type": "single-stim", "trial_index": 112, "time_elapsed": 698294, "internal_node_id": "0.0-85.0"}}, {"uniqueid": "MTK1164:3QY7M81QH8TKB5S0YQUVUU91OCJ7K2", "current_trial": 113, "dateTime": 1513265057562, "trialdata": {"rt": -1, "stimulus": "", "key_press": -1, "type": "PRE_RECALL_DELAY", "trial_type": "single-stim", "trial_index": 113, "time_elapsed": 700537, "internal_node_id": "0.0-86.0-0.0"}}, {"uniqueid": "MTK1164:3QY7M81QH8TKB5S0YQUVUU91OCJ7K2", "current_trial": 114, "dateTime": 1513265058068, "trialdata": {"rt": -1000, "stimulus": "/static/audio/400Hz.wav", "key_press": -1, "type": "PRE_RECALL_ALERT", "trial_type": "single-audio", "trial_index": 114, "time_elapsed": 701044, "internal_node_id": "0.0-87.0"}}, {"uniqueid": "MTK1164:3QY7M81QH8TKB5S0YQUVUU91OCJ7K2", "current_trial": 115, "dateTime": 1513265118083, "trialdata": {"rt": [2676, 6887, 11039, 17846, 22450, 26821, 32980, 52143], "recwords": ["lover", "supper", "banjo", "sandwitch", "loft", "lover", "flask", "sofa"], "type": "FREE_RECALL", "conditions": [24, 1600, "v", 24000], "trial": 2, "trial_type": "free-recall", "trial_index": 115, "time_elapsed": 761055, "internal_node_id": "0.0-88.0-0.0"}}, {"uniqueid": "MTK1164:3QY7M81QH8TKB5S0YQUVUU91OCJ7K2", "current_trial": 116, "dateTime": 1513265140204, "trialdata": {"rt": 20114, "key_press": 32, "type": "INSTRUCTIONS", "trial_type": "text", "trial_index": 116, "time_elapsed": 783179, "internal_node_id": "0.0-89.0"}}, {"uniqueid": "MTK1164:3QY7M81QH8TKB5S0YQUVUU91OCJ7K2", "current_trial": 117, "dateTime": 1513265166212, "trialdata": {"rt": [7240, 9750, 11734, 15235, 18907, 21207, 23167], "responses": ["27", "10", "8", "22", "15", "16", "12"], "num1": [9, 5, 1, 7, 3, 8, 5, 9], "num2": [9, 4, 1, 8, 3, 1, 5, 9], "num3": [6, 1, 6, 7, 9, 7, 2, 1], "type": "DISTRACTOR", "conditions": [24, 800, "v", 24000], "trial": 3, "trial_type": "math-distractor", "trial_index": 117, "time_elapsed": 809188, "internal_node_id": "0.0-90.0"}}, {"uniqueid": "MTK1164:3QY7M81QH8TKB5S0YQUVUU91OCJ7K2", "current_trial": 118, "dateTime": 1513265169220, "trialdata": {"rt": -1, "stimulus": "<p id=\"stim\">10</p>", "key_press": -1, "trial_type": "single-stim", "trial_index": 118, "time_elapsed": 812196, "internal_node_id": "0.0-91.0-0.0"}}, {"uniqueid": "MTK1164:3QY7M81QH8TKB5S0YQUVUU91OCJ7K2", "current_trial": 119, "dateTime": 1513265170223, "trialdata": {"rt": -1, "stimulus": "<p id=\"stim\">9</p>", "key_press": -1, "trial_type": "single-stim", "trial_index": 119, "time_elapsed": 813199, "internal_node_id": "0.0-91.0-1.0"}}, {"uniqueid": "MTK1164:3QY7M81QH8TKB5S0YQUVUU91OCJ7K2", "current_trial": 120, "dateTime": 1513265171231, "trialdata": {"rt": -1, "stimulus": "<p id=\"stim\">8</p>", "key_press": -1, "trial_type": "single-stim", "trial_index": 120, "time_elapsed": 814206, "internal_node_id": "0.0-91.0-2.0"}}, {"uniqueid": "MTK1164:3QY7M81QH8TKB5S0YQUVUU91OCJ7K2", "current_trial": 121, "dateTime": 1513265172244, "trialdata": {"rt": -1, "stimulus": "<p id=\"stim\">7</p>", "key_press": -1, "trial_type": "single-stim", "trial_index": 121, "time_elapsed": 815213, "internal_node_id": "0.0-91.0-3.0"}}, {"uniqueid": "MTK1164:3QY7M81QH8TKB5S0YQUVUU91OCJ7K2", "current_trial": 122, "dateTime": 1513265173251, "trialdata": {"rt": -1, "stimulus": "<p id=\"stim\">6</p>", "key_press": -1, "trial_type": "single-stim", "trial_index": 122, "time_elapsed": 816227, "internal_node_id": "0.0-91.0-4.0"}}, {"uniqueid": "MTK1164:3QY7M81QH8TKB5S0YQUVUU91OCJ7K2", "current_trial": 123, "dateTime": 1513265174292, "trialdata": {"rt": -1, "stimulus": "<p id=\"stim\">5</p>", "key_press": -1, "trial_type": "single-stim", "trial_index": 123, "time_elapsed": 817268, "internal_node_id": "0.0-91.0-5.0"}}, {"uniqueid": "MTK1164:3QY7M81QH8TKB5S0YQUVUU91OCJ7K2", "current_trial": 124, "dateTime": 1513265175296, "trialdata": {"rt": -1, "stimulus": "<p id=\"stim\">4</p>", "key_press": -1, "trial_type": "single-stim", "trial_index": 124, "time_elapsed": 818271, "internal_node_id": "0.0-91.0-6.0"}}, {"uniqueid": "MTK1164:3QY7M81QH8TKB5S0YQUVUU91OCJ7K2", "current_trial": 125, "dateTime": 1513265176304, "trialdata": {"rt": -1, "stimulus": "<p id=\"stim\">3</p>", "key_press": -1, "trial_type": "single-stim", "trial_index": 125, "time_elapsed": 819279, "internal_node_id": "0.0-91.0-7.0"}}, {"uniqueid": "MTK1164:3QY7M81QH8TKB5S0YQUVUU91OCJ7K2", "current_trial": 126, "dateTime": 1513265177311, "trialdata": {"rt": -1, "stimulus": "<p id=\"stim\">2</p>", "key_press": -1, "trial_type": "single-stim", "trial_index": 126, "time_elapsed": 820287, "internal_node_id": "0.0-91.0-8.0"}}, {"uniqueid": "MTK1164:3QY7M81QH8TKB5S0YQUVUU91OCJ7K2", "current_trial": 127, "dateTime": 1513265178316, "trialdata": {"rt": -1, "stimulus": "<p id=\"stim\">1</p>", "key_press": -1, "trial_type": "single-stim", "trial_index": 127, "time_elapsed": 821292, "internal_node_id": "0.0-91.0-9.0"}}, {"uniqueid": "MTK1164:3QY7M81QH8TKB5S0YQUVUU91OCJ7K2", "current_trial": 128, "dateTime": 1513265179823, "trialdata": {"rt": -1, "stimulus": "<p id=\"stim\">+</p>", "key_press": -1, "type": "FIXATION", "trial_type": "single-stim", "trial_index": 128, "time_elapsed": 822799, "internal_node_id": "0.0-92.0-0.0"}}, {"uniqueid": "MTK1164:3QY7M81QH8TKB5S0YQUVUU91OCJ7K2", "current_trial": 129, "dateTime": 1513265180629, "trialdata": {"rt": -1, "stimulus": "<p id=\"stim\">DORM</p>", "key_press": -1, "type": "PRES_VIS", "word": "dorm", "wordID": 487, "conditions": [24, 800, "v", 24000], "trial": 3, "serialpos": 0, "trial_type": "single-stim", "trial_index": 129, "time_elapsed": 823605, "internal_node_id": "0.0-93.0"}}, {"uniqueid": "MTK1164:3QY7M81QH8TKB5S0YQUVUU91OCJ7K2", "current_trial": 130, "dateTime": 1513265182544, "trialdata": {"rt": -1, "stimulus": "<p id=\"stim\">MASK</p>", "key_press": -1, "type": "PRES_VIS", "word": "mask", "wordID": 875, "conditions": [24, 800, "v", 24000], "trial": 3, "serialpos": 1, "trial_type": "single-stim", "trial_index": 130, "time_elapsed": 825520, "internal_node_id": "0.0-94.0"}}, {"uniqueid": "MTK1164:3QY7M81QH8TKB5S0YQUVUU91OCJ7K2", "current_trial": 131, "dateTime": 1513265184474, "trialdata": {"rt": -1, "stimulus": "<p id=\"stim\">WRIST</p>", "key_press": -1, "type": "PRES_VIS", "word": "wrist", "wordID": 1625, "conditions": [24, 800, "v", 24000], "trial": 3, "serialpos": 2, "trial_type": "single-stim", "trial_index": 131, "time_elapsed": 827449, "internal_node_id": "0.0-95.0"}}, {"uniqueid": "MTK1164:3QY7M81QH8TKB5S0YQUVUU91OCJ7K2", "current_trial": 132, "dateTime": 1513265186443, "trialdata": {"rt": -1, "stimulus": "<p id=\"stim\">TROMBONE</p>", "key_press": -1, "type": "PRES_VIS", "word": "trombone", "wordID": 1507, "conditions": [24, 800, "v", 24000], "trial": 3, "serialpos": 3, "trial_type": "single-stim", "trial_index": 132, "time_elapsed": 829419, "internal_node_id": "0.0-96.0"}}, {"uniqueid": "MTK1164:3QY7M81QH8TKB5S0YQUVUU91OCJ7K2", "current_trial": 133, "dateTime": 1513265188103, "trialdata": {"rt": -1, "stimulus": "<p id=\"stim\">SLIDE</p>", "key_press": -1, "type": "PRES_VIS", "word": "slide", "wordID": 1325, "conditions": [24, 800, "v", 24000], "trial": 3, "serialpos": 4, "trial_type": "single-stim", "trial_index": 133, "time_elapsed": 831079, "internal_node_id": "0.0-97.0"}}, {"uniqueid": "MTK1164:3QY7M81QH8TKB5S0YQUVUU91OCJ7K2", "current_trial": 134, "dateTime": 1513265190048, "trialdata": {"rt": -1, "stimulus": "<p id=\"stim\">SWITCH</p>", "key_press": -1, "type": "PRES_VIS", "word": "switch", "wordID": 1421, "conditions": [24, 800, "v", 24000], "trial": 3, "serialpos": 5, "trial_type": "single-stim", "trial_index": 134, "time_elapsed": 833024, "internal_node_id": "0.0-98.0"}}, {"uniqueid": "MTK1164:3QY7M81QH8TKB5S0YQUVUU91OCJ7K2", "current_trial": 135, "dateTime": 1513265191979, "trialdata": {"rt": -1, "stimulus": "<p id=\"stim\">QUARTER</p>", "key_press": -1, "type": "PRES_VIS", "word": "quarter", "wordID": 1147, "conditions": [24, 800, "v", 24000], "trial": 3, "serialpos": 6, "trial_type": "single-stim", "trial_index": 135, "time_elapsed": 834954, "internal_node_id": "0.0-99.0"}}, {"uniqueid": "MTK1164:3QY7M81QH8TKB5S0YQUVUU91OCJ7K2", "current_trial": 136, "dateTime": 1513265193975, "trialdata": {"rt": -1, "stimulus": "<p id=\"stim\">TWIG</p>", "key_press": -1, "type": "PRES_VIS", "word": "twig", "wordID": 1526, "conditions": [24, 800, "v", 24000], "trial": 3, "serialpos": 7, "trial_type": "single-stim", "trial_index": 136, "time_elapsed": 836951, "internal_node_id": "0.0-100.0"}}, {"uniqueid": "MTK1164:3QY7M81QH8TKB5S0YQUVUU91OCJ7K2", "current_trial": 137, "dateTime": 1513265195892, "trialdata": {"rt": -1, "stimulus": "<p id=\"stim\">STUDENT</p>", "key_press": -1, "type": "PRES_VIS", "word": "student", "wordID": 1394, "conditions": [24, 800, "v", 24000], "trial": 3, "serialpos": 8, "trial_type": "single-stim", "trial_index": 137, "time_elapsed": 838868, "internal_node_id": "0.0-101.0"}}, {"uniqueid": "MTK1164:3QY7M81QH8TKB5S0YQUVUU91OCJ7K2", "current_trial": 138, "dateTime": 1513265197606, "trialdata": {"rt": -1, "stimulus": "<p id=\"stim\">STATUE</p>", "key_press": -1, "type": "PRES_VIS", "word": "statue", "wordID": 1373, "conditions": [24, 800, "v", 24000], "trial": 3, "serialpos": 9, "trial_type": "single-stim", "trial_index": 138, "time_elapsed": 840582, "internal_node_id": "0.0-102.0"}}, {"uniqueid": "MTK1164:3QY7M81QH8TKB5S0YQUVUU91OCJ7K2", "current_trial": 139, "dateTime": 1513265199588, "trialdata": {"rt": -1, "stimulus": "<p id=\"stim\">TOMBSTONE</p>", "key_press": -1, "type": "PRES_VIS", "word": "tombstone", "wordID": 1477, "conditions": [24, 800, "v", 24000], "trial": 3, "serialpos": 10, "trial_type": "single-stim", "trial_index": 139, "time_elapsed": 842563, "internal_node_id": "0.0-103.0"}}, {"uniqueid": "MTK1164:3QY7M81QH8TKB5S0YQUVUU91OCJ7K2", "current_trial": 140, "dateTime": 1513265201361, "trialdata": {"rt": -1, "stimulus": "<p id=\"stim\">FOOT</p>", "key_press": -1, "type": "PRES_VIS", "word": "foot", "wordID": 589, "conditions": [24, 800, "v", 24000], "trial": 3, "serialpos": 11, "trial_type": "single-stim", "trial_index": 140, "time_elapsed": 844337, "internal_node_id": "0.0-104.0"}}, {"uniqueid": "MTK1164:3QY7M81QH8TKB5S0YQUVUU91OCJ7K2", "current_trial": 141, "dateTime": 1513265203297, "trialdata": {"rt": -1, "stimulus": "<p id=\"stim\">GLOBE</p>", "key_press": -1, "type": "PRES_VIS", "word": "globe", "wordID": 640, "conditions": [24, 800, "v", 24000], "trial": 3, "serialpos": 12, "trial_type": "single-stim", "trial_index": 141, "time_elapsed": 846273, "internal_node_id": "0.0-105.0"}}, {"uniqueid": "MTK1164:3QY7M81QH8TKB5S0YQUVUU91OCJ7K2", "current_trial": 142, "dateTime": 1513265205253, "trialdata": {"rt": -1, "stimulus": "<p id=\"stim\">BEAST</p>", "key_press": -1, "type": "PRES_VIS", "word": "beast", "wordID": 107, "conditions": [24, 800, "v", 24000], "trial": 3, "serialpos": 13, "trial_type": "single-stim", "trial_index": 142, "time_elapsed": 848229, "internal_node_id": "0.0-106.0"}}, {"uniqueid": "MTK1164:3QY7M81QH8TKB5S0YQUVUU91OCJ7K2", "current_trial": 143, "dateTime": 1513265207175, "trialdata": {"rt": -1, "stimulus": "<p id=\"stim\">DRESS</p>", "key_press": -1, "type": "PRES_VIS", "word": "dress", "wordID": 494, "conditions": [24, 800, "v", 24000], "trial": 3, "serialpos": 14, "trial_type": "single-stim", "trial_index": 143, "time_elapsed": 850150, "internal_node_id": "0.0-107.0"}}, {"uniqueid": "MTK1164:3QY7M81QH8TKB5S0YQUVUU91OCJ7K2", "current_trial": 144, "dateTime": 1513265208872, "trialdata": {"rt": -1, "stimulus": "<p id=\"stim\">SCARF</p>", "key_press": -1, "type": "PRES_VIS", "word": "scarf", "wordID": 1245, "conditions": [24, 800, "v", 24000], "trial": 3, "serialpos": 15, "trial_type": "single-stim", "trial_index": 144, "time_elapsed": 851848, "internal_node_id": "0.0-108.0"}}, {"uniqueid": "MTK1164:3QY7M81QH8TKB5S0YQUVUU91OCJ7K2", "current_trial": 145, "dateTime": 1513265210513, "trialdata": {"rt": -1, "stimulus": "<p id=\"stim\">PADDLE</p>", "key_press": -1, "type": "PRES_VIS", "word": "paddle", "wordID": 999, "conditions": [24, 800, "v", 24000], "trial": 3, "serialpos": 16, "trial_type": "single-stim", "trial_index": 145, "time_elapsed": 853488, "internal_node_id": "0.0-109.0"}}, {"uniqueid": "MTK1164:3QY7M81QH8TKB5S0YQUVUU91OCJ7K2", "current_trial": 146, "dateTime": 1513265212245, "trialdata": {"rt": -1, "stimulus": "<p id=\"stim\">SKILLET</p>", "key_press": -1, "type": "PRES_VIS", "word": "skillet", "wordID": 1316, "conditions": [24, 800, "v", 24000], "trial": 3, "serialpos": 17, "trial_type": "single-stim", "trial_index": 146, "time_elapsed": 855221, "internal_node_id": "0.0-110.0"}}, {"uniqueid": "MTK1164:3QY7M81QH8TKB5S0YQUVUU91OCJ7K2", "current_trial": 147, "dateTime": 1513265214252, "trialdata": {"rt": -1, "stimulus": "<p id=\"stim\">STAR</p>", "key_press": -1, "type": "PRES_VIS", "word": "star", "wordID": 1372, "conditions": [24, 800, "v", 24000], "trial": 3, "serialpos": 18, "trial_type": "single-stim", "trial_index": 147, "time_elapsed": 857228, "internal_node_id": "0.0-111.0"}}, {"uniqueid": "MTK1164:3QY7M81QH8TKB5S0YQUVUU91OCJ7K2", "current_trial": 148, "dateTime": 1513265216174, "trialdata": {"rt": -1, "stimulus": "<p id=\"stim\">WORLD</p>", "key_press": -1, "type": "PRES_VIS", "word": "world", "wordID": 1621, "conditions": [24, 800, "v", 24000], "trial": 3, "serialpos": 19, "trial_type": "single-stim", "trial_index": 148, "time_elapsed": 859149, "internal_node_id": "0.0-112.0"}}, {"uniqueid": "MTK1164:3QY7M81QH8TKB5S0YQUVUU91OCJ7K2", "current_trial": 149, "dateTime": 1513265217819, "trialdata": {"rt": -1, "stimulus": "<p id=\"stim\">TOASTER</p>", "key_press": -1, "type": "PRES_VIS", "word": "toaster", "wordID": 1471, "conditions": [24, 800, "v", 24000], "trial": 3, "serialpos": 20, "trial_type": "single-stim", "trial_index": 149, "time_elapsed": 860794, "internal_node_id": "0.0-113.0"}}, {"uniqueid": "MTK1164:3QY7M81QH8TKB5S0YQUVUU91OCJ7K2", "current_trial": 150, "dateTime": 1513265219676, "trialdata": {"rt": -1, "stimulus": "<p id=\"stim\">SODA</p>", "key_press": -1, "type": "PRES_VIS", "word": "soda", "wordID": 1340, "conditions": [24, 800, "v", 24000], "trial": 3, "serialpos": 21, "trial_type": "single-stim", "trial_index": 150, "time_elapsed": 862651, "internal_node_id": "0.0-114.0"}}, {"uniqueid": "MTK1164:3QY7M81QH8TKB5S0YQUVUU91OCJ7K2", "current_trial": 151, "dateTime": 1513265221568, "trialdata": {"rt": -1, "stimulus": "<p id=\"stim\">WINDOW</p>", "key_press": -1, "type": "PRES_VIS", "word": "window", "wordID": 1610, "conditions": [24, 800, "v", 24000], "trial": 3, "serialpos": 22, "trial_type": "single-stim", "trial_index": 151, "time_elapsed": 864544, "internal_node_id": "0.0-115.0"}}, {"uniqueid": "MTK1164:3QY7M81QH8TKB5S0YQUVUU91OCJ7K2", "current_trial": 152, "dateTime": 1513265223264, "trialdata": {"rt": -1, "stimulus": "<p id=\"stim\">SWIMMER</p>", "key_press": -1, "type": "PRES_VIS", "word": "swimmer", "wordID": 1419, "conditions": [24, 800, "v", 24000], "trial": 3, "serialpos": 23, "trial_type": "single-stim", "trial_index": 152, "time_elapsed": 866240, "internal_node_id": "0.0-116.0"}}, {"uniqueid": "MTK1164:3QY7M81QH8TKB5S0YQUVUU91OCJ7K2", "current_trial": 153, "dateTime": 1513265225654, "trialdata": {"rt": -1, "stimulus": "", "key_press": -1, "type": "PRE_RECALL_DELAY", "trial_type": "single-stim", "trial_index": 153, "time_elapsed": 868629, "internal_node_id": "0.0-117.0-0.0"}}, {"uniqueid": "MTK1164:3QY7M81QH8TKB5S0YQUVUU91OCJ7K2", "current_trial": 154, "dateTime": 1513265226164, "trialdata": {"rt": -1000, "stimulus": "/static/audio/400Hz.wav", "key_press": -1, "type": "PRE_RECALL_ALERT", "trial_type": "single-audio", "trial_index": 154, "time_elapsed": 869140, "internal_node_id": "0.0-118.0"}}, {"uniqueid": "MTK1164:3QY7M81QH8TKB5S0YQUVUU91OCJ7K2", "current_trial": 155, "dateTime": 1513265286182, "trialdata": {"rt": [4439, 7013, 14067, 15478, 21689, 30904, 41397, 49228], "recwords": ["swimmer", "slide", "feet", "foot", "star", "beast", "soda", "dorm"], "type": "FREE_RECALL", "conditions": [24, 800, "v", 24000], "trial": 3, "trial_type": "free-recall", "trial_index": 155, "time_elapsed": 929154, "internal_node_id": "0.0-119.0-0.0"}}, {"uniqueid": "MTK1164:3QY7M81QH8TKB5S0YQUVUU91OCJ7K2", "current_trial": 156, "dateTime": 1513265300890, "trialdata": {"rt": 12701, "key_press": 32, "type": "INSTRUCTIONS", "trial_type": "text", "trial_index": 156, "time_elapsed": 943866, "internal_node_id": "0.0-120.0"}}, {"uniqueid": "MTK1164:3QY7M81QH8TKB5S0YQUVUU91OCJ7K2", "current_trial": 157, "dateTime": 1513265326909, "trialdata": {"rt": [3141, 5308, 7713, 10103, 12039, 13944, 15862, 19962, 22116], "responses": ["9", "19", "18", "13", "11", "10", "15", "26", "13"], "num1": [2, 8, 8, 2, 4, 2, 8, 9, 6, 9], "num2": [4, 9, 1, 7, 6, 5, 2, 8, 1, 3], "num3": [3, 2, 9, 4, 1, 3, 5, 8, 6, 7], "type": "DISTRACTOR", "conditions": [24, 800, "a", 24000], "trial": 4, "trial_type": "math-distractor", "trial_index": 157, "time_elapsed": 969885, "internal_node_id": "0.0-121.0"}}, {"uniqueid": "MTK1164:3QY7M81QH8TKB5S0YQUVUU91OCJ7K2", "current_trial": 158, "dateTime": 1513265329916, "trialdata": {"rt": -1, "stimulus": "<p id=\"stim\">10</p>", "key_press": -1, "trial_type": "single-stim", "trial_index": 158, "time_elapsed": 972892, "internal_node_id": "0.0-122.0-0.0"}}, {"uniqueid": "MTK1164:3QY7M81QH8TKB5S0YQUVUU91OCJ7K2", "current_trial": 159, "dateTime": 1513265330924, "trialdata": {"rt": -1, "stimulus": "<p id=\"stim\">9</p>", "key_press": -1, "trial_type": "single-stim", "trial_index": 159, "time_elapsed": 973899, "internal_node_id": "0.0-122.0-1.0"}}, {"uniqueid": "MTK1164:3QY7M81QH8TKB5S0YQUVUU91OCJ7K2", "current_trial": 160, "dateTime": 1513265331931, "trialdata": {"rt": -1, "stimulus": "<p id=\"stim\">8</p>", "key_press": -1, "trial_type": "single-stim", "trial_index": 160, "time_elapsed": 974907, "internal_node_id": "0.0-122.0-2.0"}}, {"uniqueid": "MTK1164:3QY7M81QH8TKB5S0YQUVUU91OCJ7K2", "current_trial": 161, "dateTime": 1513265332936, "trialdata": {"rt": -1, "stimulus": "<p id=\"stim\">7</p>", "key_press": -1, "trial_type": "single-stim", "trial_index": 161, "time_elapsed": 975912, "internal_node_id": "0.0-122.0-3.0"}}, {"uniqueid": "MTK1164:3QY7M81QH8TKB5S0YQUVUU91OCJ7K2", "current_trial": 162, "dateTime": 1513265333939, "trialdata": {"rt": -1, "stimulus": "<p id=\"stim\">6</p>", "key_press": -1, "trial_type": "single-stim", "trial_index": 162, "time_elapsed": 976915, "internal_node_id": "0.0-122.0-4.0"}}, {"uniqueid": "MTK1164:3QY7M81QH8TKB5S0YQUVUU91OCJ7K2", "current_trial": 163, "dateTime": 1513265334945, "trialdata": {"rt": -1, "stimulus": "<p id=\"stim\">5</p>", "key_press": -1, "trial_type": "single-stim", "trial_index": 163, "time_elapsed": 977921, "internal_node_id": "0.0-122.0-5.0"}}, {"uniqueid": "MTK1164:3QY7M81QH8TKB5S0YQUVUU91OCJ7K2", "current_trial": 164, "dateTime": 1513265335951, "trialdata": {"rt": -1, "stimulus": "<p id=\"stim\">4</p>", "key_press": -1, "trial_type": "single-stim", "trial_index": 164, "time_elapsed": 978927, "internal_node_id": "0.0-122.0-6.0"}}, {"uniqueid": "MTK1164:3QY7M81QH8TKB5S0YQUVUU91OCJ7K2", "current_trial": 165, "dateTime": 1513265336958, "trialdata": {"rt": -1, "stimulus": "<p id=\"stim\">3</p>", "key_press": -1, "trial_type": "single-stim", "trial_index": 165, "time_elapsed": 979934, "internal_node_id": "0.0-122.0-7.0"}}, {"uniqueid": "MTK1164:3QY7M81QH8TKB5S0YQUVUU91OCJ7K2", "current_trial": 166, "dateTime": 1513265337966, "trialdata": {"rt": -1, "stimulus": "<p id=\"stim\">2</p>", "key_press": -1, "trial_type": "single-stim", "trial_index": 166, "time_elapsed": 980942, "internal_node_id": "0.0-122.0-8.0"}}, {"uniqueid": "MTK1164:3QY7M81QH8TKB5S0YQUVUU91OCJ7K2", "current_trial": 167, "dateTime": 1513265338974, "trialdata": {"rt": -1, "stimulus": "<p id=\"stim\">1</p>", "key_press": -1, "trial_type": "single-stim", "trial_index": 167, "time_elapsed": 981949, "internal_node_id": "0.0-122.0-9.0"}}, {"uniqueid": "MTK1164:3QY7M81QH8TKB5S0YQUVUU91OCJ7K2", "current_trial": 168, "dateTime": 1513265340480, "trialdata": {"rt": -1, "stimulus": "<p id=\"stim\">+</p>", "key_press": -1, "type": "FIXATION", "trial_type": "single-stim", "trial_index": 168, "time_elapsed": 983456, "internal_node_id": "0.0-123.0-0.0"}}, {"uniqueid": "MTK1164:3QY7M81QH8TKB5S0YQUVUU91OCJ7K2", "current_trial": 169, "dateTime": 1513265342181, "trialdata": {"rt": -1000, "stimulus": "/static/audio/wordpool/FUNGUS.wav", "key_press": -1, "type": "PRES_AUD", "word": "fungus", "wordID": 613, "conditions": [24, 800, "a", 24000], "trial": 4, "serialpos": 0, "trial_type": "single-audio", "trial_index": 169, "time_elapsed": 985156, "internal_node_id": "0.0-124.0"}}, {"uniqueid": "MTK1164:3QY7M81QH8TKB5S0YQUVUU91OCJ7K2", "current_trial": 170, "dateTime": 1513265343941, "trialdata": {"rt": -1000, "stimulus": "/static/audio/wordpool/MILDEW.wav", "key_press": -1, "type": "PRES_AUD", "word": "mildew", "wordID": 892, "conditions": [24, 800, "a", 24000], "trial": 4, "serialpos": 1, "trial_type": "single-audio", "trial_index": 170, "time_elapsed": 986917, "internal_node_id": "0.0-125.0"}}, {"uniqueid": "MTK1164:3QY7M81QH8TKB5S0YQUVUU91OCJ7K2", "current_trial": 171, "dateTime": 1513265345740, "trialdata": {"rt": -1000, "stimulus": "/static/audio/wordpool/WAGON.wav", "key_press": -1, "type": "PRES_AUD", "word": "wagon", "wordID": 1577, "conditions": [24, 800, "a", 24000], "trial": 4, "serialpos": 2, "trial_type": "single-audio", "trial_index": 171, "time_elapsed": 988715, "internal_node_id": "0.0-126.0"}}, {"uniqueid": "MTK1164:3QY7M81QH8TKB5S0YQUVUU91OCJ7K2", "current_trial": 172, "dateTime": 1513265347527, "trialdata": {"rt": -1000, "stimulus": "/static/audio/wordpool/STAMP.wav", "key_press": -1, "type": "PRES_AUD", "word": "stamp", "wordID": 1369, "conditions": [24, 800, "a", 24000], "trial": 4, "serialpos": 3, "trial_type": "single-audio", "trial_index": 172, "time_elapsed": 990502, "internal_node_id": "0.0-127.0"}}, {"uniqueid": "MTK1164:3QY7M81QH8TKB5S0YQUVUU91OCJ7K2", "current_trial": 173, "dateTime": 1513265349299, "trialdata": {"rt": -1000, "stimulus": "/static/audio/wordpool/PERFUME.wav", "key_press": -1, "type": "PRES_AUD", "word": "perfume", "wordID": 1048, "conditions": [24, 800, "a", 24000], "trial": 4, "serialpos": 4, "trial_type": "single-audio", "trial_index": 173, "time_elapsed": 992274, "internal_node_id": "0.0-128.0"}}, {"uniqueid": "MTK1164:3QY7M81QH8TKB5S0YQUVUU91OCJ7K2", "current_trial": 174, "dateTime": 1513265351277, "trialdata": {"rt": -1000, "stimulus": "/static/audio/wordpool/SHOVEL.wav", "key_press": -1, "type": "PRES_AUD", "word": "shovel", "wordID": 1294, "conditions": [24, 800, "a", 24000], "trial": 4, "serialpos": 5, "trial_type": "single-audio", "trial_index": 174, "time_elapsed": 994253, "internal_node_id": "0.0-129.0"}}, {"uniqueid": "MTK1164:3QY7M81QH8TKB5S0YQUVUU91OCJ7K2", "current_trial": 175, "dateTime": 1513265352988, "trialdata": {"rt": -1000, "stimulus": "/static/audio/wordpool/DONKEY.wav", "key_press": -1, "type": "PRES_AUD", "word": "donkey", "wordID": 483, "conditions": [24, 800, "a", 24000], "trial": 4, "serialpos": 6, "trial_type": "single-audio", "trial_index": 175, "time_elapsed": 995963, "internal_node_id": "0.0-130.0"}}, {"uniqueid": "MTK1164:3QY7M81QH8TKB5S0YQUVUU91OCJ7K2", "current_trial": 176, "dateTime": 1513265354946, "trialdata": {"rt": -1000, "stimulus": "/static/audio/wordpool/SHARK.wav", "key_press": -1, "type": "PRES_AUD", "word": "shark", "wordID": 1274, "conditions": [24, 800, "a", 24000], "trial": 4, "serialpos": 7, "trial_type": "single-audio", "trial_index": 176, "time_elapsed": 997922, "internal_node_id": "0.0-131.0"}}, {"uniqueid": "MTK1164:3QY7M81QH8TKB5S0YQUVUU91OCJ7K2", "current_trial": 177, "dateTime": 1513265356616, "trialdata": {"rt": -1000, "stimulus": "/static/audio/wordpool/DONOR.wav", "key_press": -1, "type": "PRES_AUD", "word": "donor", "wordID": 484, "conditions": [24, 800, "a", 24000], "trial": 4, "serialpos": 8, "trial_type": "single-audio", "trial_index": 177, "time_elapsed": 999592, "internal_node_id": "0.0-132.0"}}, {"uniqueid": "MTK1164:3QY7M81QH8TKB5S0YQUVUU91OCJ7K2", "current_trial": 178, "dateTime": 1513265358486, "trialdata": {"rt": -1000, "stimulus": "/static/audio/wordpool/SLUG.wav", "key_press": -1, "type": "PRES_AUD", "word": "slug", "wordID": 1328, "conditions": [24, 800, "a", 24000], "trial": 4, "serialpos": 9, "trial_type": "single-audio", "trial_index": 178, "time_elapsed": 1001462, "internal_node_id": "0.0-133.0"}}, {"uniqueid": "MTK1164:3QY7M81QH8TKB5S0YQUVUU91OCJ7K2", "current_trial": 179, "dateTime": 1513265360347, "trialdata": {"rt": -1000, "stimulus": "/static/audio/wordpool/FRAGRANCE.wav", "key_press": -1, "type": "PRES_AUD", "word": "fragrance", "wordID": 598, "conditions": [24, 800, "a", 24000], "trial": 4, "serialpos": 10, "trial_type": "single-audio", "trial_index": 179, "time_elapsed": 1003323, "internal_node_id": "0.0-134.0"}}, {"uniqueid": "MTK1164:3QY7M81QH8TKB5S0YQUVUU91OCJ7K2", "current_trial": 180, "dateTime": 1513265362148, "trialdata": {"rt": -1000, "stimulus": "/static/audio/wordpool/GAZELLE.wav", "key_press": -1, "type": "PRES_AUD", "word": "gazelle", "wordID": 627, "conditions": [24, 800, "a", 24000], "trial": 4, "serialpos": 11, "trial_type": "single-audio", "trial_index": 180, "time_elapsed": 1005124, "internal_node_id": "0.0-135.0"}}, {"uniqueid": "MTK1164:3QY7M81QH8TKB5S0YQUVUU91OCJ7K2", "current_trial": 181, "dateTime": 1513265363823, "trialdata": {"rt": -1000, "stimulus": "/static/audio/wordpool/DRIVER.wav", "key_press": -1, "type": "PRES_AUD", "word": "driver", "wordID": 498, "conditions": [24, 800, "a", 24000], "trial": 4, "serialpos": 12, "trial_type": "single-audio", "trial_index": 181, "time_elapsed": 1006799, "internal_node_id": "0.0-136.0"}}, {"uniqueid": "MTK1164:3QY7M81QH8TKB5S0YQUVUU91OCJ7K2", "current_trial": 182, "dateTime": 1513265365708, "trialdata": {"rt": -1000, "stimulus": "/static/audio/wordpool/TRUCK.wav", "key_press": -1, "type": "PRES_AUD", "word": "truck", "wordID": 1511, "conditions": [24, 800, "a", 24000], "trial": 4, "serialpos": 13, "trial_type": "single-audio", "trial_index": 182, "time_elapsed": 1008683, "internal_node_id": "0.0-137.0"}}, {"uniqueid": "MTK1164:3QY7M81QH8TKB5S0YQUVUU91OCJ7K2", "current_trial": 183, "dateTime": 1513265367348, "trialdata": {"rt": -1000, "stimulus": "/static/audio/wordpool/SCISSORS.wav", "key_press": -1, "type": "PRES_AUD", "word": "scissors", "wordID": 1249, "conditions": [24, 800, "a", 24000], "trial": 4, "serialpos": 14, "trial_type": "single-audio", "trial_index": 183, "time_elapsed": 1010323, "internal_node_id": "0.0-138.0"}}, {"uniqueid": "MTK1164:3QY7M81QH8TKB5S0YQUVUU91OCJ7K2", "current_trial": 184, "dateTime": 1513265368961, "trialdata": {"rt": -1000, "stimulus": "/static/audio/wordpool/RABBIT.wav", "key_press": -1, "type": "PRES_AUD", "word": "rabbit", "wordID": 1151, "conditions": [24, 800, "a", 24000], "trial": 4, "serialpos": 15, "trial_type": "single-audio", "trial_index": 184, "time_elapsed": 1011937, "internal_node_id": "0.0-139.0"}}, {"uniqueid": "MTK1164:3QY7M81QH8TKB5S0YQUVUU91OCJ7K2", "current_trial": 185, "dateTime": 1513265370706, "trialdata": {"rt": -1000, "stimulus": "/static/audio/wordpool/COTTAGE.wav", "key_press": -1, "type": "PRES_AUD", "word": "cottage", "wordID": 383, "conditions": [24, 800, "a", 24000], "trial": 4, "serialpos": 16, "trial_type": "single-audio", "trial_index": 185, "time_elapsed": 1013682, "internal_node_id": "0.0-140.0"}}, {"uniqueid": "MTK1164:3QY7M81QH8TKB5S0YQUVUU91OCJ7K2", "current_trial": 186, "dateTime": 1513265372386, "trialdata": {"rt": -1000, "stimulus": "/static/audio/wordpool/TILE.wav", "key_press": -1, "type": "PRES_AUD", "word": "tile", "wordID": 1467, "conditions": [24, 800, "a", 24000], "trial": 4, "serialpos": 17, "trial_type": "single-audio", "trial_index": 186, "time_elapsed": 1015362, "internal_node_id": "0.0-141.0"}}, {"uniqueid": "MTK1164:3QY7M81QH8TKB5S0YQUVUU91OCJ7K2", "current_trial": 187, "dateTime": 1513265374054, "trialdata": {"rt": -1000, "stimulus": "/static/audio/wordpool/PLAYGROUND.wav", "key_press": -1, "type": "PRES_AUD", "word": "playground", "wordID": 1086, "conditions": [24, 800, "a", 24000], "trial": 4, "serialpos": 18, "trial_type": "single-audio", "trial_index": 187, "time_elapsed": 1017030, "internal_node_id": "0.0-142.0"}}, {"uniqueid": "MTK1164:3QY7M81QH8TKB5S0YQUVUU91OCJ7K2", "current_trial": 188, "dateTime": 1513265376045, "trialdata": {"rt": -1000, "stimulus": "/static/audio/wordpool/SHERIFF.wav", "key_press": -1, "type": "PRES_AUD", "word": "sheriff", "wordID": 1283, "conditions": [24, 800, "a", 24000], "trial": 4, "serialpos": 19, "trial_type": "single-audio", "trial_index": 188, "time_elapsed": 1019021, "internal_node_id": "0.0-143.0"}}, {"uniqueid": "MTK1164:3QY7M81QH8TKB5S0YQUVUU91OCJ7K2", "current_trial": 189, "dateTime": 1513265378048, "trialdata": {"rt": -1000, "stimulus": "/static/audio/wordpool/PATROL.wav", "key_press": -1, "type": "PRES_AUD", "word": "patrol", "wordID": 1026, "conditions": [24, 800, "a", 24000], "trial": 4, "serialpos": 20, "trial_type": "single-audio", "trial_index": 189, "time_elapsed": 1021023, "internal_node_id": "0.0-144.0"}}, {"uniqueid": "MTK1164:3QY7M81QH8TKB5S0YQUVUU91OCJ7K2", "current_trial": 190, "dateTime": 1513265379997, "trialdata": {"rt": -1000, "stimulus": "/static/audio/wordpool/PUPPY.wav", "key_press": -1, "type": "PRES_AUD", "word": "puppy", "wordID": 1143, "conditions": [24, 800, "a", 24000], "trial": 4, "serialpos": 21, "trial_type": "single-audio", "trial_index": 190, "time_elapsed": 1022973, "internal_node_id": "0.0-145.0"}}, {"uniqueid": "MTK1164:3QY7M81QH8TKB5S0YQUVUU91OCJ7K2", "current_trial": 191, "dateTime": 1513265381920, "trialdata": {"rt": -1000, "stimulus": "/static/audio/wordpool/EYELASH.wav", "key_press": -1, "type": "PRES_AUD", "word": "eyelash", "wordID": 545, "conditions": [24, 800, "a", 24000], "trial": 4, "serialpos": 22, "trial_type": "single-audio", "trial_index": 191, "time_elapsed": 1024896, "internal_node_id": "0.0-146.0"}}, {"uniqueid": "MTK1164:3QY7M81QH8TKB5S0YQUVUU91OCJ7K2", "current_trial": 192, "dateTime": 1513265383922, "trialdata": {"rt": -1000, "stimulus": "/static/audio/wordpool/WASP.wav", "key_press": -1, "type": "PRES_AUD", "word": "wasp", "wordID": 1592, "conditions": [24, 800, "a", 24000], "trial": 4, "serialpos": 23, "trial_type": "single-audio", "trial_index": 192, "time_elapsed": 1026897, "internal_node_id": "0.0-147.0"}}, {"uniqueid": "MTK1164:3QY7M81QH8TKB5S0YQUVUU91OCJ7K2", "current_trial": 193, "dateTime": 1513265385247, "trialdata": {"rt": -1, "stimulus": "", "key_press": -1, "type": "PRE_RECALL_DELAY", "trial_type": "single-stim", "trial_index": 193, "time_elapsed": 1028222, "internal_node_id": "0.0-148.0-0.0"}}, {"uniqueid": "MTK1164:3QY7M81QH8TKB5S0YQUVUU91OCJ7K2", "current_trial": 194, "dateTime": 1513265385754, "trialdata": {"rt": -1000, "stimulus": "/static/audio/400Hz.wav", "key_press": -1, "type": "PRE_RECALL_ALERT", "trial_type": "single-audio", "trial_index": 194, "time_elapsed": 1028730, "internal_node_id": "0.0-149.0"}}, {"uniqueid": "MTK1164:3QY7M81QH8TKB5S0YQUVUU91OCJ7K2", "current_trial": 195, "dateTime": 1513265445767, "trialdata": {"rt": [4684, 8058, 16206, 20172, 24669, 34588, 49496], "recwords": ["wasp", "shark", "rabbit", "fungus", "mold", "puppy", "stea"], "type": "FREE_RECALL", "conditions": [24, 800, "a", 24000], "trial": 4, "trial_type": "free-recall", "trial_index": 195, "time_elapsed": 1088736, "internal_node_id": "0.0-150.0-0.0"}}, {"uniqueid": "MTK1164:3QY7M81QH8TKB5S0YQUVUU91OCJ7K2", "current_trial": 196, "dateTime": 1513265449762, "trialdata": {"rt": 1989, "key_press": 32, "type": "INSTRUCTIONS", "trial_type": "text", "trial_index": 196, "time_elapsed": 1092738, "internal_node_id": "0.0-151.0"}}, {"uniqueid": "MTK1164:3QY7M81QH8TKB5S0YQUVUU91OCJ7K2", "current_trial": 197, "dateTime": 1513265463780, "trialdata": {"rt": [6315, 8471], "responses": ["25", "14"], "num1": [9, 5, 4], "num2": [6, 8, 6], "num3": [9, 1, 5], "type": "DISTRACTOR", "conditions": [24, 800, "v", 12000], "trial": 5, "trial_type": "math-distractor", "trial_index": 197, "time_elapsed": 1106756, "internal_node_id": "0.0-152.0"}}, {"uniqueid": "MTK1164:3QY7M81QH8TKB5S0YQUVUU91OCJ7K2", "current_trial": 198, "dateTime": 1513265466788, "trialdata": {"rt": -1, "stimulus": "<p id=\"stim\">10</p>", "key_press": -1, "trial_type": "single-stim", "trial_index": 198, "time_elapsed": 1109764, "internal_node_id": "0.0-153.0-0.0"}}, {"uniqueid": "MTK1164:3QY7M81QH8TKB5S0YQUVUU91OCJ7K2", "current_trial": 199, "dateTime": 1513265467796, "trialdata": {"rt": -1, "stimulus": "<p id=\"stim\">9</p>", "key_press": -1, "trial_type": "single-stim", "trial_index": 199, "time_elapsed": 1110772, "internal_node_id": "0.0-153.0-1.0"}}, {"uniqueid": "MTK1164:3QY7M81QH8TKB5S0YQUVUU91OCJ7K2", "current_trial": 200, "dateTime": 1513265468801, "trialdata": {"rt": -1, "stimulus": "<p id=\"stim\">8</p>", "key_press": -1, "trial_type": "single-stim", "trial_index": 200, "time_elapsed": 1111776, "internal_node_id": "0.0-153.0-2.0"}}, {"uniqueid": "MTK1164:3QY7M81QH8TKB5S0YQUVUU91OCJ7K2", "current_trial": 201, "dateTime": 1513265469806, "trialdata": {"rt": -1, "stimulus": "<p id=\"stim\">7</p>", "key_press": -1, "trial_type": "single-stim", "trial_index": 201, "time_elapsed": 1112782, "internal_node_id": "0.0-153.0-3.0"}}, {"uniqueid": "MTK1164:3QY7M81QH8TKB5S0YQUVUU91OCJ7K2", "current_trial": 202, "dateTime": 1513265470811, "trialdata": {"rt": -1, "stimulus": "<p id=\"stim\">6</p>", "key_press": -1, "trial_type": "single-stim", "trial_index": 202, "time_elapsed": 1113786, "internal_node_id": "0.0-153.0-4.0"}}, {"uniqueid": "MTK1164:3QY7M81QH8TKB5S0YQUVUU91OCJ7K2", "current_trial": 203, "dateTime": 1513265471819, "trialdata": {"rt": -1, "stimulus": "<p id=\"stim\">5</p>", "key_press": -1, "trial_type": "single-stim", "trial_index": 203, "time_elapsed": 1114795, "internal_node_id": "0.0-153.0-5.0"}}, {"uniqueid": "MTK1164:3QY7M81QH8TKB5S0YQUVUU91OCJ7K2", "current_trial": 204, "dateTime": 1513265472826, "trialdata": {"rt": -1, "stimulus": "<p id=\"stim\">4</p>", "key_press": -1, "trial_type": "single-stim", "trial_index": 204, "time_elapsed": 1115802, "internal_node_id": "0.0-153.0-6.0"}}, {"uniqueid": "MTK1164:3QY7M81QH8TKB5S0YQUVUU91OCJ7K2", "current_trial": 205, "dateTime": 1513265473834, "trialdata": {"rt": -1, "stimulus": "<p id=\"stim\">3</p>", "key_press": -1, "trial_type": "single-stim", "trial_index": 205, "time_elapsed": 1116810, "internal_node_id": "0.0-153.0-7.0"}}, {"uniqueid": "MTK1164:3QY7M81QH8TKB5S0YQUVUU91OCJ7K2", "current_trial": 206, "dateTime": 1513265474840, "trialdata": {"rt": -1, "stimulus": "<p id=\"stim\">2</p>", "key_press": -1, "trial_type": "single-stim", "trial_index": 206, "time_elapsed": 1117815, "internal_node_id": "0.0-153.0-8.0"}}, {"uniqueid": "MTK1164:3QY7M81QH8TKB5S0YQUVUU91OCJ7K2", "current_trial": 207, "dateTime": 1513265475845, "trialdata": {"rt": -1, "stimulus": "<p id=\"stim\">1</p>", "key_press": -1, "trial_type": "single-stim", "trial_index": 207, "time_elapsed": 1118821, "internal_node_id": "0.0-153.0-9.0"}}, {"uniqueid": "MTK1164:3QY7M81QH8TKB5S0YQUVUU91OCJ7K2", "current_trial": 208, "dateTime": 1513265477351, "trialdata": {"rt": -1, "stimulus": "<p id=\"stim\">+</p>", "key_press": -1, "type": "FIXATION", "trial_type": "single-stim", "trial_index": 208, "time_elapsed": 1120327, "internal_node_id": "0.0-154.0-0.0"}}, {"uniqueid": "MTK1164:3QY7M81QH8TKB5S0YQUVUU91OCJ7K2", "current_trial": 209, "dateTime": 1513265478160, "trialdata": {"rt": -1, "stimulus": "<p id=\"stim\">PIZZA</p>", "key_press": -1, "type": "PRES_VIS", "word": "pizza", "wordID": 1078, "conditions": [24, 800, "v", 12000], "trial": 5, "serialpos": 0, "trial_type": "single-stim", "trial_index": 209, "time_elapsed": 1121135, "internal_node_id": "0.0-155.0"}}, {"uniqueid": "MTK1164:3QY7M81QH8TKB5S0YQUVUU91OCJ7K2", "current_trial": 210, "dateTime": 1513265479975, "trialdata": {"rt": -1, "stimulus": "<p id=\"stim\">BACON</p>", "key_press": -1, "type": "PRES_VIS", "word": "bacon", "wordID": 66, "conditions": [24, 800, "v", 12000], "trial": 5, "serialpos": 1, "trial_type": "single-stim", "trial_index": 210, "time_elapsed": 1122951, "internal_node_id": "0.0-156.0"}}, {"uniqueid": "MTK1164:3QY7M81QH8TKB5S0YQUVUU91OCJ7K2", "current_trial": 211, "dateTime": 1513265481715, "trialdata": {"rt": -1, "stimulus": "<p id=\"stim\">CHURCH</p>", "key_press": -1, "type": "PRES_VIS", "word": "church", "wordID": 306, "conditions": [24, 800, "v", 12000], "trial": 5, "serialpos": 2, "trial_type": "single-stim", "trial_index": 211, "time_elapsed": 1124690, "internal_node_id": "0.0-157.0"}}, {"uniqueid": "MTK1164:3QY7M81QH8TKB5S0YQUVUU91OCJ7K2", "current_trial": 212, "dateTime": 1513265483444, "trialdata": {"rt": -1, "stimulus": "<p id=\"stim\">GYMNAST</p>", "key_press": -1, "type": "PRES_VIS", "word": "gymnast", "wordID": 674, "conditions": [24, 800, "v", 12000], "trial": 5, "serialpos": 3, "trial_type": "single-stim", "trial_index": 212, "time_elapsed": 1126420, "internal_node_id": "0.0-158.0"}}, {"uniqueid": "MTK1164:3QY7M81QH8TKB5S0YQUVUU91OCJ7K2", "current_trial": 213, "dateTime": 1513265485160, "trialdata": {"rt": -1, "stimulus": "<p id=\"stim\">RELISH</p>", "key_press": -1, "type": "PRES_VIS", "word": "relish", "wordID": 1182, "conditions": [24, 800, "v", 12000], "trial": 5, "serialpos": 4, "trial_type": "single-stim", "trial_index": 213, "time_elapsed": 1128135, "internal_node_id": "0.0-159.0"}}, {"uniqueid": "MTK1164:3QY7M81QH8TKB5S0YQUVUU91OCJ7K2", "current_trial": 214, "dateTime": 1513265486825, "trialdata": {"rt": -1, "stimulus": "<p id=\"stim\">SCOTCH</p>", "key_press": -1, "type": "PRES_VIS", "word": "scotch", "wordID": 1250, "conditions": [24, 800, "v", 12000], "trial": 5, "serialpos": 5, "trial_type": "single-stim", "trial_index": 214, "time_elapsed": 1129800, "internal_node_id": "0.0-160.0"}}, {"uniqueid": "MTK1164:3QY7M81QH8TKB5S0YQUVUU91OCJ7K2", "current_trial": 215, "dateTime": 1513265488567, "trialdata": {"rt": -1, "stimulus": "<p id=\"stim\">BANKER</p>", "key_press": -1, "type": "PRES_VIS", "word": "banker", "wordID": 83, "conditions": [24, 800, "v", 12000], "trial": 5, "serialpos": 6, "trial_type": "single-stim", "trial_index": 215, "time_elapsed": 1131542, "internal_node_id": "0.0-161.0"}}, {"uniqueid": "MTK1164:3QY7M81QH8TKB5S0YQUVUU91OCJ7K2", "current_trial": 216, "dateTime": 1513265490471, "trialdata": {"rt": -1, "stimulus": "<p id=\"stim\">HATCHET</p>", "key_press": -1, "type": "PRES_VIS", "word": "hatchet", "wordID": 690, "conditions": [24, 800, "v", 12000], "trial": 5, "serialpos": 7, "trial_type": "single-stim", "trial_index": 216, "time_elapsed": 1133447, "internal_node_id": "0.0-162.0"}}, {"uniqueid": "MTK1164:3QY7M81QH8TKB5S0YQUVUU91OCJ7K2", "current_trial": 217, "dateTime": 1513265492255, "trialdata": {"rt": -1, "stimulus": "<p id=\"stim\">PICNIC</p>", "key_press": -1, "type": "PRES_VIS", "word": "picnic", "wordID": 1059, "conditions": [24, 800, "v", 12000], "trial": 5, "serialpos": 8, "trial_type": "single-stim", "trial_index": 217, "time_elapsed": 1135231, "internal_node_id": "0.0-163.0"}}, {"uniqueid": "MTK1164:3QY7M81QH8TKB5S0YQUVUU91OCJ7K2", "current_trial": 218, "dateTime": 1513265493905, "trialdata": {"rt": -1, "stimulus": "<p id=\"stim\">SNACK</p>", "key_press": -1, "type": "PRES_VIS", "word": "snack", "wordID": 1330, "conditions": [24, 800, "v", 12000], "trial": 5, "serialpos": 9, "trial_type": "single-stim", "trial_index": 218, "time_elapsed": 1136880, "internal_node_id": "0.0-164.0"}}, {"uniqueid": "MTK1164:3QY7M81QH8TKB5S0YQUVUU91OCJ7K2", "current_trial": 219, "dateTime": 1513265495545, "trialdata": {"rt": -1, "stimulus": "<p id=\"stim\">PIMPLE</p>", "key_press": -1, "type": "PRES_VIS", "word": "pimple", "wordID": 1070, "conditions": [24, 800, "v", 12000], "trial": 5, "serialpos": 10, "trial_type": "single-stim", "trial_index": 219, "time_elapsed": 1138521, "internal_node_id": "0.0-165.0"}}, {"uniqueid": "MTK1164:3QY7M81QH8TKB5S0YQUVUU91OCJ7K2", "current_trial": 220, "dateTime": 1513265497201, "trialdata": {"rt": -1, "stimulus": "<p id=\"stim\">FRECKLE</p>", "key_press": -1, "type": "PRES_VIS", "word": "freckle", "wordID": 601, "conditions": [24, 800, "v", 12000], "trial": 5, "serialpos": 11, "trial_type": "single-stim", "trial_index": 220, "time_elapsed": 1140176, "internal_node_id": "0.0-166.0"}}, {"uniqueid": "MTK1164:3QY7M81QH8TKB5S0YQUVUU91OCJ7K2", "current_trial": 221, "dateTime": 1513265499105, "trialdata": {"rt": -1, "stimulus": "<p id=\"stim\">LILY</p>", "key_press": -1, "type": "PRES_VIS", "word": "lily", "wordID": 820, "conditions": [24, 800, "v", 12000], "trial": 5, "serialpos": 12, "trial_type": "single-stim", "trial_index": 221, "time_elapsed": 1142081, "internal_node_id": "0.0-167.0"}}, {"uniqueid": "MTK1164:3QY7M81QH8TKB5S0YQUVUU91OCJ7K2", "current_trial": 222, "dateTime": 1513265501089, "trialdata": {"rt": -1, "stimulus": "<p id=\"stim\">SPOUSE</p>", "key_press": -1, "type": "PRES_VIS", "word": "spouse", "wordID": 1357, "conditions": [24, 800, "v", 12000], "trial": 5, "serialpos": 13, "trial_type": "single-stim", "trial_index": 222, "time_elapsed": 1144065, "internal_node_id": "0.0-168.0"}}, {"uniqueid": "MTK1164:3QY7M81QH8TKB5S0YQUVUU91OCJ7K2", "current_trial": 223, "dateTime": 1513265502858, "trialdata": {"rt": -1, "stimulus": "<p id=\"stim\">SERVER</p>", "key_press": -1, "type": "PRES_VIS", "word": "server", "wordID": 1271, "conditions": [24, 800, "v", 12000], "trial": 5, "serialpos": 14, "trial_type": "single-stim", "trial_index": 223, "time_elapsed": 1145833, "internal_node_id": "0.0-169.0"}}, {"uniqueid": "MTK1164:3QY7M81QH8TKB5S0YQUVUU91OCJ7K2", "current_trial": 224, "dateTime": 1513265504537, "trialdata": {"rt": -1, "stimulus": "<p id=\"stim\">MAMMAL</p>", "key_press": -1, "type": "PRES_VIS", "word": "mammal", "wordID": 860, "conditions": [24, 800, "v", 12000], "trial": 5, "serialpos": 15, "trial_type": "single-stim", "trial_index": 224, "time_elapsed": 1147513, "internal_node_id": "0.0-170.0"}}, {"uniqueid": "MTK1164:3QY7M81QH8TKB5S0YQUVUU91OCJ7K2", "current_trial": 225, "dateTime": 1513265506470, "trialdata": {"rt": -1, "stimulus": "<p id=\"stim\">PRIMATE</p>", "key_press": -1, "type": "PRES_VIS", "word": "primate", "wordID": 1122, "conditions": [24, 800, "v", 12000], "trial": 5, "serialpos": 16, "trial_type": "single-stim", "trial_index": 225, "time_elapsed": 1149444, "internal_node_id": "0.0-171.0"}}, {"uniqueid": "MTK1164:3QY7M81QH8TKB5S0YQUVUU91OCJ7K2", "current_trial": 226, "dateTime": 1513265508286, "trialdata": {"rt": -1, "stimulus": "<p id=\"stim\">PISTOL</p>", "key_press": -1, "type": "PRES_VIS", "word": "pistol", "wordID": 1074, "conditions": [24, 800, "v", 12000], "trial": 5, "serialpos": 17, "trial_type": "single-stim", "trial_index": 226, "time_elapsed": 1151262, "internal_node_id": "0.0-172.0"}}, {"uniqueid": "MTK1164:3QY7M81QH8TKB5S0YQUVUU91OCJ7K2", "current_trial": 227, "dateTime": 1513265510043, "trialdata": {"rt": -1, "stimulus": "<p id=\"stim\">RUST</p>", "key_press": -1, "type": "PRES_VIS", "word": "rust", "wordID": 1218, "conditions": [24, 800, "v", 12000], "trial": 5, "serialpos": 18, "trial_type": "single-stim", "trial_index": 227, "time_elapsed": 1153018, "internal_node_id": "0.0-173.0"}}, {"uniqueid": "MTK1164:3QY7M81QH8TKB5S0YQUVUU91OCJ7K2", "current_trial": 228, "dateTime": 1513265511790, "trialdata": {"rt": -1, "stimulus": "<p id=\"stim\">SHRUB</p>", "key_press": -1, "type": "PRES_VIS", "word": "shrub", "wordID": 1298, "conditions": [24, 800, "v", 12000], "trial": 5, "serialpos": 19, "trial_type": "single-stim", "trial_index": 228, "time_elapsed": 1154766, "internal_node_id": "0.0-174.0"}}, {"uniqueid": "MTK1164:3QY7M81QH8TKB5S0YQUVUU91OCJ7K2", "current_trial": 229, "dateTime": 1513265513798, "trialdata": {"rt": -1, "stimulus": "<p id=\"stim\">WHISKERS</p>", "key_press": -1, "type": "PRES_VIS", "word": "whiskers", "wordID": 1604, "conditions": [24, 800, "v", 12000], "trial": 5, "serialpos": 20, "trial_type": "single-stim", "trial_index": 229, "time_elapsed": 1156773, "internal_node_id": "0.0-175.0"}}, {"uniqueid": "MTK1164:3QY7M81QH8TKB5S0YQUVUU91OCJ7K2", "current_trial": 230, "dateTime": 1513265515686, "trialdata": {"rt": -1, "stimulus": "<p id=\"stim\">GOBLIN</p>", "key_press": -1, "type": "PRES_VIS", "word": "goblin", "wordID": 644, "conditions": [24, 800, "v", 12000], "trial": 5, "serialpos": 21, "trial_type": "single-stim", "trial_index": 230, "time_elapsed": 1158661, "internal_node_id": "0.0-176.0"}}, {"uniqueid": "MTK1164:3QY7M81QH8TKB5S0YQUVUU91OCJ7K2", "current_trial": 231, "dateTime": 1513265517589, "trialdata": {"rt": -1, "stimulus": "<p id=\"stim\">CUSTARD</p>", "key_press": -1, "type": "PRES_VIS", "word": "custard", "wordID": 428, "conditions": [24, 800, "v", 12000], "trial": 5, "serialpos": 22, "trial_type": "single-stim", "trial_index": 231, "time_elapsed": 1160565, "internal_node_id": "0.0-177.0"}}, {"uniqueid": "MTK1164:3QY7M81QH8TKB5S0YQUVUU91OCJ7K2", "current_trial": 232, "dateTime": 1513265519565, "trialdata": {"rt": -1, "stimulus": "<p id=\"stim\">COLLEGE</p>", "key_press": -1, "type": "PRES_VIS", "word": "college", "wordID": 345, "conditions": [24, 800, "v", 12000], "trial": 5, "serialpos": 23, "trial_type": "single-stim", "trial_index": 232, "time_elapsed": 1162540, "internal_node_id": "0.0-178.0"}}, {"uniqueid": "MTK1164:3QY7M81QH8TKB5S0YQUVUU91OCJ7K2", "current_trial": 233, "dateTime": 1513265521900, "trialdata": {"rt": -1, "stimulus": "", "key_press": -1, "type": "PRE_RECALL_DELAY", "trial_type": "single-stim", "trial_index": 233, "time_elapsed": 1164874, "internal_node_id": "0.0-179.0-0.0"}}, {"uniqueid": "MTK1164:3QY7M81QH8TKB5S0YQUVUU91OCJ7K2", "current_trial": 234, "dateTime": 1513265522408, "trialdata": {"rt": -1000, "stimulus": "/static/audio/400Hz.wav", "key_press": -1, "type": "PRE_RECALL_ALERT", "trial_type": "single-audio", "trial_index": 234, "time_elapsed": 1165384, "internal_node_id": "0.0-180.0"}}, {"uniqueid": "MTK1164:3QY7M81QH8TKB5S0YQUVUU91OCJ7K2", "current_trial": 235, "dateTime": 1513265582422, "trialdata": {"rt": [6623, 9399, 20753, 33028, 37970, 44150, 52732], "recwords": ["cottage", "lily", "pizza", "snack", "snack", "bacon", "goblin"], "type": "FREE_RECALL", "conditions": [24, 800, "v", 12000], "trial": 5, "trial_type": "free-recall", "trial_index": 235, "time_elapsed": 1225392, "internal_node_id": "0.0-181.0-0.0"}}, {"uniqueid": "MTK1164:3QY7M81QH8TKB5S0YQUVUU91OCJ7K2", "current_trial": 236, "dateTime": 1513265596451, "trialdata": {"rt": 12021, "key_press": 32, "type": "INSTRUCTIONS", "trial_type": "text", "trial_index": 236, "time_elapsed": 1239426, "internal_node_id": "0.0-182.0"}}, {"uniqueid": "MTK1164:3QY7M81QH8TKB5S0YQUVUU91OCJ7K2", "current_trial": 237, "dateTime": 1513265622470, "trialdata": {"rt": [2051, 5304, 8395, 11113, 14795, 18926], "responses": ["10", "20", "21", "7", "14", "18"], "num1": [5, 8, 9, 2, 9, 3, 8], "num2": [1, 7, 5, 1, 4, 9, 7], "num3": [4, 5, 6, 4, 4, 6, 6], "type": "DISTRACTOR", "conditions": [12, 800, "v", 24000], "trial": 6, "trial_type": "math-distractor", "trial_index": 237, "time_elapsed": 1265446, "internal_node_id": "0.0-183.0"}}, {"uniqueid": "MTK1164:3QY7M81QH8TKB5S0YQUVUU91OCJ7K2", "current_trial": 238, "dateTime": 1513265625482, "trialdata": {"rt": -1, "stimulus": "<p id=\"stim\">10</p>", "key_press": -1, "trial_type": "single-stim", "trial_index": 238, "time_elapsed": 1268457, "internal_node_id": "0.0-184.0-0.0"}}, {"uniqueid": "MTK1164:3QY7M81QH8TKB5S0YQUVUU91OCJ7K2", "current_trial": 239, "dateTime": 1513265626485, "trialdata": {"rt": -1, "stimulus": "<p id=\"stim\">9</p>", "key_press": -1, "trial_type": "single-stim", "trial_index": 239, "time_elapsed": 1269461, "internal_node_id": "0.0-184.0-1.0"}}, {"uniqueid": "MTK1164:3QY7M81QH8TKB5S0YQUVUU91OCJ7K2", "current_trial": 240, "dateTime": 1513265627490, "trialdata": {"rt": -1, "stimulus": "<p id=\"stim\">8</p>", "key_press": -1, "trial_type": "single-stim", "trial_index": 240, "time_elapsed": 1270465, "internal_node_id": "0.0-184.0-2.0"}}, {"uniqueid": "MTK1164:3QY7M81QH8TKB5S0YQUVUU91OCJ7K2", "current_trial": 241, "dateTime": 1513265628497, "trialdata": {"rt": -1, "stimulus": "<p id=\"stim\">7</p>", "key_press": -1, "trial_type": "single-stim", "trial_index": 241, "time_elapsed": 1271473, "internal_node_id": "0.0-184.0-3.0"}}, {"uniqueid": "MTK1164:3QY7M81QH8TKB5S0YQUVUU91OCJ7K2", "current_trial": 242, "dateTime": 1513265629504, "trialdata": {"rt": -1, "stimulus": "<p id=\"stim\">6</p>", "key_press": -1, "trial_type": "single-stim", "trial_index": 242, "time_elapsed": 1272479, "internal_node_id": "0.0-184.0-4.0"}}, {"uniqueid": "MTK1164:3QY7M81QH8TKB5S0YQUVUU91OCJ7K2", "current_trial": 243, "dateTime": 1513265630507, "trialdata": {"rt": -1, "stimulus": "<p id=\"stim\">5</p>", "key_press": -1, "trial_type": "single-stim", "trial_index": 243, "time_elapsed": 1273483, "internal_node_id": "0.0-184.0-5.0"}}, {"uniqueid": "MTK1164:3QY7M81QH8TKB5S0YQUVUU91OCJ7K2", "current_trial": 244, "dateTime": 1513265631511, "trialdata": {"rt": -1, "stimulus": "<p id=\"stim\">4</p>", "key_press": -1, "trial_type": "single-stim", "trial_index": 244, "time_elapsed": 1274487, "internal_node_id": "0.0-184.0-6.0"}}, {"uniqueid": "MTK1164:3QY7M81QH8TKB5S0YQUVUU91OCJ7K2", "current_trial": 245, "dateTime": 1513265632518, "trialdata": {"rt": -1, "stimulus": "<p id=\"stim\">3</p>", "key_press": -1, "trial_type": "single-stim", "trial_index": 245, "time_elapsed": 1275493, "internal_node_id": "0.0-184.0-7.0"}}, {"uniqueid": "MTK1164:3QY7M81QH8TKB5S0YQUVUU91OCJ7K2", "current_trial": 246, "dateTime": 1513265633523, "trialdata": {"rt": -1, "stimulus": "<p id=\"stim\">2</p>", "key_press": -1, "trial_type": "single-stim", "trial_index": 246, "time_elapsed": 1276499, "internal_node_id": "0.0-184.0-8.0"}}, {"uniqueid": "MTK1164:3QY7M81QH8TKB5S0YQUVUU91OCJ7K2", "current_trial": 247, "dateTime": 1513265634527, "trialdata": {"rt": -1, "stimulus": "<p id=\"stim\">1</p>", "key_press": -1, "trial_type": "single-stim", "trial_index": 247, "time_elapsed": 1277502, "internal_node_id": "0.0-184.0-9.0"}}, {"uniqueid": "MTK1164:3QY7M81QH8TKB5S0YQUVUU91OCJ7K2", "current_trial": 248, "dateTime": 1513265636034, "trialdata": {"rt": -1, "stimulus": "<p id=\"stim\">+</p>", "key_press": -1, "type": "FIXATION", "trial_type": "single-stim", "trial_index": 248, "time_elapsed": 1279010, "internal_node_id": "0.0-185.0-0.0"}}, {"uniqueid": "MTK1164:3QY7M81QH8TKB5S0YQUVUU91OCJ7K2", "current_trial": 249, "dateTime": 1513265636842, "trialdata": {"rt": -1, "stimulus": "<p id=\"stim\">NECKLACE</p>", "key_press": -1, "type": "PRES_VIS", "word": "necklace", "wordID": 939, "conditions": [12, 800, "v", 24000], "trial": 6, "serialpos": 0, "trial_type": "single-stim", "trial_index": 249, "time_elapsed": 1279818, "internal_node_id": "0.0-186.0"}}, {"uniqueid": "MTK1164:3QY7M81QH8TKB5S0YQUVUU91OCJ7K2", "current_trial": 250, "dateTime": 1513265638705, "trialdata": {"rt": -1, "stimulus": "<p id=\"stim\">CANDY</p>", "key_press": -1, "type": "PRES_VIS", "word": "candy", "wordID": 229, "conditions": [12, 800, "v", 24000], "trial": 6, "serialpos": 1, "trial_type": "single-stim", "trial_index": 250, "time_elapsed": 1281681, "internal_node_id": "0.0-187.0"}}, {"uniqueid": "MTK1164:3QY7M81QH8TKB5S0YQUVUU91OCJ7K2", "current_trial": 251, "dateTime": 1513265640488, "trialdata": {"rt": -1, "stimulus": "<p id=\"stim\">SEAL</p>", "key_press": -1, "type": "PRES_VIS", "word": "seal", "wordID": 1261, "conditions": [12, 800, "v", 24000], "trial": 6, "serialpos": 2, "trial_type": "single-stim", "trial_index": 251, "time_elapsed": 1283462, "internal_node_id": "0.0-188.0"}}, {"uniqueid": "MTK1164:3QY7M81QH8TKB5S0YQUVUU91OCJ7K2", "current_trial": 252, "dateTime": 1513265642294, "trialdata": {"rt": -1, "stimulus": "<p id=\"stim\">PARSLEY</p>", "key_press": -1, "type": "PRES_VIS", "word": "parsley", "wordID": 1015, "conditions": [12, 800, "v", 24000], "trial": 6, "serialpos": 3, "trial_type": "single-stim", "trial_index": 252, "time_elapsed": 1285270, "internal_node_id": "0.0-189.0"}}, {"uniqueid": "MTK1164:3QY7M81QH8TKB5S0YQUVUU91OCJ7K2", "current_trial": 253, "dateTime": 1513265643922, "trialdata": {"rt": -1, "stimulus": "<p id=\"stim\">CANYON</p>", "key_press": -1, "type": "PRES_VIS", "word": "canyon", "wordID": 234, "conditions": [12, 800, "v", 24000], "trial": 6, "serialpos": 4, "trial_type": "single-stim", "trial_index": 253, "time_elapsed": 1286898, "internal_node_id": "0.0-190.0"}}, {"uniqueid": "MTK1164:3QY7M81QH8TKB5S0YQUVUU91OCJ7K2", "current_trial": 254, "dateTime": 1513265645856, "trialdata": {"rt": -1, "stimulus": "<p id=\"stim\">QUEEN</p>", "key_press": -1, "type": "PRES_VIS", "word": "queen", "wordID": 1148, "conditions": [12, 800, "v", 24000], "trial": 6, "serialpos": 5, "trial_type": "single-stim", "trial_index": 254, "time_elapsed": 1288831, "internal_node_id": "0.0-191.0"}}, {"uniqueid": "MTK1164:3QY7M81QH8TKB5S0YQUVUU91OCJ7K2", "current_trial": 255, "dateTime": 1513265647673, "trialdata": {"rt": -1, "stimulus": "<p id=\"stim\">HANDBAG</p>", "key_press": -1, "type": "PRES_VIS", "word": "handbag", "wordID": 683, "conditions": [12, 800, "v", 24000], "trial": 6, "serialpos": 6, "trial_type": "single-stim", "trial_index": 255, "time_elapsed": 1290648, "internal_node_id": "0.0-192.0"}}, {"uniqueid": "MTK1164:3QY7M81QH8TKB5S0YQUVUU91OCJ7K2", "current_trial": 256, "dateTime": 1513265649487, "trialdata": {"rt": -1, "stimulus": "<p id=\"stim\">SAUSAGE</p>", "key_press": -1, "type": "PRES_VIS", "word": "sausage", "wordID": 1237, "conditions": [12, 800, "v", 24000], "trial": 6, "serialpos": 7, "trial_type": "single-stim", "trial_index": 256, "time_elapsed": 1292463, "internal_node_id": "0.0-193.0"}}, {"uniqueid": "MTK1164:3QY7M81QH8TKB5S0YQUVUU91OCJ7K2", "current_trial": 257, "dateTime": 1513265651138, "trialdata": {"rt": -1, "stimulus": "<p id=\"stim\">LETTUCE</p>", "key_press": -1, "type": "PRES_VIS", "word": "lettuce", "wordID": 813, "conditions": [12, 800, "v", 24000], "trial": 6, "serialpos": 8, "trial_type": "single-stim", "trial_index": 257, "time_elapsed": 1294113, "internal_node_id": "0.0-194.0"}}, {"uniqueid": "MTK1164:3QY7M81QH8TKB5S0YQUVUU91OCJ7K2", "current_trial": 258, "dateTime": 1513265652946, "trialdata": {"rt": -1, "stimulus": "<p id=\"stim\">BALLOON</p>", "key_press": -1, "type": "PRES_VIS", "word": "balloon", "wordID": 74, "conditions": [12, 800, "v", 24000], "trial": 6, "serialpos": 9, "trial_type": "single-stim", "trial_index": 258, "time_elapsed": 1295921, "internal_node_id": "0.0-195.0"}}, {"uniqueid": "MTK1164:3QY7M81QH8TKB5S0YQUVUU91OCJ7K2", "current_trial": 259, "dateTime": 1513265654598, "trialdata": {"rt": -1, "stimulus": "<p id=\"stim\">FRANCE</p>", "key_press": -1, "type": "PRES_VIS", "word": "france", "wordID": 600, "conditions": [12, 800, "v", 24000], "trial": 6, "serialpos": 10, "trial_type": "single-stim", "trial_index": 259, "time_elapsed": 1297573, "internal_node_id": "0.0-196.0"}}, {"uniqueid": "MTK1164:3QY7M81QH8TKB5S0YQUVUU91OCJ7K2", "current_trial": 260, "dateTime": 1513265656383, "trialdata": {"rt": -1, "stimulus": "<p id=\"stim\">JAPAN</p>", "key_press": -1, "type": "PRES_VIS", "word": "japan", "wordID": 748, "conditions": [12, 800, "v", 24000], "trial": 6, "serialpos": 11, "trial_type": "single-stim", "trial_index": 260, "time_elapsed": 1299359, "internal_node_id": "0.0-197.0"}}, {"uniqueid": "MTK1164:3QY7M81QH8TKB5S0YQUVUU91OCJ7K2", "current_trial": 261, "dateTime": 1513265658821, "trialdata": {"rt": -1, "stimulus": "", "key_press": -1, "type": "PRE_RECALL_DELAY", "trial_type": "single-stim", "trial_index": 261, "time_elapsed": 1301797, "internal_node_id": "0.0-198.0-0.0"}}, {"uniqueid": "MTK1164:3QY7M81QH8TKB5S0YQUVUU91OCJ7K2", "current_trial": 262, "dateTime": 1513265659328, "trialdata": {"rt": -1000, "stimulus": "/static/audio/400Hz.wav", "key_press": -1, "type": "PRE_RECALL_ALERT", "trial_type": "single-audio", "trial_index": 262, "time_elapsed": 1302303, "internal_node_id": "0.0-199.0"}}, {"uniqueid": "MTK1164:3QY7M81QH8TKB5S0YQUVUU91OCJ7K2", "current_trial": 263, "dateTime": 1513265719362, "trialdata": {"rt": [7380, 12512, 17025, 22791], "recwords": ["balloon", "japan", "candy", "queen"], "type": "FREE_RECALL", "conditions": [12, 800, "v", 24000], "trial": 6, "trial_type": "free-recall", "trial_index": 263, "time_elapsed": 1362330, "internal_node_id": "0.0-200.0-0.0"}}, {"uniqueid": "MTK1164:3QY7M81QH8TKB5S0YQUVUU91OCJ7K2", "current_trial": 264, "dateTime": 1513265731456, "trialdata": {"rt": 10088, "key_press": 32, "type": "INSTRUCTIONS", "trial_type": "text", "trial_index": 264, "time_elapsed": 1374431, "internal_node_id": "0.0-201.0"}}, {"uniqueid": "MTK1164:3QY7M81QH8TKB5S0YQUVUU91OCJ7K2", "current_trial": 265, "dateTime": 1513265745473, "trialdata": {"rt": [3403, 7487, 11856], "responses": ["18", "12", "8"], "num1": [8, 3, 1, 2], "num2": [4, 9, 2, 7], "num3": [6, 3, 5, 4], "type": "DISTRACTOR", "conditions": [12, 800, "a", 12000], "trial": 7, "trial_type": "math-distractor", "trial_index": 265, "time_elapsed": 1388448, "internal_node_id": "0.0-202.0"}}, {"uniqueid": "MTK1164:3QY7M81QH8TKB5S0YQUVUU91OCJ7K2", "current_trial": 266, "dateTime": 1513265748482, "trialdata": {"rt": -1, "stimulus": "<p id=\"stim\">10</p>", "key_press": -1, "trial_type": "single-stim", "trial_index": 266, "time_elapsed": 1391457, "internal_node_id": "0.0-203.0-0.0"}}, {"uniqueid": "MTK1164:3QY7M81QH8TKB5S0YQUVUU91OCJ7K2", "current_trial": 267, "dateTime": 1513265749484, "trialdata": {"rt": -1, "stimulus": "<p id=\"stim\">9</p>", "key_press": -1, "trial_type": "single-stim", "trial_index": 267, "time_elapsed": 1392460, "internal_node_id": "0.0-203.0-1.0"}}, {"uniqueid": "MTK1164:3QY7M81QH8TKB5S0YQUVUU91OCJ7K2", "current_trial": 268, "dateTime": 1513265750491, "trialdata": {"rt": -1, "stimulus": "<p id=\"stim\">8</p>", "key_press": -1, "trial_type": "single-stim", "trial_index": 268, "time_elapsed": 1393466, "internal_node_id": "0.0-203.0-2.0"}}, {"uniqueid": "MTK1164:3QY7M81QH8TKB5S0YQUVUU91OCJ7K2", "current_trial": 269, "dateTime": 1513265751501, "trialdata": {"rt": -1, "stimulus": "<p id=\"stim\">7</p>", "key_press": -1, "trial_type": "single-stim", "trial_index": 269, "time_elapsed": 1394476, "internal_node_id": "0.0-203.0-3.0"}}, {"uniqueid": "MTK1164:3QY7M81QH8TKB5S0YQUVUU91OCJ7K2", "current_trial": 270, "dateTime": 1513265752506, "trialdata": {"rt": -1, "stimulus": "<p id=\"stim\">6</p>", "key_press": -1, "trial_type": "single-stim", "trial_index": 270, "time_elapsed": 1395481, "internal_node_id": "0.0-203.0-4.0"}}, {"uniqueid": "MTK1164:3QY7M81QH8TKB5S0YQUVUU91OCJ7K2", "current_trial": 271, "dateTime": 1513265753511, "trialdata": {"rt": -1, "stimulus": "<p id=\"stim\">5</p>", "key_press": -1, "trial_type": "single-stim", "trial_index": 271, "time_elapsed": 1396486, "inte