{"assignmentId": "33FBRBDW6P66SLLVGI53KBSOWUQC87", "workerId": "MTK1357", "questiondata": {"origin": "United States", "strat-rehearsal": "86", "marital": "Married/Domestic Partnership", "education": "Bachelor's degree", "ethnicity": "Not Hispanic", "color_depth": 24, "distracted": "No", "wrote-notes": "No", "strat-other": "nothing ", "screen_width": 1366, "avail_screen_width": 1366, "avail_screen_height": 728, "strat-image": "90", "language": "English ", "gender": "Male", "age": "28", "gender_other": "", "race": ["White"], "strat-categorize": "44", "pixel_depth": 24, "strat-spatial": "96", "strat-story": "82", "race_other": "", "screen_height": 768}, "bonus": 0, "hitId": "3GL25Y684317TO00BD67EMI90JPMX5", "counterbalance": 1051, "useragent": "Mozilla/5.0 (Windows NT 6.1) AppleWebKit/537.36 (KHTML, like Gecko) Chrome/63.0.3239.132 Safari/537.36", "eventdata": [{"eventtype": "initialized", "interval": 0, "value": null, "timestamp": 1515809144885}, {"eventtype": "window_resize", "interval": 0, "value": [1366, 678], "timestamp": 1515809144885}, {"eventtype": "focus", "interval": 127247, "value": "off", "timestamp": 1515809272132}, {"eventtype": "focus", "interval": 9, "value": "on", "timestamp": 1515809272141}, {"eventtype": "focus", "interval": 12768, "value": "off", "timestamp": 1515809284909}, {"eventtype": "focus", "interval": 2, "value": "on", "timestamp": 1515809284911}, {"eventtype": "focus", "interval": 2446, "value": "off", "timestamp": 1515809287357}, {"eventtype": "focus", "interval": 5, "value": "on", "timestamp": 1515809287362}, {"eventtype": "focus", "interval": 76370, "value": "off", "timestamp": 1515809363732}, {"eventtype": "focus", "interval": 7, "value": "on", "timestamp": 1515809363739}, {"eventtype": "focus", "interval": 10641, "value": "off", "timestamp": 1515809374380}, {"eventtype": "focus", "interval": 3, "value": "on", "timestamp": 1515809374383}, {"eventtype": "focus", "interval": 10349, "value": "off", "timestamp": 1515809384732}, {"eventtype": "focus", "interval": 6, "value": "on", "timestamp": 1515809384738}, {"eventtype": "focus", "interval": 1068525, "value": "off", "timestamp": 1515810453263}, {"eventtype": "focus", "interval": 29344, "value": "on", "timestamp": 1515810482607}, {"eventtype": "focus", "interval": 141921, "value": "off", "timestamp": 1515810624528}, {"eventtype": "focus", "interval": 5961, "value": "on", "timestamp": 1515810630489}, {"eventtype": "focus", "interval": 1507101, "value": "off", "timestamp": 1515812137590}, {"eventtype": "focus", "interval": 27281, "value": "on", "timestamp": 1515812164871}, {"eventtype": "focus", "interval": 140248, "value": "off", "timestamp": 1515812305119}, {"eventtype": "focus", "interval": 4265, "value": "on", "timestamp": 1515812309384}, {"eventtype": "focus", "interval": 153156, "value": "off", "timestamp": 1515812462540}, {"eventtype": "focus", "interval": 2131, "value": "on", "timestamp": 1515812464671}], "data": [{"current_trial": 0, "trialdata": {"rt": 19300, "trial_type": "text", "internal_node_id": "0.0-0.0", "time_elapsed": 19308, "key_press": 75, "type": "INSTRUCTIONS", "trial_index": 0}, "uniqueid": "MTK1357:33FBRBDW6P66SLLVGI53KBSOWUQC87", "dateTime": 1515809216752}, {"current_trial": 1, "trialdata": {"rt": 8227, "trial_type": "text", "internal_node_id": "0.0-1.0", "time_elapsed": 27543, "key_press": 32, "type": "INSTRUCTIONS", "trial_index": 1}, "uniqueid": "MTK1357:33FBRBDW6P66SLLVGI53KBSOWUQC87", "dateTime": 1515809224984}, {"current_trial": 2, "trialdata": {"rt": [42320, 59642, 60631, 130040, 145928, 157224, 208537], "trial_type": "audio-test", "responses": ["ocan", "osan", "", "osan", "oshan", "ousen", "ocean"], "internal_node_id": "0.0-2.0", "time_elapsed": 236121, "type": "AUDIO_TEST", "trial_index": 2}, "uniqueid": "MTK1357:33FBRBDW6P66SLLVGI53KBSOWUQC87", "dateTime": 1515809433562}, {"current_trial": 3, "trialdata": {"rt": [26548], "trial_type": "audio-test", "responses": ["crystal"], "internal_node_id": "0.0-3.0", "time_elapsed": 262690, "type": "AUDIO_TEST", "trial_index": 3}, "uniqueid": "MTK1357:33FBRBDW6P66SLLVGI53KBSOWUQC87", "dateTime": 1515809460130}, {"current_trial": 4, "trialdata": {"rt": [19540], "trial_type": "audio-test", "responses": ["spice"], "internal_node_id": "0.0-4.0", "time_elapsed": 282249, "type": "AUDIO_TEST", "trial_index": 4}, "uniqueid": "MTK1357:33FBRBDW6P66SLLVGI53KBSOWUQC87", "dateTime": 1515809479689}, {"current_trial": 5, "trialdata": {"rt": 60238, "trial_type": "survey-text", "responses": "{\"Q0\":\"10pm\",\"Q1\":\"6am\",\"Q2\":\"5\"}", "internal_node_id": "0.0-5.0", "time_elapsed": 343246, "type": "SLEEP_SURVEY", "trial_index": 5}, "uniqueid": "MTK1357:33FBRBDW6P66SLLVGI53KBSOWUQC87", "dateTime": 1515809540687}, {"current_trial": 6, "trialdata": {"rt": 19581, "trial_type": "text", "internal_node_id": "0.0-6.0", "time_elapsed": 363829, "key_press": 32, "type": "INSTRUCTIONS", "trial_index": 6}, "uniqueid": "MTK1357:33FBRBDW6P66SLLVGI53KBSOWUQC87", "dateTime": 1515809561269}, {"current_trial": 7, "trialdata": {"rt": 21667, "trial_type": "text", "internal_node_id": "0.0-7.0", "time_elapsed": 385999, "key_press": 32, "type": "INSTRUCTIONS", "trial_index": 7}, "uniqueid": "MTK1357:33FBRBDW6P66SLLVGI53KBSOWUQC87", "dateTime": 1515809583439}, {"current_trial": 8, "trialdata": {"rt": 2017, "trial_type": "text", "internal_node_id": "0.0-8.0", "time_elapsed": 388517, "key_press": 32, "type": "INSTRUCTIONS", "trial_index": 8}, "uniqueid": "MTK1357:33FBRBDW6P66SLLVGI53KBSOWUQC87", "dateTime": 1515809585958}, {"current_trial": 9, "trialdata": {"rt": [8670, 12440, 16382], "trial_type": "math-distractor", "key_times": [7065, 8054, 8670, 11894, 12440, 16022, 16206, 16382], "responses": ["13", "8", "11"], "num2": [4, 1, 3, 2], "num3": [4, 1, 2, 7], "conditions": [18, 1200, "a", 18000], "internal_node_id": "0.0-9.0", "key_presses": [49, 51, 13, 56, 13, 49, 49, 13], "trial": 0, "time_elapsed": 407537, "type": "DISTRACTOR", "trial_index": 9, "num1": [5, 6, 6, 8]}, "uniqueid": "MTK1357:33FBRBDW6P66SLLVGI53KBSOWUQC87", "dateTime": 1515809604977}, {"current_trial": 10, "trialdata": {"rt": -1, "trial_type": "single-stim", "stimulus": "<p id=\"stim\">10</p>", "internal_node_id": "0.0-10.0-0.0", "time_elapsed": 410541, "key_press": -1, "trial_index": 10}, "uniqueid": "MTK1357:33FBRBDW6P66SLLVGI53KBSOWUQC87", "dateTime": 1515809607981}, {"current_trial": 11, "trialdata": {"rt": -1, "trial_type": "single-stim", "stimulus": "<p id=\"stim\">9</p>", "internal_node_id": "0.0-10.0-1.0", "time_elapsed": 411543, "key_press": -1, "trial_index": 11}, "uniqueid": "MTK1357:33FBRBDW6P66SLLVGI53KBSOWUQC87", "dateTime": 1515809608984}, {"current_trial": 12, "trialdata": {"rt": 956, "trial_type": "single-stim", "stimulus": "<p id=\"stim\">8</p>", "internal_node_id": "0.0-10.0-2.0", "time_elapsed": 412545, "key_press": 13, "trial_index": 12}, "uniqueid": "MTK1357:33FBRBDW6P66SLLVGI53KBSOWUQC87", "dateTime": 1515809609985}, {"current_trial": 13, "trialdata": {"rt": -1, "trial_type": "single-stim", "stimulus": "<p id=\"stim\">7</p>", "internal_node_id": "0.0-10.0-3.0", "time_elapsed": 413547, "key_press": -1, "trial_index": 13}, "uniqueid": "MTK1357:33FBRBDW6P66SLLVGI53KBSOWUQC87", "dateTime": 1515809610987}, {"current_trial": 14, "trialdata": {"rt": -1, "trial_type": "single-stim", "stimulus": "<p id=\"stim\">6</p>", "internal_node_id": "0.0-10.0-4.0", "time_elapsed": 414548, "key_press": -1, "trial_index": 14}, "uniqueid": "MTK1357:33FBRBDW6P66SLLVGI53KBSOWUQC87", "dateTime": 1515809611989}, {"current_trial": 15, "trialdata": {"rt": -1, "trial_type": "single-stim", "stimulus": "<p id=\"stim\">5</p>", "internal_node_id": "0.0-10.0-5.0", "time_elapsed": 415550, "key_press": -1, "trial_index": 15}, "uniqueid": "MTK1357:33FBRBDW6P66SLLVGI53KBSOWUQC87", "dateTime": 1515809612991}, {"current_trial": 16, "trialdata": {"rt": -1, "trial_type": "single-stim", "stimulus": "<p id=\"stim\">4</p>", "internal_node_id": "0.0-10.0-6.0", "time_elapsed": 416552, "key_press": -1, "trial_index": 16}, "uniqueid": "MTK1357:33FBRBDW6P66SLLVGI53KBSOWUQC87", "dateTime": 1515809613992}, {"current_trial": 17, "trialdata": {"rt": -1, "trial_type": "single-stim", "stimulus": "<p id=\"stim\">3</p>", "internal_node_id": "0.0-10.0-7.0", "time_elapsed": 417554, "key_press": -1, "trial_index": 17}, "uniqueid": "MTK1357:33FBRBDW6P66SLLVGI53KBSOWUQC87", "dateTime": 1515809614994}, {"current_trial": 18, "trialdata": {"rt": -1, "trial_type": "single-stim", "stimulus": "<p id=\"stim\">2</p>", "internal_node_id": "0.0-10.0-8.0", "time_elapsed": 418556, "key_press": -1, "trial_index": 18}, "uniqueid": "MTK1357:33FBRBDW6P66SLLVGI53KBSOWUQC87", "dateTime": 1515809615996}, {"current_trial": 19, "trialdata": {"rt": -1, "trial_type": "single-stim", "stimulus": "<p id=\"stim\">1</p>", "internal_node_id": "0.0-10.0-9.0", "time_elapsed": 419561, "key_press": -1, "trial_index": 19}, "uniqueid": "MTK1357:33FBRBDW6P66SLLVGI53KBSOWUQC87", "dateTime": 1515809617001}, {"current_trial": 20, "trialdata": {"rt": -1, "trial_type": "single-stim", "stimulus": "<p id=\"stim\">+</p>", "internal_node_id": "0.0-11.0-0.0", "time_elapsed": 421063, "key_press": -1, "type": "FIXATION", "trial_index": 20}, "uniqueid": "MTK1357:33FBRBDW6P66SLLVGI53KBSOWUQC87", "dateTime": 1515809618504}, {"current_trial": 21, "trialdata": {"rt": -1000, "trial_type": "single-audio", "word": "crevice", "stimulus": "/static/audio/wordpool/CREVICE.wav", "conditions": [18, 1200, "a", 18000], "internal_node_id": "0.0-12.0", "trial": 0, "time_elapsed": 423418, "serialpos": 0, "key_press": -1, "wordID": 404, "type": "PRES_AUD", "trial_index": 21}, "uniqueid": "MTK1357:33FBRBDW6P66SLLVGI53KBSOWUQC87", "dateTime": 1515809620858}, {"current_trial": 22, "trialdata": {"rt": -1000, "trial_type": "single-audio", "word": "crib", "stimulus": "/static/audio/wordpool/CRIB.wav", "conditions": [18, 1200, "a", 18000], "internal_node_id": "0.0-13.0", "trial": 0, "time_elapsed": 425718, "serialpos": 1, "key_press": -1, "wordID": 406, "type": "PRES_AUD", "trial_index": 22}, "uniqueid": "MTK1357:33FBRBDW6P66SLLVGI53KBSOWUQC87", "dateTime": 1515809623158}, {"current_trial": 23, "trialdata": {"rt": -1000, "trial_type": "single-audio", "word": "hatchet", "stimulus": "/static/audio/wordpool/HATCHET.wav", "conditions": [18, 1200, "a", 18000], "internal_node_id": "0.0-14.0", "trial": 0, "time_elapsed": 427741, "serialpos": 2, "key_press": -1, "wordID": 690, "type": "PRES_AUD", "trial_index": 23}, "uniqueid": "MTK1357:33FBRBDW6P66SLLVGI53KBSOWUQC87", "dateTime": 1515809625182}, {"current_trial": 24, "trialdata": {"rt": -1000, "trial_type": "single-audio", "word": "sculpture", "stimulus": "/static/audio/wordpool/SCULPTURE.wav", "conditions": [18, 1200, "a", 18000], "internal_node_id": "0.0-15.0", "trial": 0, "time_elapsed": 429843, "serialpos": 3, "key_press": -1, "wordID": 1257, "type": "PRES_AUD", "trial_index": 24}, "uniqueid": "MTK1357:33FBRBDW6P66SLLVGI53KBSOWUQC87", "dateTime": 1515809627284}, {"current_trial": 25, "trialdata": {"rt": -1000, "trial_type": "single-audio", "word": "atlas", "stimulus": "/static/audio/wordpool/ATLAS.wav", "conditions": [18, 1200, "a", 18000], "internal_node_id": "0.0-16.0", "trial": 0, "time_elapsed": 431935, "serialpos": 4, "key_press": -1, "wordID": 52, "type": "PRES_AUD", "trial_index": 25}, "uniqueid": "MTK1357:33FBRBDW6P66SLLVGI53KBSOWUQC87", "dateTime": 1515809629375}, {"current_trial": 26, "trialdata": {"rt": -1000, "trial_type": "single-audio", "word": "swimmer", "stimulus": "/static/audio/wordpool/SWIMMER.wav", "conditions": [18, 1200, "a", 18000], "internal_node_id": "0.0-17.0", "trial": 0, "time_elapsed": 434193, "serialpos": 5, "key_press": -1, "wordID": 1419, "type": "PRES_AUD", "trial_index": 26}, "uniqueid": "MTK1357:33FBRBDW6P66SLLVGI53KBSOWUQC87", "dateTime": 1515809631634}, {"current_trial": 27, "trialdata": {"rt": -1000, "trial_type": "single-audio", "word": "dust", "stimulus": "/static/audio/wordpool/DUST.wav", "conditions": [18, 1200, "a", 18000], "internal_node_id": "0.0-18.0", "trial": 0, "time_elapsed": 436240, "serialpos": 6, "key_press": -1, "wordID": 507, "type": "PRES_AUD", "trial_index": 27}, "uniqueid": "MTK1357:33FBRBDW6P66SLLVGI53KBSOWUQC87", "dateTime": 1515809633680}, {"current_trial": 28, "trialdata": {"rt": -1000, "trial_type": "single-audio", "word": "loft", "stimulus": "/static/audio/wordpool/LOFT.wav", "conditions": [18, 1200, "a", 18000], "internal_node_id": "0.0-19.0", "trial": 0, "time_elapsed": 438462, "serialpos": 7, "key_press": -1, "wordID": 839, "type": "PRES_AUD", "trial_index": 28}, "uniqueid": "MTK1357:33FBRBDW6P66SLLVGI53KBSOWUQC87", "dateTime": 1515809635902}, {"current_trial": 29, "trialdata": {"rt": -1000, "trial_type": "single-audio", "word": "victim", "stimulus": "/static/audio/wordpool/VICTIM.wav", "conditions": [18, 1200, "a", 18000], "internal_node_id": "0.0-20.0", "trial": 0, "time_elapsed": 440718, "serialpos": 8, "key_press": -1, "wordID": 1561, "type": "PRES_AUD", "trial_index": 29}, "uniqueid": "MTK1357:33FBRBDW6P66SLLVGI53KBSOWUQC87", "dateTime": 1515809638159}, {"current_trial": 30, "trialdata": {"rt": -1000, "trial_type": "single-audio", "word": "lapel", "stimulus": "/static/audio/wordpool/LAPEL.wav", "conditions": [18, 1200, "a", 18000], "internal_node_id": "0.0-21.0", "trial": 0, "time_elapsed": 442831, "serialpos": 9, "key_press": -1, "wordID": 799, "type": "PRES_AUD", "trial_index": 30}, "uniqueid": "MTK1357:33FBRBDW6P66SLLVGI53KBSOWUQC87", "dateTime": 1515809640271}, {"current_trial": 31, "trialdata": {"rt": -1000, "trial_type": "single-audio", "word": "hornet", "stimulus": "/static/audio/wordpool/HORNET.wav", "conditions": [18, 1200, "a", 18000], "internal_node_id": "0.0-22.0", "trial": 0, "time_elapsed": 444878, "serialpos": 10, "key_press": -1, "wordID": 717, "type": "PRES_AUD", "trial_index": 31}, "uniqueid": "MTK1357:33FBRBDW6P66SLLVGI53KBSOWUQC87", "dateTime": 1515809642318}, {"current_trial": 32, "trialdata": {"rt": -1000, "trial_type": "single-audio", "word": "staple", "stimulus": "/static/audio/wordpool/STAPLE.wav", "conditions": [18, 1200, "a", 18000], "internal_node_id": "0.0-23.0", "trial": 0, "time_elapsed": 446889, "serialpos": 11, "key_press": -1, "wordID": 1370, "type": "PRES_AUD", "trial_index": 32}, "uniqueid": "MTK1357:33FBRBDW6P66SLLVGI53KBSOWUQC87", "dateTime": 1515809644330}, {"current_trial": 33, "trialdata": {"rt": -1000, "trial_type": "single-audio", "word": "belly", "stimulus": "/static/audio/wordpool/BELLY.wav", "conditions": [18, 1200, "a", 18000], "internal_node_id": "0.0-24.0", "trial": 0, "time_elapsed": 449058, "serialpos": 12, "key_press": -1, "wordID": 118, "type": "PRES_AUD", "trial_index": 33}, "uniqueid": "MTK1357:33FBRBDW6P66SLLVGI53KBSOWUQC87", "dateTime": 1515809646498}, {"current_trial": 34, "trialdata": {"rt": -1000, "trial_type": "single-audio", "word": "badge", "stimulus": "/static/audio/wordpool/BADGE.wav", "conditions": [18, 1200, "a", 18000], "internal_node_id": "0.0-25.0", "trial": 0, "time_elapsed": 451146, "serialpos": 13, "key_press": -1, "wordID": 67, "type": "PRES_AUD", "trial_index": 34}, "uniqueid": "MTK1357:33FBRBDW6P66SLLVGI53KBSOWUQC87", "dateTime": 1515809648586}, {"current_trial": 35, "trialdata": {"rt": -1000, "trial_type": "single-audio", "word": "pigeon", "stimulus": "/static/audio/wordpool/PIGEON.wav", "conditions": [18, 1200, "a", 18000], "internal_node_id": "0.0-26.0", "trial": 0, "time_elapsed": 453523, "serialpos": 14, "key_press": -1, "wordID": 1064, "type": "PRES_AUD", "trial_index": 35}, "uniqueid": "MTK1357:33FBRBDW6P66SLLVGI53KBSOWUQC87", "dateTime": 1515809650963}, {"current_trial": 36, "trialdata": {"rt": -1000, "trial_type": "single-audio", "word": "blueprint", "stimulus": "/static/audio/wordpool/BLUEPRINT.wav", "conditions": [18, 1200, "a", 18000], "internal_node_id": "0.0-27.0", "trial": 0, "time_elapsed": 455720, "serialpos": 15, "key_press": -1, "wordID": 141, "type": "PRES_AUD", "trial_index": 36}, "uniqueid": "MTK1357:33FBRBDW6P66SLLVGI53KBSOWUQC87", "dateTime": 1515809653160}, {"current_trial": 37, "trialdata": {"rt": -1000, "trial_type": "single-audio", "word": "chauffeur", "stimulus": "/static/audio/wordpool/CHAUFFEUR.wav", "conditions": [18, 1200, "a", 18000], "internal_node_id": "0.0-28.0", "trial": 0, "time_elapsed": 457756, "serialpos": 16, "key_press": -1, "wordID": 282, "type": "PRES_AUD", "trial_index": 37}, "uniqueid": "MTK1357:33FBRBDW6P66SLLVGI53KBSOWUQC87", "dateTime": 1515809655197}, {"current_trial": 38, "trialdata": {"rt": -1000, "trial_type": "single-audio", "word": "concert", "stimulus": "/static/audio/wordpool/CONCERT.wav", "conditions": [18, 1200, "a", 18000], "internal_node_id": "0.0-29.0", "trial": 0, "time_elapsed": 459902, "serialpos": 17, "key_press": -1, "wordID": 359, "type": "PRES_AUD", "trial_index": 38}, "uniqueid": "MTK1357:33FBRBDW6P66SLLVGI53KBSOWUQC87", "dateTime": 1515809657342}, {"current_trial": 39, "trialdata": {"rt": -1, "trial_type": "single-stim", "stimulus": "", "internal_node_id": "0.0-30.0-0.0", "time_elapsed": 461180, "key_press": -1, "type": "PRE_RECALL_DELAY", "trial_index": 39}, "uniqueid": "MTK1357:33FBRBDW6P66SLLVGI53KBSOWUQC87", "dateTime": 1515809658620}, {"current_trial": 40, "trialdata": {"rt": -1000, "trial_type": "single-audio", "stimulus": "/static/audio/400Hz.wav", "internal_node_id": "0.0-31.0", "time_elapsed": 461684, "key_press": -1, "type": "PRE_RECALL_ALERT", "trial_index": 40}, "uniqueid": "MTK1357:33FBRBDW6P66SLLVGI53KBSOWUQC87", "dateTime": 1515809659124}, {"current_trial": 41, "trialdata": {"rt": [13498, 20043, 23114, 31026, 31690, 37259, 41523, 46882, 52811, 56203], "recwords": ["12", "like", "mast", "xel", "", "fame", "light", "wrong", "flik", "some"], "key_times": [11576, 11858, 13498, 18539, 19131, 19347, 19706, 20043, 21648, 21994, 22260, 22683, 23114, 28881, 29530, 30258, 31026, 31690, 35626, 36219, 36507, 36979, 37259, 39371, 39787, 40602, 40810, 41227, 41523, 43780, 44242, 44581, 45170, 46378, 46882, 50090, 51539, 52131, 52427, 52811, 54749, 55171, 55563, 55867, 56203], "trial_type": "free-recall", "conditions": [18, 1200, "a", 18000], "internal_node_id": "0.0-32.0-0.0", "key_presses": [49, 50, 13, 76, 73, 75, 69, 13, 77, 65, 83, 84, 13, 88, 69, 76, 13, 13, 70, 65, 77, 69, 13, 76, 73, 71, 72, 84, 13, 87, 82, 79, 78, 71, 13, 70, 76, 73, 75, 13, 83, 79, 77, 69, 13], "trial": 0, "time_elapsed": 521693, "type": "FREE_RECALL", "trial_index": 41}, "uniqueid": "MTK1357:33FBRBDW6P66SLLVGI53KBSOWUQC87", "dateTime": 1515809719145}, {"current_trial": 42, "trialdata": {"rt": 2861, "trial_type": "text", "internal_node_id": "0.0-33.0", "time_elapsed": 526567, "key_press": 32, "type": "INSTRUCTIONS", "trial_index": 42}, "uniqueid": "MTK1357:33FBRBDW6P66SLLVGI53KBSOWUQC87", "dateTime": 1515809724007}, {"current_trial": 43, "trialdata": {"rt": [4122, 7498, 11393, 15809], "trial_type": "math-distractor", "key_times": [3090, 4122, 7122, 7338, 7498, 9515, 11058, 11393, 15057, 15649, 15809], "responses": ["5", "12", "15", "17"], "num2": [2, 5, 9, 6, 4], "num3": [2, 5, 5, 9, 9], "conditions": [18, 1200, "a", 18000], "internal_node_id": "0.0-34.0", "key_presses": [53, 13, 49, 50, 13, 49, 53, 13, 49, 55, 13], "trial": 1, "time_elapsed": 546574, "type": "DISTRACTOR", "trial_index": 43, "num1": [1, 2, 1, 2, 5]}, "uniqueid": "MTK1357:33FBRBDW6P66SLLVGI53KBSOWUQC87", "dateTime": 1515809744015}, {"current_trial": 44, "trialdata": {"rt": -1, "trial_type": "single-stim", "stimulus": "<p id=\"stim\">10</p>", "internal_node_id": "0.0-35.0-0.0", "time_elapsed": 549576, "key_press": -1, "trial_index": 44}, "uniqueid": "MTK1357:33FBRBDW6P66SLLVGI53KBSOWUQC87", "dateTime": 1515809747017}, {"current_trial": 45, "trialdata": {"rt": -1, "trial_type": "single-stim", "stimulus": "<p id=\"stim\">9</p>", "internal_node_id": "0.0-35.0-1.0", "time_elapsed": 550578, "key_press": -1, "trial_index": 45}, "uniqueid": "MTK1357:33FBRBDW6P66SLLVGI53KBSOWUQC87", "dateTime": 1515809748018}, {"current_trial": 46, "trialdata": {"rt": -1, "trial_type": "single-stim", "stimulus": "<p id=\"stim\">8</p>", "internal_node_id": "0.0-35.0-2.0", "time_elapsed": 551580, "key_press": -1, "trial_index": 46}, "uniqueid": "MTK1357:33FBRBDW6P66SLLVGI53KBSOWUQC87", "dateTime": 1515809749020}, {"current_trial": 47, "trialdata": {"rt": -1, "trial_type": "single-stim", "stimulus": "<p id=\"stim\">7</p>", "internal_node_id": "0.0-35.0-3.0", "time_elapsed": 552582, "key_press": -1, "trial_index": 47}, "uniqueid": "MTK1357:33FBRBDW6P66SLLVGI53KBSOWUQC87", "dateTime": 1515809750023}, {"current_trial": 48, "trialdata": {"rt": -1, "trial_type": "single-stim", "stimulus": "<p id=\"stim\">6</p>", "internal_node_id": "0.0-35.0-4.0", "time_elapsed": 553584, "key_press": -1, "trial_index": 48}, "uniqueid": "MTK1357:33FBRBDW6P66SLLVGI53KBSOWUQC87", "dateTime": 1515809751024}, {"current_trial": 49, "trialdata": {"rt": -1, "trial_type": "single-stim", "stimulus": "<p id=\"stim\">5</p>", "internal_node_id": "0.0-35.0-5.0", "time_elapsed": 554586, "key_press": -1, "trial_index": 49}, "uniqueid": "MTK1357:33FBRBDW6P66SLLVGI53KBSOWUQC87", "dateTime": 1515809752026}, {"current_trial": 50, "trialdata": {"rt": -1, "trial_type": "single-stim", "stimulus": "<p id=\"stim\">4</p>", "internal_node_id": "0.0-35.0-6.0", "time_elapsed": 555588, "key_press": -1, "trial_index": 50}, "uniqueid": "MTK1357:33FBRBDW6P66SLLVGI53KBSOWUQC87", "dateTime": 1515809753028}, {"current_trial": 51, "trialdata": {"rt": -1, "trial_type": "single-stim", "stimulus": "<p id=\"stim\">3</p>", "internal_node_id": "0.0-35.0-7.0", "time_elapsed": 556590, "key_press": -1, "trial_index": 51}, "uniqueid": "MTK1357:33FBRBDW6P66SLLVGI53KBSOWUQC87", "dateTime": 1515809754030}, {"current_trial": 52, "trialdata": {"rt": -1, "trial_type": "single-stim", "stimulus": "<p id=\"stim\">2</p>", "internal_node_id": "0.0-35.0-8.0", "time_elapsed": 557592, "key_press": -1, "trial_index": 52}, "uniqueid": "MTK1357:33FBRBDW6P66SLLVGI53KBSOWUQC87", "dateTime": 1515809755033}, {"current_trial": 53, "trialdata": {"rt": -1, "trial_type": "single-stim", "stimulus": "<p id=\"stim\">1</p>", "internal_node_id": "0.0-35.0-9.0", "time_elapsed": 558594, "key_press": -1, "trial_index": 53}, "uniqueid": "MTK1357:33FBRBDW6P66SLLVGI53KBSOWUQC87", "dateTime": 1515809756034}, {"current_trial": 54, "trialdata": {"rt": -1, "trial_type": "single-stim", "stimulus": "<p id=\"stim\">+</p>", "internal_node_id": "0.0-36.0-0.0", "time_elapsed": 560096, "key_press": -1, "type": "FIXATION", "trial_index": 54}, "uniqueid": "MTK1357:33FBRBDW6P66SLLVGI53KBSOWUQC87", "dateTime": 1515809757537}, {"current_trial": 55, "trialdata": {"rt": -1000, "trial_type": "single-audio", "word": "atom", "stimulus": "/static/audio/wordpool/ATOM.wav", "conditions": [18, 1200, "a", 18000], "internal_node_id": "0.0-37.0", "trial": 1, "time_elapsed": 562455, "serialpos": 0, "key_press": -1, "wordID": 54, "type": "PRES_AUD", "trial_index": 55}, "uniqueid": "MTK1357:33FBRBDW6P66SLLVGI53KBSOWUQC87", "dateTime": 1515809759896}, {"current_trial": 56, "trialdata": {"rt": -1000, "trial_type": "single-audio", "word": "pigment", "stimulus": "/static/audio/wordpool/PIGMENT.wav", "conditions": [18, 1200, "a", 18000], "internal_node_id": "0.0-38.0", "trial": 1, "time_elapsed": 564825, "serialpos": 1, "key_press": -1, "wordID": 1065, "type": "PRES_AUD", "trial_index": 56}, "uniqueid": "MTK1357:33FBRBDW6P66SLLVGI53KBSOWUQC87", "dateTime": 1515809762266}, {"current_trial": 57, "trialdata": {"rt": -1000, "trial_type": "single-audio", "word": "antler", "stimulus": "/static/audio/wordpool/ANTLER.wav", "conditions": [18, 1200, "a", 18000], "internal_node_id": "0.0-39.0", "trial": 1, "time_elapsed": 567099, "serialpos": 2, "key_press": -1, "wordID": 28, "type": "PRES_AUD", "trial_index": 57}, "uniqueid": "MTK1357:33FBRBDW6P66SLLVGI53KBSOWUQC87", "dateTime": 1515809764540}, {"current_trial": 58, "trialdata": {"rt": -1000, "trial_type": "single-audio", "word": "ground", "stimulus": "/static/audio/wordpool/GROUND.wav", "conditions": [18, 1200, "a", 18000], "internal_node_id": "0.0-40.0", "trial": 1, "time_elapsed": 569440, "serialpos": 3, "key_press": -1, "wordID": 665, "type": "PRES_AUD", "trial_index": 58}, "uniqueid": "MTK1357:33FBRBDW6P66SLLVGI53KBSOWUQC87", "dateTime": 1515809766881}, {"current_trial": 59, "trialdata": {"rt": -1000, "trial_type": "single-audio", "word": "crab", "stimulus": "/static/audio/wordpool/CRAB.wav", "conditions": [18, 1200, "a", 18000], "internal_node_id": "0.0-41.0", "trial": 1, "time_elapsed": 571749, "serialpos": 4, "key_press": -1, "wordID": 396, "type": "PRES_AUD", "trial_index": 59}, "uniqueid": "MTK1357:33FBRBDW6P66SLLVGI53KBSOWUQC87", "dateTime": 1515809769190}, {"current_trial": 60, "trialdata": {"rt": -1000, "trial_type": "single-audio", "word": "flag", "stimulus": "/static/audio/wordpool/FLAG.wav", "conditions": [18, 1200, "a", 18000], "internal_node_id": "0.0-42.0", "trial": 1, "time_elapsed": 574066, "serialpos": 5, "key_press": -1, "wordID": 572, "type": "PRES_AUD", "trial_index": 60}, "uniqueid": "MTK1357:33FBRBDW6P66SLLVGI53KBSOWUQC87", "dateTime": 1515809771507}, {"current_trial": 61, "trialdata": {"rt": -1000, "trial_type": "single-audio", "word": "stove", "stimulus": "/static/audio/wordpool/STOVE.wav", "conditions": [18, 1200, "a", 18000], "internal_node_id": "0.0-43.0", "trial": 1, "time_elapsed": 576411, "serialpos": 6, "key_press": -1, "wordID": 1387, "type": "PRES_AUD", "trial_index": 61}, "uniqueid": "MTK1357:33FBRBDW6P66SLLVGI53KBSOWUQC87", "dateTime": 1515809773852}, {"current_trial": 62, "trialdata": {"rt": -1000, "trial_type": "single-audio", "word": "piston", "stimulus": "/static/audio/wordpool/PISTON.wav", "conditions": [18, 1200, "a", 18000], "internal_node_id": "0.0-44.0", "trial": 1, "time_elapsed": 578496, "serialpos": 7, "key_press": -1, "wordID": 1075, "type": "PRES_AUD", "trial_index": 62}, "uniqueid": "MTK1357:33FBRBDW6P66SLLVGI53KBSOWUQC87", "dateTime": 1515809775936}, {"current_trial": 63, "trialdata": {"rt": -1000, "trial_type": "single-audio", "word": "salad", "stimulus": "/static/audio/wordpool/SALAD.wav", "conditions": [18, 1200, "a", 18000], "internal_node_id": "0.0-45.0", "trial": 1, "time_elapsed": 580717, "serialpos": 8, "key_press": -1, "wordID": 1223, "type": "PRES_AUD", "trial_index": 63}, "uniqueid": "MTK1357:33FBRBDW6P66SLLVGI53KBSOWUQC87", "dateTime": 1515809778158}, {"current_trial": 64, "trialdata": {"rt": -1000, "trial_type": "single-audio", "word": "truck", "stimulus": "/static/audio/wordpool/TRUCK.wav", "conditions": [18, 1200, "a", 18000], "internal_node_id": "0.0-46.0", "trial": 1, "time_elapsed": 582956, "serialpos": 9, "key_press": -1, "wordID": 1511, "type": "PRES_AUD", "trial_index": 64}, "uniqueid": "MTK1357:33FBRBDW6P66SLLVGI53KBSOWUQC87", "dateTime": 1515809780397}, {"current_trial": 65, "trialdata": {"rt": -1000, "trial_type": "single-audio", "word": "headband", "stimulus": "/static/audio/wordpool/HEADBAND.wav", "conditions": [18, 1200, "a", 18000], "internal_node_id": "0.0-47.0", "trial": 1, "time_elapsed": 585307, "serialpos": 10, "key_press": -1, "wordID": 695, "type": "PRES_AUD", "trial_index": 65}, "uniqueid": "MTK1357:33FBRBDW6P66SLLVGI53KBSOWUQC87", "dateTime": 1515809782747}, {"current_trial": 66, "trialdata": {"rt": -1000, "trial_type": "single-audio", "word": "crutch", "stimulus": "/static/audio/wordpool/CRUTCH.wav", "conditions": [18, 1200, "a", 18000], "internal_node_id": "0.0-48.0", "trial": 1, "time_elapsed": 587518, "serialpos": 11, "key_press": -1, "wordID": 416, "type": "PRES_AUD", "trial_index": 66}, "uniqueid": "MTK1357:33FBRBDW6P66SLLVGI53KBSOWUQC87", "dateTime": 1515809784958}, {"current_trial": 67, "trialdata": {"rt": -1000, "trial_type": "single-audio", "word": "mattress", "stimulus": "/static/audio/wordpool/MATTRESS.wav", "conditions": [18, 1200, "a", 18000], "internal_node_id": "0.0-49.0", "trial": 1, "time_elapsed": 589811, "serialpos": 12, "key_press": -1, "wordID": 878, "type": "PRES_AUD", "trial_index": 67}, "uniqueid": "MTK1357:33FBRBDW6P66SLLVGI53KBSOWUQC87", "dateTime": 1515809787252}, {"current_trial": 68, "trialdata": {"rt": -1000, "trial_type": "single-audio", "word": "japan", "stimulus": "/static/audio/wordpool/JAPAN.wav", "conditions": [18, 1200, "a", 18000], "internal_node_id": "0.0-50.0", "trial": 1, "time_elapsed": 592139, "serialpos": 13, "key_press": -1, "wordID": 748, "type": "PRES_AUD", "trial_index": 68}, "uniqueid": "MTK1357:33FBRBDW6P66SLLVGI53KBSOWUQC87", "dateTime": 1515809789587}, {"current_trial": 69, "trialdata": {"rt": -1000, "trial_type": "single-audio", "word": "hiker", "stimulus": "/static/audio/wordpool/HIKER.wav", "conditions": [18, 1200, "a", 18000], "internal_node_id": "0.0-51.0", "trial": 1, "time_elapsed": 594156, "serialpos": 14, "key_press": -1, "wordID": 707, "type": "PRES_AUD", "trial_index": 69}, "uniqueid": "MTK1357:33FBRBDW6P66SLLVGI53KBSOWUQC87", "dateTime": 1515809791597}, {"current_trial": 70, "trialdata": {"rt": -1000, "trial_type": "single-audio", "word": "blade", "stimulus": "/static/audio/wordpool/BLADE.wav", "conditions": [18, 1200, "a", 18000], "internal_node_id": "0.0-52.0", "trial": 1, "time_elapsed": 596283, "serialpos": 15, "key_press": -1, "wordID": 133, "type": "PRES_AUD", "trial_index": 70}, "uniqueid": "MTK1357:33FBRBDW6P66SLLVGI53KBSOWUQC87", "dateTime": 1515809793724}, {"current_trial": 71, "trialdata": {"rt": -1000, "trial_type": "single-audio", "word": "asia", "stimulus": "/static/audio/wordpool/ASIA.wav", "conditions": [18, 1200, "a", 18000], "internal_node_id": "0.0-53.0", "trial": 1, "time_elapsed": 598639, "serialpos": 16, "key_press": -1, "wordID": 45, "type": "PRES_AUD", "trial_index": 71}, "uniqueid": "MTK1357:33FBRBDW6P66SLLVGI53KBSOWUQC87", "dateTime": 1515809796080}, {"current_trial": 72, "trialdata": {"rt": -1000, "trial_type": "single-audio", "word": "flashlight", "stimulus": "/static/audio/wordpool/FLASHLIGHT.wav", "conditions": [18, 1200, "a", 18000], "internal_node_id": "0.0-54.0", "trial": 1, "time_elapsed": 600883, "serialpos": 17, "key_press": -1, "wordID": 574, "type": "PRES_AUD", "trial_index": 72}, "uniqueid": "MTK1357:33FBRBDW6P66SLLVGI53KBSOWUQC87", "dateTime": 1515809798323}, {"current_trial": 73, "trialdata": {"rt": -1, "trial_type": "single-stim", "stimulus": "", "internal_node_id": "0.0-55.0-0.0", "time_elapsed": 602151, "key_press": -1, "type": "PRE_RECALL_DELAY", "trial_index": 73}, "uniqueid": "MTK1357:33FBRBDW6P66SLLVGI53KBSOWUQC87", "dateTime": 1515809799592}, {"current_trial": 74, "trialdata": {"rt": -1000, "trial_type": "single-audio", "stimulus": "/static/audio/400Hz.wav", "internal_node_id": "0.0-56.0", "time_elapsed": 602653, "key_press": -1, "type": "PRE_RECALL_ALERT", "trial_index": 74}, "uniqueid": "MTK1357:33FBRBDW6P66SLLVGI53KBSOWUQC87", "dateTime": 1515809800093}, {"current_trial": 75, "trialdata": {"rt": [5497, 10449, 21426, 31680, 44225, 50915], "recwords": ["atom", "japan", "pigmat", "mattress", "store", "bike"], "key_times": [2213, 2898, 3090, 3858, 5497, 8370, 8762, 9121, 9321, 9970, 10449, 12986, 13521, 14640, 16618, 17010, 17322, 19761, 19970, 20370, 20931, 21426, 26003, 26681, 28680, 28864, 29129, 29985, 30753, 30938, 31680, 40491, 40913, 42418, 43202, 43441, 44225, 48441, 48890, 49321, 49962, 50915], "trial_type": "free-recall", "conditions": [18, 1200, "a", 18000], "internal_node_id": "0.0-57.0-0.0", "key_presses": [65, 84, 79, 77, 13, 74, 65, 80, 65, 78, 13, 80, 73, 71, 77, 69, 84, 8, 8, 65, 84, 13, 77, 65, 84, 84, 82, 69, 83, 83, 13, 83, 84, 79, 82, 69, 13, 66, 73, 75, 69, 13], "trial": 1, "time_elapsed": 662662, "type": "FREE_RECALL", "trial_index": 75}, "uniqueid": "MTK1357:33FBRBDW6P66SLLVGI53KBSOWUQC87", "dateTime": 1515809860110}, {"current_trial": 76, "trialdata": {"rt": 7471, "trial_type": "text", "internal_node_id": "0.0-58.0", "time_elapsed": 672144, "key_press": 32, "type": "INSTRUCTIONS", "trial_index": 76}, "uniqueid": "MTK1357:33FBRBDW6P66SLLVGI53KBSOWUQC87", "dateTime": 1515809869584}, {"current_trial": 77, "trialdata": {"rt": [5912, 8976], "trial_type": "math-distractor", "key_times": [4737, 5489, 5912, 8448, 8784, 8976, 11881], "responses": ["18", "13"], "num2": [4, 2, 5], "num3": [8, 2, 2], "conditions": [24, 1600, "a", 12000], "internal_node_id": "0.0-59.0", "key_presses": [49, 56, 13, 49, 51, 13, 56], "trial": 2, "time_elapsed": 685151, "type": "DISTRACTOR", "trial_index": 77, "num1": [8, 9, 1]}, "uniqueid": "MTK1357:33FBRBDW6P66SLLVGI53KBSOWUQC87", "dateTime": 1515809882591}, {"current_trial": 78, "trialdata": {"rt": -1, "trial_type": "single-stim", "stimulus": "<p id=\"stim\">10</p>", "internal_node_id": "0.0-60.0-0.0", "time_elapsed": 688152, "key_press": -1, "trial_index": 78}, "uniqueid": "MTK1357:33FBRBDW6P66SLLVGI53KBSOWUQC87", "dateTime": 1515809885592}, {"current_trial": 79, "trialdata": {"rt": -1, "trial_type": "single-stim", "stimulus": "<p id=\"stim\">9</p>", "internal_node_id": "0.0-60.0-1.0", "time_elapsed": 689154, "key_press": -1, "trial_index": 79}, "uniqueid": "MTK1357:33FBRBDW6P66SLLVGI53KBSOWUQC87", "dateTime": 1515809886594}, {"current_trial": 80, "trialdata": {"rt": -1, "trial_type": "single-stim", "stimulus": "<p id=\"stim\">8</p>", "internal_node_id": "0.0-60.0-2.0", "time_elapsed": 690156, "key_press": -1, "trial_index": 80}, "uniqueid": "MTK1357:33FBRBDW6P66SLLVGI53KBSOWUQC87", "dateTime": 1515809887596}, {"current_trial": 81, "trialdata": {"rt": -1, "trial_type": "single-stim", "stimulus": "<p id=\"stim\">7</p>", "internal_node_id": "0.0-60.0-3.0", "time_elapsed": 691158, "key_press": -1, "trial_index": 81}, "uniqueid": "MTK1357:33FBRBDW6P66SLLVGI53KBSOWUQC87", "dateTime": 1515809888598}, {"current_trial": 82, "trialdata": {"rt": -1, "trial_type": "single-stim", "stimulus": "<p id=\"stim\">6</p>", "internal_node_id": "0.0-60.0-4.0", "time_elapsed": 692160, "key_press": -1, "trial_index": 82}, "uniqueid": "MTK1357:33FBRBDW6P66SLLVGI53KBSOWUQC87", "dateTime": 1515809889600}, {"current_trial": 83, "trialdata": {"rt": -1, "trial_type": "single-stim", "stimulus": "<p id=\"stim\">5</p>", "internal_node_id": "0.0-60.0-5.0", "time_elapsed": 693162, "key_press": -1, "trial_index": 83}, "uniqueid": "MTK1357:33FBRBDW6P66SLLVGI53KBSOWUQC87", "dateTime": 1515809890602}, {"current_trial": 84, "trialdata": {"rt": -1, "trial_type": "single-stim", "stimulus": "<p id=\"stim\">4</p>", "internal_node_id": "0.0-60.0-6.0", "time_elapsed": 694164, "key_press": -1, "trial_index": 84}, "uniqueid": "MTK1357:33FBRBDW6P66SLLVGI53KBSOWUQC87", "dateTime": 1515809891604}, {"current_trial": 85, "trialdata": {"rt": -1, "trial_type": "single-stim", "stimulus": "<p id=\"stim\">3</p>", "internal_node_id": "0.0-60.0-7.0", "time_elapsed": 695167, "key_press": -1, "trial_index": 85}, "uniqueid": "MTK1357:33FBRBDW6P66SLLVGI53KBSOWUQC87", "dateTime": 1515809892607}, {"current_trial": 86, "trialdata": {"rt": -1, "trial_type": "single-stim", "stimulus": "<p id=\"stim\">2</p>", "internal_node_id": "0.0-60.0-8.0", "time_elapsed": 696168, "key_press": -1, "trial_index": 86}, "uniqueid": "MTK1357:33FBRBDW6P66SLLVGI53KBSOWUQC87", "dateTime": 1515809893608}, {"current_trial": 87, "trialdata": {"rt": -1, "trial_type": "single-stim", "stimulus": "<p id=\"stim\">1</p>", "internal_node_id": "0.0-60.0-9.0", "time_elapsed": 697171, "key_press": -1, "trial_index": 87}, "uniqueid": "MTK1357:33FBRBDW6P66SLLVGI53KBSOWUQC87", "dateTime": 1515809894611}, {"current_trial": 88, "trialdata": {"rt": -1, "trial_type": "single-stim", "stimulus": "<p id=\"stim\">+</p>", "internal_node_id": "0.0-61.0-0.0", "time_elapsed": 698673, "key_press": -1, "type": "FIXATION", "trial_index": 88}, "uniqueid": "MTK1357:33FBRBDW6P66SLLVGI53KBSOWUQC87", "dateTime": 1515809896113}, {"current_trial": 89, "trialdata": {"rt": -1000, "trial_type": "single-audio", "word": "pimple", "stimulus": "/static/audio/wordpool/PIMPLE.wav", "conditions": [24, 1600, "a", 12000], "internal_node_id": "0.0-62.0", "trial": 2, "time_elapsed": 701338, "serialpos": 0, "key_press": -1, "wordID": 1070, "type": "PRES_AUD", "trial_index": 89}, "uniqueid": "MTK1357:33FBRBDW6P66SLLVGI53KBSOWUQC87", "dateTime": 1515809898779}, {"current_trial": 90, "trialdata": {"rt": -1000, "trial_type": "single-audio", "word": "stomach", "stimulus": "/static/audio/wordpool/STOMACH.wav", "conditions": [24, 1600, "a", 12000], "internal_node_id": "0.0-63.0", "trial": 2, "time_elapsed": 703845, "serialpos": 1, "key_press": -1, "wordID": 1383, "type": "PRES_AUD", "trial_index": 90}, "uniqueid": "MTK1357:33FBRBDW6P66SLLVGI53KBSOWUQC87", "dateTime": 1515809901285}, {"current_trial": 91, "trialdata": {"rt": -1000, "trial_type": "single-audio", "word": "penguin", "stimulus": "/static/audio/wordpool/PENGUIN.wav", "conditions": [24, 1600, "a", 12000], "internal_node_id": "0.0-64.0", "trial": 2, "time_elapsed": 706524, "serialpos": 2, "key_press": -1, "wordID": 1043, "type": "PRES_AUD", "trial_index": 91}, "uniqueid": "MTK1357:33FBRBDW6P66SLLVGI53KBSOWUQC87", "dateTime": 1515809903964}, {"current_trial": 92, "trialdata": {"rt": -1000, "trial_type": "single-audio", "word": "pilot", "stimulus": "/static/audio/wordpool/PILOT.wav", "conditions": [24, 1600, "a", 12000], "internal_node_id": "0.0-65.0", "trial": 2, "time_elapsed": 709318, "serialpos": 3, "key_press": -1, "wordID": 1069, "type": "PRES_AUD", "trial_index": 92}, "uniqueid": "MTK1357:33FBRBDW6P66SLLVGI53KBSOWUQC87", "dateTime": 1515809906758}, {"current_trial": 93, "trialdata": {"rt": -1000, "trial_type": "single-audio", "word": "puppy", "stimulus": "/static/audio/wordpool/PUPPY.wav", "conditions": [24, 1600, "a", 12000], "internal_node_id": "0.0-66.0", "trial": 2, "time_elapsed": 711743, "serialpos": 4, "key_press": -1, "wordID": 1143, "type": "PRES_AUD", "trial_index": 93}, "uniqueid": "MTK1357:33FBRBDW6P66SLLVGI53KBSOWUQC87", "dateTime": 1515809909184}, {"current_trial": 94, "trialdata": {"rt": -1000, "trial_type": "single-audio", "word": "baby", "stimulus": "/static/audio/wordpool/BABY.wav", "conditions": [24, 1600, "a", 12000], "internal_node_id": "0.0-67.0", "trial": 2, "time_elapsed": 714165, "serialpos": 5, "key_press": -1, "wordID": 63, "type": "PRES_AUD", "trial_index": 94}, "uniqueid": "MTK1357:33FBRBDW6P66SLLVGI53KBSOWUQC87", "dateTime": 1515809911605}, {"current_trial": 95, "trialdata": {"rt": -1000, "trial_type": "single-audio", "word": "drug", "stimulus": "/static/audio/wordpool/DRUG.wav", "conditions": [24, 1600, "a", 12000], "internal_node_id": "0.0-68.0", "trial": 2, "time_elapsed": 716671, "serialpos": 6, "key_press": -1, "wordID": 500, "type": "PRES_AUD", "trial_index": 95}, "uniqueid": "MTK1357:33FBRBDW6P66SLLVGI53KBSOWUQC87", "dateTime": 1515809914111}, {"current_trial": 96, "trialdata": {"rt": -1000, "trial_type": "single-audio", "word": "cupboard", "stimulus": "/static/audio/wordpool/CUPBOARD.wav", "conditions": [24, 1600, "a", 12000], "internal_node_id": "0.0-69.0", "trial": 2, "time_elapsed": 719358, "serialpos": 7, "key_press": -1, "wordID": 424, "type": "PRES_AUD", "trial_index": 96}, "uniqueid": "MTK1357:33FBRBDW6P66SLLVGI53KBSOWUQC87", "dateTime": 1515809916798}, {"current_trial": 97, "trialdata": {"rt": -1000, "trial_type": "single-audio", "word": "freckle", "stimulus": "/static/audio/wordpool/FRECKLE.wav", "conditions": [24, 1600, "a", 12000], "internal_node_id": "0.0-70.0", "trial": 2, "time_elapsed": 721809, "serialpos": 8, "key_press": -1, "wordID": 601, "type": "PRES_AUD", "trial_index": 97}, "uniqueid": "MTK1357:33FBRBDW6P66SLLVGI53KBSOWUQC87", "dateTime": 1515809919250}, {"current_trial": 98, "trialdata": {"rt": -1000, "trial_type": "single-audio", "word": "dandruff", "stimulus": "/static/audio/wordpool/DANDRUFF.wav", "conditions": [24, 1600, "a", 12000], "internal_node_id": "0.0-71.0", "trial": 2, "time_elapsed": 724412, "serialpos": 9, "key_press": -1, "wordID": 438, "type": "PRES_AUD", "trial_index": 98}, "uniqueid": "MTK1357:33FBRBDW6P66SLLVGI53KBSOWUQC87", "dateTime": 1515809921852}, {"current_trial": 99, "trialdata": {"rt": -1000, "trial_type": "single-audio", "word": "liver", "stimulus": "/static/audio/wordpool/LIVER.wav", "conditions": [24, 1600, "a", 12000], "internal_node_id": "0.0-72.0", "trial": 2, "time_elapsed": 727097, "serialpos": 10, "key_press": -1, "wordID": 832, "type": "PRES_AUD", "trial_index": 99}, "uniqueid": "MTK1357:33FBRBDW6P66SLLVGI53KBSOWUQC87", "dateTime": 1515809924537}, {"current_trial": 100, "trialdata": {"rt": -1000, "trial_type": "single-audio", "word": "lagoon", "stimulus": "/static/audio/wordpool/LAGOON.wav", "conditions": [24, 1600, "a", 12000], "internal_node_id": "0.0-73.0", "trial": 2, "time_elapsed": 729632, "serialpos": 11, "key_press": -1, "wordID": 794, "type": "PRES_AUD", "trial_index": 100}, "uniqueid": "MTK1357:33FBRBDW6P66SLLVGI53KBSOWUQC87", "dateTime": 1515809927072}, {"current_trial": 101, "trialdata": {"rt": -1000, "trial_type": "single-audio", "word": "leg", "stimulus": "/static/audio/wordpool/LEG.wav", "conditions": [24, 1600, "a", 12000], "internal_node_id": "0.0-74.0", "trial": 2, "time_elapsed": 732177, "serialpos": 12, "key_press": -1, "wordID": 808, "type": "PRES_AUD", "trial_index": 101}, "uniqueid": "MTK1357:33FBRBDW6P66SLLVGI53KBSOWUQC87", "dateTime": 1515809929617}, {"current_trial": 102, "trialdata": {"rt": -1000, "trial_type": "single-audio", "word": "postage", "stimulus": "/static/audio/wordpool/POSTAGE.wav", "conditions": [24, 1600, "a", 12000], "internal_node_id": "0.0-75.0", "trial": 2, "time_elapsed": 734896, "serialpos": 13, "key_press": -1, "wordID": 1112, "type": "PRES_AUD", "trial_index": 102}, "uniqueid": "MTK1357:33FBRBDW6P66SLLVGI53KBSOWUQC87", "dateTime": 1515809932337}, {"current_trial": 103, "trialdata": {"rt": -1000, "trial_type": "single-audio", "word": "cross", "stimulus": "/static/audio/wordpool/CROSS.wav", "conditions": [24, 1600, "a", 12000], "internal_node_id": "0.0-76.0", "trial": 2, "time_elapsed": 737359, "serialpos": 14, "key_press": -1, "wordID": 412, "type": "PRES_AUD", "trial_index": 103}, "uniqueid": "MTK1357:33FBRBDW6P66SLLVGI53KBSOWUQC87", "dateTime": 1515809934800}, {"current_trial": 104, "trialdata": {"rt": -1000, "trial_type": "single-audio", "word": "foot", "stimulus": "/static/audio/wordpool/FOOT.wav", "conditions": [24, 1600, "a", 12000], "internal_node_id": "0.0-77.0", "trial": 2, "time_elapsed": 739778, "serialpos": 15, "key_press": -1, "wordID": 589, "type": "PRES_AUD", "trial_index": 104}, "uniqueid": "MTK1357:33FBRBDW6P66SLLVGI53KBSOWUQC87", "dateTime": 1515809937219}, {"current_trial": 105, "trialdata": {"rt": -1000, "trial_type": "single-audio", "word": "gallon", "stimulus": "/static/audio/wordpool/GALLON.wav", "conditions": [24, 1600, "a", 12000], "internal_node_id": "0.0-78.0", "trial": 2, "time_elapsed": 742470, "serialpos": 16, "key_press": -1, "wordID": 617, "type": "PRES_AUD", "trial_index": 105}, "uniqueid": "MTK1357:33FBRBDW6P66SLLVGI53KBSOWUQC87", "dateTime": 1515809939910}, {"current_trial": 106, "trialdata": {"rt": -1000, "trial_type": "single-audio", "word": "elbow", "stimulus": "/static/audio/wordpool/ELBOW.wav", "conditions": [24, 1600, "a", 12000], "internal_node_id": "0.0-79.0", "trial": 2, "time_elapsed": 744910, "serialpos": 17, "key_press": -1, "wordID": 519, "type": "PRES_AUD", "trial_index": 106}, "uniqueid": "MTK1357:33FBRBDW6P66SLLVGI53KBSOWUQC87", "dateTime": 1515809942350}, {"current_trial": 107, "trialdata": {"rt": -1000, "trial_type": "single-audio", "word": "parsley", "stimulus": "/static/audio/wordpool/PARSLEY.wav", "conditions": [24, 1600, "a", 12000], "internal_node_id": "0.0-80.0", "trial": 2, "time_elapsed": 747474, "serialpos": 18, "key_press": -1, "wordID": 1015, "type": "PRES_AUD", "trial_index": 107}, "uniqueid": "MTK1357:33FBRBDW6P66SLLVGI53KBSOWUQC87", "dateTime": 1515809944914}, {"current_trial": 108, "trialdata": {"rt": -1000, "trial_type": "single-audio", "word": "pasta", "stimulus": "/static/audio/wordpool/PASTA.wav", "conditions": [24, 1600, "a", 12000], "internal_node_id": "0.0-81.0", "trial": 2, "time_elapsed": 750082, "serialpos": 19, "key_press": -1, "wordID": 1020, "type": "PRES_AUD", "trial_index": 108}, "uniqueid": "MTK1357:33FBRBDW6P66SLLVGI53KBSOWUQC87", "dateTime": 1515809947523}, {"current_trial": 109, "trialdata": {"rt": -1000, "trial_type": "single-audio", "word": "gift", "stimulus": "/static/audio/wordpool/GIFT.wav", "conditions": [24, 1600, "a", 12000], "internal_node_id": "0.0-82.0", "trial": 2, "time_elapsed": 752600, "serialpos": 20, "key_press": -1, "wordID": 634, "type": "PRES_AUD", "trial_index": 109}, "uniqueid": "MTK1357:33FBRBDW6P66SLLVGI53KBSOWUQC87", "dateTime": 1515809950041}, {"current_trial": 110, "trialdata": {"rt": -1000, "trial_type": "single-audio", "word": "creature", "stimulus": "/static/audio/wordpool/CREATURE.wav", "conditions": [24, 1600, "a", 12000], "internal_node_id": "0.0-83.0", "trial": 2, "time_elapsed": 755277, "serialpos": 21, "key_press": -1, "wordID": 402, "type": "PRES_AUD", "trial_index": 110}, "uniqueid": "MTK1357:33FBRBDW6P66SLLVGI53KBSOWUQC87", "dateTime": 1515809952718}, {"current_trial": 111, "trialdata": {"rt": -1000, "trial_type": "single-audio", "word": "mars", "stimulus": "/static/audio/wordpool/MARS.wav", "conditions": [24, 1600, "a", 12000], "internal_node_id": "0.0-84.0", "trial": 2, "time_elapsed": 757689, "serialpos": 22, "key_press": -1, "wordID": 872, "type": "PRES_AUD", "trial_index": 111}, "uniqueid": "MTK1357:33FBRBDW6P66SLLVGI53KBSOWUQC87", "dateTime": 1515809955129}, {"current_trial": 112, "trialdata": {"rt": -1000, "trial_type": "single-audio", "word": "freezer", "stimulus": "/static/audio/wordpool/FREEZER.wav", "conditions": [24, 1600, "a", 12000], "internal_node_id": "0.0-85.0", "trial": 2, "time_elapsed": 760325, "serialpos": 23, "key_press": -1, "wordID": 603, "type": "PRES_AUD", "trial_index": 112}, "uniqueid": "MTK1357:33FBRBDW6P66SLLVGI53KBSOWUQC87", "dateTime": 1515809957767}, {"current_trial": 113, "trialdata": {"rt": -1, "trial_type": "single-stim", "stimulus": "", "internal_node_id": "0.0-86.0-0.0", "time_elapsed": 761569, "key_press": -1, "type": "PRE_RECALL_DELAY", "trial_index": 113}, "uniqueid": "MTK1357:33FBRBDW6P66SLLVGI53KBSOWUQC87", "dateTime": 1515809959009}, {"current_trial": 114, "trialdata": {"rt": -1000, "trial_type": "single-audio", "stimulus": "/static/audio/400Hz.wav", "internal_node_id": "0.0-87.0", "time_elapsed": 762070, "key_press": -1, "type": "PRE_RECALL_ALERT", "trial_index": 114}, "uniqueid": "MTK1357:33FBRBDW6P66SLLVGI53KBSOWUQC87", "dateTime": 1515809959510}, {"current_trial": 115, "trialdata": {"rt": [15747, 25698, 29739, 40819], "recwords": ["horse", "posted", "baby", "temple"], "key_times": [10250, 11378, 13322, 14483, 14755, 15747, 21924, 22188, 23499, 23979, 24297, 24515, 25698, 27778, 28298, 28947, 29283, 29739, 31860, 32236, 34164, 35140, 39180, 39779, 40819], "trial_type": "free-recall", "conditions": [24, 1600, "a", 12000], "internal_node_id": "0.0-88.0-0.0", "key_presses": [72, 79, 82, 83, 69, 13, 80, 79, 83, 84, 69, 68, 13, 66, 65, 66, 89, 13, 84, 69, 77, 80, 76, 69, 13], "trial": 2, "time_elapsed": 822077, "type": "FREE_RECALL", "trial_index": 115}, "uniqueid": "MTK1357:33FBRBDW6P66SLLVGI53KBSOWUQC87", "dateTime": 1515810019527}, {"current_trial": 116, "trialdata": {"rt": 16992, "trial_type": "text", "internal_node_id": "0.0-89.0", "time_elapsed": 841080, "key_press": 32, "type": "INSTRUCTIONS", "trial_index": 116}, "uniqueid": "MTK1357:33FBRBDW6P66SLLVGI53KBSOWUQC87", "dateTime": 1515810038520}, {"current_trial": 117, "trialdata": {"rt": [5746, 11592, 14464, 20121, 20620, 20653, 20686, 20719, 20752, 20785, 20818, 20851, 20884, 20917, 20950, 20983, 21016, 21049, 21082, 21115, 21148, 21181, 21214, 21247, 21280, 21313], "trial_type": "math-distractor", "key_times": [3314, 5474, 5746, 11266, 11472, 11592, 13704, 14224, 14464, 17200, 17832, 20121, 20620, 20653, 20686, 20719, 20752, 20785, 20818, 20851, 20884, 20917, 20950, 20983, 21016, 21049, 21082, 21115, 21148, 21181, 21214, 21247, 21280, 21313], "responses": ["26", "12", "15", "15", "", "", "", "", "", "", "", "", "", "", "", "", "", "", "", "", "", "", "", "", "", ""], "num2": [9, 6, 5, 4, 2, 6, 4, 5, 9, 9, 2, 7, 3, 1, 7, 2, 7, 5, 9, 5, 4, 4, 4, 5, 3, 3, 8], "num3": [9, 4, 9, 3, 3, 7, 4, 9, 5, 2, 1, 3, 2, 7, 4, 7, 2, 3, 9, 4, 3, 9, 9, 4, 9, 2, 1], "conditions": [12, 1600, "a", 24000], "internal_node_id": "0.0-90.0", "key_presses": [50, 54, 13, 49, 50, 13, 49, 53, 13, 49, 53, 13, 13, 13, 13, 13, 13, 13, 13, 13, 13, 13, 13, 13, 13, 13, 13, 13, 13, 13, 13, 13, 13, 13], "trial": 3, "time_elapsed": 867085, "type": "DISTRACTOR", "trial_index": 117, "num1": [8, 2, 1, 8, 8, 7, 1, 5, 9, 5, 3, 6, 5, 6, 6, 3, 5, 9, 5, 9, 3, 8, 8, 7, 7, 2, 1]}, "uniqueid": "MTK1357:33FBRBDW6P66SLLVGI53KBSOWUQC87", "dateTime": 1515810064525}, {"current_trial": 118, "trialdata": {"rt": -1, "trial_type": "single-stim", "stimulus": "<p id=\"stim\">10</p>", "internal_node_id": "0.0-91.0-0.0", "time_elapsed": 870087, "key_press": -1, "trial_index": 118}, "uniqueid": "MTK1357:33FBRBDW6P66SLLVGI53KBSOWUQC87", "dateTime": 1515810067527}, {"current_trial": 119, "trialdata": {"rt": -1, "trial_type": "single-stim", "stimulus": "<p id=\"stim\">9</p>", "internal_node_id": "0.0-91.0-1.0", "time_elapsed": 871090, "key_press": -1, "trial_index": 119}, "uniqueid": "MTK1357:33FBRBDW6P66SLLVGI53KBSOWUQC87", "dateTime": 1515810068530}, {"current_trial": 120, "trialdata": {"rt": -1, "trial_type": "single-stim", "stimulus": "<p id=\"stim\">8</p>", "internal_node_id": "0.0-91.0-2.0", "time_elapsed": 872092, "key_press": -1, "trial_index": 120}, "uniqueid": "MTK1357:33FBRBDW6P66SLLVGI53KBSOWUQC87", "dateTime": 1515810069532}, {"current_trial": 121, "trialdata": {"rt": -1, "trial_type": "single-stim", "stimulus": "<p id=\"stim\">7</p>", "internal_node_id": "0.0-91.0-3.0", "time_elapsed": 873094, "key_press": -1, "trial_index": 121}, "uniqueid": "MTK1357:33FBRBDW6P66SLLVGI53KBSOWUQC87", "dateTime": 1515810070534}, {"current_trial": 122, "trialdata": {"rt": -1, "trial_type": "single-stim", "stimulus": "<p id=\"stim\">6</p>", "internal_node_id": "0.0-91.0-4.0", "time_elapsed": 874096, "key_press": -1, "trial_index": 122}, "uniqueid": "MTK1357:33FBRBDW6P66SLLVGI53KBSOWUQC87", "dateTime": 1515810071536}, {"current_trial": 123, "trialdata": {"rt": -1, "trial_type": "single-stim", "stimulus": "<p id=\"stim\">5</p>", "internal_node_id": "0.0-91.0-5.0", "time_elapsed": 875098, "key_press": -1, "trial_index": 123}, "uniqueid": "MTK1357:33FBRBDW6P66SLLVGI53KBSOWUQC87", "dateTime": 1515810072539}, {"current_trial": 124, "trialdata": {"rt": -1, "trial_type": "single-stim", "stimulus": "<p id=\"stim\">4</p>", "internal_node_id": "0.0-91.0-6.0", "time_elapsed": 876100, "key_press": -1, "trial_index": 124}, "uniqueid": "MTK1357:33FBRBDW6P66SLLVGI53KBSOWUQC87", "dateTime": 1515810073540}, {"current_trial": 125, "trialdata": {"rt": -1, "trial_type": "single-stim", "stimulus": "<p id=\"stim\">3</p>", "internal_node_id": "0.0-91.0-7.0", "time_elapsed": 877102, "key_press": -1, "trial_index": 125}, "uniqueid": "MTK1357:33FBRBDW6P66SLLVGI53KBSOWUQC87", "dateTime": 1515810074542}, {"current_trial": 126, "trialdata": {"rt": -1, "trial_type": "single-stim", "stimulus": "<p id=\"stim\">2</p>", "internal_node_id": "0.0-91.0-8.0", "time_elapsed": 878104, "key_press": -1, "trial_index": 126}, "uniqueid": "MTK1357:33FBRBDW6P66SLLVGI53KBSOWUQC87", "dateTime": 1515810075545}, {"current_trial": 127, "trialdata": {"rt": -1, "trial_type": "single-stim", "stimulus": "<p id=\"stim\">1</p>", "internal_node_id": "0.0-91.0-9.0", "time_elapsed": 879106, "key_press": -1, "trial_index": 127}, "uniqueid": "MTK1357:33FBRBDW6P66SLLVGI53KBSOWUQC87", "dateTime": 1515810076547}, {"current_trial": 128, "trialdata": {"rt": -1, "trial_type": "single-stim", "stimulus": "<p id=\"stim\">+</p>", "internal_node_id": "0.0-92.0-0.0", "time_elapsed": 880609, "key_press": -1, "type": "FIXATION", "trial_index": 128}, "uniqueid": "MTK1357:33FBRBDW6P66SLLVGI53KBSOWUQC87", "dateTime": 1515810078052}, {"current_trial": 129, "trialdata": {"rt": -1000, "trial_type": "single-audio", "word": "pliers", "stimulus": "/static/audio/wordpool/PLIERS.wav", "conditions": [12, 1600, "a", 24000], "internal_node_id": "0.0-93.0", "trial": 3, "time_elapsed": 883309, "serialpos": 0, "key_press": -1, "wordID": 1088, "type": "PRES_AUD", "trial_index": 129}, "uniqueid": "MTK1357:33FBRBDW6P66SLLVGI53KBSOWUQC87", "dateTime": 1515810080750}, {"current_trial": 130, "trialdata": {"rt": -1000, "trial_type": "single-audio", "word": "money", "stimulus": "/static/audio/wordpool/MONEY.wav", "conditions": [12, 1600, "a", 24000], "internal_node_id": "0.0-94.0", "trial": 3, "time_elapsed": 885760, "serialpos": 1, "key_press": -1, "wordID": 907, "type": "PRES_AUD", "trial_index": 130}, "uniqueid": "MTK1357:33FBRBDW6P66SLLVGI53KBSOWUQC87", "dateTime": 1515810083200}, {"current_trial": 131, "trialdata": {"rt": -1000, "trial_type": "single-audio", "word": "jello", "stimulus": "/static/audio/wordpool/JELLO.wav", "conditions": [12, 1600, "a", 24000], "internal_node_id": "0.0-95.0", "trial": 3, "time_elapsed": 888428, "serialpos": 2, "key_press": -1, "wordID": 753, "type": "PRES_AUD", "trial_index": 131}, "uniqueid": "MTK1357:33FBRBDW6P66SLLVGI53KBSOWUQC87", "dateTime": 1515810085869}, {"current_trial": 132, "trialdata": {"rt": -1000, "trial_type": "single-audio", "word": "blouse", "stimulus": "/static/audio/wordpool/BLOUSE.wav", "conditions": [12, 1600, "a", 24000], "internal_node_id": "0.0-96.0", "trial": 3, "time_elapsed": 891041, "serialpos": 3, "key_press": -1, "wordID": 138, "type": "PRES_AUD", "trial_index": 132}, "uniqueid": "MTK1357:33FBRBDW6P66SLLVGI53KBSOWUQC87", "dateTime": 1515810088481}, {"current_trial": 133, "trialdata": {"rt": -1000, "trial_type": "single-audio", "word": "nightgown", "stimulus": "/static/audio/wordpool/NIGHTGOWN.wav", "conditions": [12, 1600, "a", 24000], "internal_node_id": "0.0-97.0", "trial": 3, "time_elapsed": 893598, "serialpos": 4, "key_press": -1, "wordID": 952, "type": "PRES_AUD", "trial_index": 133}, "uniqueid": "MTK1357:33FBRBDW6P66SLLVGI53KBSOWUQC87", "dateTime": 1515810091039}, {"current_trial": 134, "trialdata": {"rt": -1000, "trial_type": "single-audio", "word": "bug", "stimulus": "/static/audio/wordpool/BUG.wav", "conditions": [12, 1600, "a", 24000], "internal_node_id": "0.0-98.0", "trial": 3, "time_elapsed": 896128, "serialpos": 5, "key_press": -1, "wordID": 186, "type": "PRES_AUD", "trial_index": 134}, "uniqueid": "MTK1357:33FBRBDW6P66SLLVGI53KBSOWUQC87", "dateTime": 1515810093569}, {"current_trial": 135, "trialdata": {"rt": -1000, "trial_type": "single-audio", "word": "handbag", "stimulus": "/static/audio/wordpool/HANDBAG.wav", "conditions": [12, 1600, "a", 24000], "internal_node_id": "0.0-99.0", "trial": 3, "time_elapsed": 898534, "serialpos": 6, "key_press": -1, "wordID": 683, "type": "PRES_AUD", "trial_index": 135}, "uniqueid": "MTK1357:33FBRBDW6P66SLLVGI53KBSOWUQC87", "dateTime": 1515810095975}, {"current_trial": 136, "trialdata": {"rt": -1000, "trial_type": "single-audio", "word": "icing", "stimulus": "/static/audio/wordpool/ICING.wav", "conditions": [12, 1600, "a", 24000], "internal_node_id": "0.0-100.0", "trial": 3, "time_elapsed": 900945, "serialpos": 7, "key_press": -1, "wordID": 731, "type": "PRES_AUD", "trial_index": 136}, "uniqueid": "MTK1357:33FBRBDW6P66SLLVGI53KBSOWUQC87", "dateTime": 1515810098386}, {"current_trial": 137, "trialdata": {"rt": -1000, "trial_type": "single-audio", "word": "egypt", "stimulus": "/static/audio/wordpool/EGYPT.wav", "conditions": [12, 1600, "a", 24000], "internal_node_id": "0.0-101.0", "trial": 3, "time_elapsed": 903467, "serialpos": 8, "key_press": -1, "wordID": 518, "type": "PRES_AUD", "trial_index": 137}, "uniqueid": "MTK1357:33FBRBDW6P66SLLVGI53KBSOWUQC87", "dateTime": 1515810100908}, {"current_trial": 138, "trialdata": {"rt": -1000, "trial_type": "single-audio", "word": "scissors", "stimulus": "/static/audio/wordpool/SCISSORS.wav", "conditions": [12, 1600, "a", 24000], "internal_node_id": "0.0-102.0", "trial": 3, "time_elapsed": 905934, "serialpos": 9, "key_press": -1, "wordID": 1249, "type": "PRES_AUD", "trial_index": 138}, "uniqueid": "MTK1357:33FBRBDW6P66SLLVGI53KBSOWUQC87", "dateTime": 1515810103374}, {"current_trial": 139, "trialdata": {"rt": -1000, "trial_type": "single-audio", "word": "grill", "stimulus": "/static/audio/wordpool/GRILL.wav", "conditions": [12, 1600, "a", 24000], "internal_node_id": "0.0-103.0", "trial": 3, "time_elapsed": 908394, "serialpos": 10, "key_press": -1, "wordID": 660, "type": "PRES_AUD", "trial_index": 139}, "uniqueid": "MTK1357:33FBRBDW6P66SLLVGI53KBSOWUQC87", "dateTime": 1515810105834}, {"current_trial": 140, "trialdata": {"rt": -1000, "trial_type": "single-audio", "word": "switch", "stimulus": "/static/audio/wordpool/SWITCH.wav", "conditions": [12, 1600, "a", 24000], "internal_node_id": "0.0-104.0", "trial": 3, "time_elapsed": 911156, "serialpos": 11, "key_press": -1, "wordID": 1421, "type": "PRES_AUD", "trial_index": 140}, "uniqueid": "MTK1357:33FBRBDW6P66SLLVGI53KBSOWUQC87", "dateTime": 1515810108596}, {"current_trial": 141, "trialdata": {"rt": -1, "trial_type": "single-stim", "stimulus": "", "internal_node_id": "0.0-105.0-0.0", "time_elapsed": 912475, "key_press": -1, "type": "PRE_RECALL_DELAY", "trial_index": 141}, "uniqueid": "MTK1357:33FBRBDW6P66SLLVGI53KBSOWUQC87", "dateTime": 1515810109915}, {"current_trial": 142, "trialdata": {"rt": -1000, "trial_type": "single-audio", "stimulus": "/static/audio/400Hz.wav", "internal_node_id": "0.0-106.0", "time_elapsed": 912977, "key_press": -1, "type": "PRE_RECALL_ALERT", "trial_index": 142}, "uniqueid": "MTK1357:33FBRBDW6P66SLLVGI53KBSOWUQC87", "dateTime": 1515810110417}, {"current_trial": 143, "trialdata": {"rt": [12047, 21376, 28055], "recwords": ["switch", "temple", "wires"], "key_times": [5978, 6608, 8320, 9544, 10359, 11064, 12047, 16649, 17047, 18207, 18839, 19640, 20560, 21376, 23592, 25472, 25984, 27304, 27527, 28055], "trial_type": "free-recall", "conditions": [12, 1600, "a", 24000], "internal_node_id": "0.0-107.0-0.0", "key_presses": [83, 87, 73, 84, 67, 72, 13, 84, 69, 77, 80, 76, 69, 13, 87, 73, 82, 69, 83, 13], "trial": 3, "time_elapsed": 972984, "type": "FREE_RECALL", "trial_index": 143}, "uniqueid": "MTK1357:33FBRBDW6P66SLLVGI53KBSOWUQC87", "dateTime": 1515810170437}, {"current_trial": 144, "trialdata": {"rt": 1303, "trial_type": "text", "internal_node_id": "0.0-108.0", "time_elapsed": 976302, "key_press": 32, "type": "INSTRUCTIONS", "trial_index": 144}, "uniqueid": "MTK1357:33FBRBDW6P66SLLVGI53KBSOWUQC87", "dateTime": 1515810173742}, {"current_trial": 145, "trialdata": {"rt": [3635, 7691, 10739, 17002, 20698, 23546], "trial_type": "math-distractor", "key_times": [2650, 3338, 3635, 6499, 7507, 7691, 10093, 10475, 10739, 15682, 16819, 17002, 19162, 20516, 20698, 23026, 23291, 23546], "responses": ["15", "18", "13", "19", "18", "13"], "num2": [4, 7, 6, 7, 8, 9, 1], "num3": [5, 3, 3, 4, 9, 2, 2], "conditions": [24, 1600, "a", 24000], "internal_node_id": "0.0-109.0", "key_presses": [49, 53, 13, 49, 56, 13, 49, 51, 13, 49, 57, 13, 49, 56, 13, 49, 51, 13], "trial": 4, "time_elapsed": 1002309, "type": "DISTRACTOR", "trial_index": 145, "num1": [6, 8, 4, 8, 1, 2, 8]}, "uniqueid": "MTK1357:33FBRBDW6P66SLLVGI53KBSOWUQC87", "dateTime": 1515810199750}, {"current_trial": 146, "trialdata": {"rt": -1, "trial_type": "single-stim", "stimulus": "<p id=\"stim\">10</p>", "internal_node_id": "0.0-110.0-0.0", "time_elapsed": 1005311, "key_press": -1, "trial_index": 146}, "uniqueid": "MTK1357:33FBRBDW6P66SLLVGI53KBSOWUQC87", "dateTime": 1515810202751}, {"current_trial": 147, "trialdata": {"rt": -1, "trial_type": "single-stim", "stimulus": "<p id=\"stim\">9</p>", "internal_node_id": "0.0-110.0-1.0", "time_elapsed": 1006313, "key_press": -1, "trial_index": 147}, "uniqueid": "MTK1357:33FBRBDW6P66SLLVGI53KBSOWUQC87", "dateTime": 1515810203753}, {"current_trial": 148, "trialdata": {"rt": -1, "trial_type": "single-stim", "stimulus": "<p id=\"stim\">8</p>", "internal_node_id": "0.0-110.0-2.0", "time_elapsed": 1007314, "key_press": -1, "trial_index": 148}, "uniqueid": "MTK1357:33FBRBDW6P66SLLVGI53KBSOWUQC87", "dateTime": 1515810204754}, {"current_trial": 149, "trialdata": {"rt": -1, "trial_type": "single-stim", "stimulus": "<p id=\"stim\">7</p>", "internal_node_id": "0.0-110.0-3.0", "time_elapsed": 1008317, "key_press": -1, "trial_index": 149}, "uniqueid": "MTK1357:33FBRBDW6P66SLLVGI53KBSOWUQC87", "dateTime": 1515810205757}, {"current_trial": 150, "trialdata": {"rt": -1, "trial_type": "single-stim", "stimulus": "<p id=\"stim\">6</p>", "internal_node_id": "0.0-110.0-4.0", "time_elapsed": 1009319, "key_press": -1, "trial_index": 150}, "uniqueid": "MTK1357:33FBRBDW6P66SLLVGI53KBSOWUQC87", "dateTime": 1515810206759}, {"current_trial": 151, "trialdata": {"rt": -1, "trial_type": "single-stim", "stimulus": "<p id=\"stim\">5</p>", "internal_node_id": "0.0-110.0-5.0", "time_elapsed": 1010320, "key_press": -1, "trial_index": 151}, "uniqueid": "MTK1357:33FBRBDW6P66SLLVGI53KBSOWUQC87", "dateTime": 1515810207761}, {"current_trial": 152, "trialdata": {"rt": -1, "trial_type": "single-stim", "stimulus": "<p id=\"stim\">4</p>", "internal_node_id": "0.0-110.0-6.0", "time_elapsed": 1011323, "key_press": -1, "trial_index": 152}, "uniqueid": "MTK1357:33FBRBDW6P66SLLVGI53KBSOWUQC87", "dateTime": 1515810208764}, {"current_trial": 153, "trialdata": {"rt": -1, "trial_type": "single-stim", "stimulus": "<p id=\"stim\">3</p>", "internal_node_id": "0.0-110.0-7.0", "time_elapsed": 1012325, "key_press": -1, "trial_index": 153}, "uniqueid": "MTK1357:33FBRBDW6P66SLLVGI53KBSOWUQC87", "dateTime": 1515810209765}, {"current_trial": 154, "trialdata": {"rt": -1, "trial_type": "single-stim", "stimulus": "<p id=\"stim\">2</p>", "internal_node_id": "0.0-110.0-8.0", "time_elapsed": 1013327, "key_press": -1, "trial_index": 154}, "uniqueid": "MTK1357:33FBRBDW6P66SLLVGI53KBSOWUQC87", "dateTime": 1515810210767}, {"current_trial": 155, "trialdata": {"rt": -1, "trial_type": "single-stim", "stimulus": "<p id=\"stim\">1</p>", "internal_node_id": "0.0-110.0-9.0", "time_elapsed": 1014329, "key_press": -1, "trial_index": 155}, "uniqueid": "MTK1357:33FBRBDW6P66SLLVGI53KBSOWUQC87", "dateTime": 1515810211769}, {"current_trial": 156, "trialdata": {"rt": -1, "trial_type": "single-stim", "stimulus": "<p id=\"stim\">+</p>", "internal_node_id": "0.0-111.0-0.0", "time_elapsed": 1015831, "key_press": -1, "type": "FIXATION", "trial_index": 156}, "uniqueid": "MTK1357:33FBRBDW6P66SLLVGI53KBSOWUQC87", "dateTime": 1515810213271}, {"current_trial": 157, "trialdata": {"rt": -1000, "trial_type": "single-audio", "word": "wrench", "stimulus": "/static/audio/wordpool/WRENCH.wav", "conditions": [24, 1600, "a", 24000], "internal_node_id": "0.0-112.0", "trial": 4, "time_elapsed": 1018630, "serialpos": 0, "key_press": -1, "wordID": 1624, "type": "PRES_AUD", "trial_index": 157}, "uniqueid": "MTK1357:33FBRBDW6P66SLLVGI53KBSOWUQC87", "dateTime": 1515810216071}, {"current_trial": 158, "trialdata": {"rt": -1000, "trial_type": "single-audio", "word": "cookbook", "stimulus": "/static/audio/wordpool/COOKBOOK.wav", "conditions": [24, 1600, "a", 24000], "internal_node_id": "0.0-113.0", "trial": 4, "time_elapsed": 1021170, "serialpos": 1, "key_press": -1, "wordID": 372, "type": "PRES_AUD", "trial_index": 158}, "uniqueid": "MTK1357:33FBRBDW6P66SLLVGI53KBSOWUQC87", "dateTime": 1515810218611}, {"current_trial": 159, "trialdata": {"rt": -1000, "trial_type": "single-audio", "word": "garbage", "stimulus": "/static/audio/wordpool/GARBAGE.wav", "conditions": [24, 1600, "a", 24000], "internal_node_id": "0.0-114.0", "trial": 4, "time_elapsed": 1023666, "serialpos": 2, "key_press": -1, "wordID": 621, "type": "PRES_AUD", "trial_index": 159}, "uniqueid": "MTK1357:33FBRBDW6P66SLLVGI53KBSOWUQC87", "dateTime": 1515810221106}, {"current_trial": 160, "trialdata": {"rt": -1000, "trial_type": "single-audio", "word": "carriage", "stimulus": "/static/audio/wordpool/CARRIAGE.wav", "conditions": [24, 1600, "a", 24000], "internal_node_id": "0.0-115.0", "trial": 4, "time_elapsed": 1026408, "serialpos": 3, "key_press": -1, "wordID": 247, "type": "PRES_AUD", "trial_index": 160}, "uniqueid": "MTK1357:33FBRBDW6P66SLLVGI53KBSOWUQC87", "dateTime": 1515810223848}, {"current_trial": 161, "trialdata": {"rt": -1000, "trial_type": "single-audio", "word": "brick", "stimulus": "/static/audio/wordpool/BRICK.wav", "conditions": [24, 1600, "a", 24000], "internal_node_id": "0.0-116.0", "trial": 4, "time_elapsed": 1029196, "serialpos": 4, "key_press": -1, "wordID": 171, "type": "PRES_AUD", "trial_index": 161}, "uniqueid": "MTK1357:33FBRBDW6P66SLLVGI53KBSOWUQC87", "dateTime": 1515810226636}, {"current_trial": 162, "trialdata": {"rt": -1000, "trial_type": "single-audio", "word": "partner", "stimulus": "/static/audio/wordpool/PARTNER.wav", "conditions": [24, 1600, "a", 24000], "internal_node_id": "0.0-117.0", "trial": 4, "time_elapsed": 1031962, "serialpos": 5, "key_press": -1, "wordID": 1016, "type": "PRES_AUD", "trial_index": 162}, "uniqueid": "MTK1357:33FBRBDW6P66SLLVGI53KBSOWUQC87", "dateTime": 1515810229403}, {"current_trial": 163, "trialdata": {"rt": -1000, "trial_type": "single-audio", "word": "cousin", "stimulus": "/static/audio/wordpool/COUSIN.wav", "conditions": [24, 1600, "a", 24000], "internal_node_id": "0.0-118.0", "trial": 4, "time_elapsed": 1034715, "serialpos": 6, "key_press": -1, "wordID": 391, "type": "PRES_AUD", "trial_index": 163}, "uniqueid": "MTK1357:33FBRBDW6P66SLLVGI53KBSOWUQC87", "dateTime": 1515810232156}, {"current_trial": 164, "trialdata": {"rt": -1000, "trial_type": "single-audio", "word": "tile", "stimulus": "/static/audio/wordpool/TILE.wav", "conditions": [24, 1600, "a", 24000], "internal_node_id": "0.0-119.0", "trial": 4, "time_elapsed": 1037129, "serialpos": 7, "key_press": -1, "wordID": 1467, "type": "PRES_AUD", "trial_index": 164}, "uniqueid": "MTK1357:33FBRBDW6P66SLLVGI53KBSOWUQC87", "dateTime": 1515810234572}, {"current_trial": 165, "trialdata": {"rt": -1000, "trial_type": "single-audio", "word": "seagull", "stimulus": "/static/audio/wordpool/SEAGULL.wav", "conditions": [24, 1600, "a", 24000], "internal_node_id": "0.0-120.0", "trial": 4, "time_elapsed": 1039903, "serialpos": 8, "key_press": -1, "wordID": 1260, "type": "PRES_AUD", "trial_index": 165}, "uniqueid": "MTK1357:33FBRBDW6P66SLLVGI53KBSOWUQC87", "dateTime": 1515810237343}, {"current_trial": 166, "trialdata": {"rt": -1000, "trial_type": "single-audio", "word": "server", "stimulus": "/static/audio/wordpool/SERVER.wav", "conditions": [24, 1600, "a", 24000], "internal_node_id": "0.0-121.0", "trial": 4, "time_elapsed": 1042672, "serialpos": 9, "key_press": -1, "wordID": 1271, "type": "PRES_AUD", "trial_index": 166}, "uniqueid": "MTK1357:33FBRBDW6P66SLLVGI53KBSOWUQC87", "dateTime": 1515810240113}, {"current_trial": 167, "trialdata": {"rt": -1000, "trial_type": "single-audio", "word": "panther", "stimulus": "/static/audio/wordpool/PANTHER.wav", "conditions": [24, 1600, "a", 24000], "internal_node_id": "0.0-122.0", "trial": 4, "time_elapsed": 1045169, "serialpos": 10, "key_press": -1, "wordID": 1008, "type": "PRES_AUD", "trial_index": 167}, "uniqueid": "MTK1357:33FBRBDW6P66SLLVGI53KBSOWUQC87", "dateTime": 1515810242609}, {"current_trial": 168, "trialdata": {"rt": -1000, "trial_type": "single-audio", "word": "zebra", "stimulus": "/static/audio/wordpool/ZEBRA.wav", "conditions": [24, 1600, "a", 24000], "internal_node_id": "0.0-123.0", "trial": 4, "time_elapsed": 1047621, "serialpos": 11, "key_press": -1, "wordID": 1634, "type": "PRES_AUD", "trial_index": 168}, "uniqueid": "MTK1357:33FBRBDW6P66SLLVGI53KBSOWUQC87", "dateTime": 1515810245061}, {"current_trial": 169, "trialdata": {"rt": -1000, "trial_type": "single-audio", "word": "canyon", "stimulus": "/static/audio/wordpool/CANYON.wav", "conditions": [24, 1600, "a", 24000], "internal_node_id": "0.0-124.0", "trial": 4, "time_elapsed": 1050033, "serialpos": 12, "key_press": -1, "wordID": 234, "type": "PRES_AUD", "trial_index": 169}, "uniqueid": "MTK1357:33FBRBDW6P66SLLVGI53KBSOWUQC87", "dateTime": 1515810247474}, {"current_trial": 170, "trialdata": {"rt": -1000, "trial_type": "single-audio", "word": "yacht", "stimulus": "/static/audio/wordpool/YACHT.wav", "conditions": [24, 1600, "a", 24000], "internal_node_id": "0.0-125.0", "trial": 4, "time_elapsed": 1052559, "serialpos": 13, "key_press": -1, "wordID": 1628, "type": "PRES_AUD", "trial_index": 170}, "uniqueid": "MTK1357:33FBRBDW6P66SLLVGI53KBSOWUQC87", "dateTime": 1515810249999}, {"current_trial": 171, "trialdata": {"rt": -1000, "trial_type": "single-audio", "word": "pizza", "stimulus": "/static/audio/wordpool/PIZZA.wav", "conditions": [24, 1600, "a", 24000], "internal_node_id": "0.0-126.0", "trial": 4, "time_elapsed": 1055326, "serialpos": 14, "key_press": -1, "wordID": 1078, "type": "PRES_AUD", "trial_index": 171}, "uniqueid": "MTK1357:33FBRBDW6P66SLLVGI53KBSOWUQC87", "dateTime": 1515810252766}, {"current_trial": 172, "trialdata": {"rt": -1000, "trial_type": "single-audio", "word": "cashew", "stimulus": "/static/audio/wordpool/CASHEW.wav", "conditions": [24, 1600, "a", 24000], "internal_node_id": "0.0-127.0", "trial": 4, "time_elapsed": 1057791, "serialpos": 15, "key_press": -1, "wordID": 252, "type": "PRES_AUD", "trial_index": 172}, "uniqueid": "MTK1357:33FBRBDW6P66SLLVGI53KBSOWUQC87", "dateTime": 1515810255232}, {"current_trial": 173, "trialdata": {"rt": -1000, "trial_type": "single-audio", "word": "brook", "stimulus": "/static/audio/wordpool/BROOK.wav", "conditions": [24, 1600, "a", 24000], "internal_node_id": "0.0-128.0", "trial": 4, "time_elapsed": 1060451, "serialpos": 16, "key_press": -1, "wordID": 176, "type": "PRES_AUD", "trial_index": 173}, "uniqueid": "MTK1357:33FBRBDW6P66SLLVGI53KBSOWUQC87", "dateTime": 1515810257891}, {"current_trial": 174, "trialdata": {"rt": -1000, "trial_type": "single-audio", "word": "valley", "stimulus": "/static/audio/wordpool/VALLEY.wav", "conditions": [24, 1600, "a", 24000], "internal_node_id": "0.0-129.0", "trial": 4, "time_elapsed": 1063246, "serialpos": 17, "key_press": -1, "wordID": 1544, "type": "PRES_AUD", "trial_index": 174}, "uniqueid": "MTK1357:33FBRBDW6P66SLLVGI53KBSOWUQC87", "dateTime": 1515810260687}, {"current_trial": 175, "trialdata": {"rt": -1000, "trial_type": "single-audio", "word": "plaza", "stimulus": "/static/audio/wordpool/PLAZA.wav", "conditions": [24, 1600, "a", 24000], "internal_node_id": "0.0-130.0", "trial": 4, "time_elapsed": 1065682, "serialpos": 18, "key_press": -1, "wordID": 1087, "type": "PRES_AUD", "trial_index": 175}, "uniqueid": "MTK1357:33FBRBDW6P66SLLVGI53KBSOWUQC87", "dateTime": 1515810263122}, {"current_trial": 176, "trialdata": {"rt": -1000, "trial_type": "single-audio", "word": "costume", "stimulus": "/static/audio/wordpool/COSTUME.wav", "conditions": [24, 1600, "a", 24000], "internal_node_id": "0.0-131.0", "trial": 4, "time_elapsed": 1068251, "serialpos": 19, "key_press": -1, "wordID": 382, "type": "PRES_AUD", "trial_index": 176}, "uniqueid": "MTK1357:33FBRBDW6P66SLLVGI53KBSOWUQC87", "dateTime": 1515810265692}, {"current_trial": 177, "trialdata": {"rt": -1000, "trial_type": "single-audio", "word": "rabbit", "stimulus": "/static/audio/wordpool/RABBIT.wav", "conditions": [24, 1600, "a", 24000], "internal_node_id": "0.0-132.0", "trial": 4, "time_elapsed": 1070722, "serialpos": 20, "key_press": -1, "wordID": 1151, "type": "PRES_AUD", "trial_index": 177}, "uniqueid": "MTK1357:33FBRBDW6P66SLLVGI53KBSOWUQC87", "dateTime": 1515810268162}, {"current_trial": 178, "trialdata": {"rt": -1000, "trial_type": "single-audio", "word": "beaver", "stimulus": "/static/audio/wordpool/BEAVER.wav", "conditions": [24, 1600, "a", 24000], "internal_node_id": "0.0-133.0", "trial": 4, "time_elapsed": 1073369, "serialpos": 21, "key_press": -1, "wordID": 108, "type": "PRES_AUD", "trial_index": 178}, "uniqueid": "MTK1357:33FBRBDW6P66SLLVGI53KBSOWUQC87", "dateTime": 1515810270810}, {"current_trial": 179, "trialdata": {"rt": -1000, "trial_type": "single-audio", "word": "taxi", "stimulus": "/static/audio/wordpool/TAXI.wav", "conditions": [24, 1600, "a", 24000], "internal_node_id": "0.0-134.0", "trial": 4, "time_elapsed": 1076132, "serialpos": 22, "key_press": -1, "wordID": 1437, "type": "PRES_AUD", "trial_index": 179}, "uniqueid": "MTK1357:33FBRBDW6P66SLLVGI53KBSOWUQC87", "dateTime": 1515810273572}, {"current_trial": 180, "trialdata": {"rt": -1000, "trial_type": "single-audio", "word": "tweezers", "stimulus": "/static/audio/wordpool/TWEEZERS.wav", "conditions": [24, 1600, "a", 24000], "internal_node_id": "0.0-135.0", "trial": 4, "time_elapsed": 1078699, "serialpos": 23, "key_press": -1, "wordID": 1525, "type": "PRES_AUD", "trial_index": 180}, "uniqueid": "MTK1357:33FBRBDW6P66SLLVGI53KBSOWUQC87", "dateTime": 1515810276140}, {"current_trial": 181, "trialdata": {"rt": -1, "trial_type": "single-stim", "stimulus": "", "internal_node_id": "0.0-136.0-0.0", "time_elapsed": 1080023, "key_press": -1, "type": "PRE_RECALL_DELAY", "trial_index": 181}, "uniqueid": "MTK1357:33FBRBDW6P66SLLVGI53KBSOWUQC87", "dateTime": 1515810277463}, {"current_trial": 182, "trialdata": {"rt": -1000, "trial_type": "single-audio", "stimulus": "/static/audio/400Hz.wav", "internal_node_id": "0.0-137.0", "time_elapsed": 1080525, "key_press": -1, "type": "PRE_RECALL_ALERT", "trial_index": 182}, "uniqueid": "MTK1357:33FBRBDW6P66SLLVGI53KBSOWUQC87", "dateTime": 1515810277965}, {"current_trial": 183, "trialdata": {"rt": [13284, 18389, 27421, 47909, 58421], "recwords": ["pizza", "taxi", "truck", "french", "horse"], "key_times": [8211, 9292, 9820, 10172, 10956, 11260, 11564, 13284, 15300, 15875, 16252, 16580, 18389, 22109, 24291, 24829, 26011, 26170, 27421, 33246, 34052, 36738, 38499, 39379, 39667, 47909, 54811, 55347, 56299, 56611, 56875, 58421], "trial_type": "free-recall", "conditions": [24, 1600, "a", 24000], "internal_node_id": "0.0-138.0-0.0", "key_presses": [70, 8, 80, 73, 90, 90, 65, 13, 84, 65, 88, 73, 13, 84, 82, 85, 67, 75, 13, 70, 82, 69, 78, 67, 72, 13, 72, 79, 82, 83, 69, 13], "trial": 4, "time_elapsed": 1140532, "type": "FREE_RECALL", "trial_index": 183}, "uniqueid": "MTK1357:33FBRBDW6P66SLLVGI53KBSOWUQC87", "dateTime": 1515810337985}, {"current_trial": 184, "trialdata": {"rt": 459, "trial_type": "text", "internal_node_id": "0.0-139.0", "time_elapsed": 1143006, "key_press": 32, "type": "INSTRUCTIONS", "trial_index": 184}, "uniqueid": "MTK1357:33FBRBDW6P66SLLVGI53KBSOWUQC87", "dateTime": 1515810340446}, {"current_trial": 185, "trialdata": {"rt": [4499, 9762, 16203], "trial_type": "math-distractor", "key_times": [4164, 4499, 8866, 9434, 9762, 12490, 13243, 15180, 15635, 16203, 23523], "responses": ["7", "14", "19"], "num2": [3, 3, 6, 9], "num3": [1, 6, 6, 4], "conditions": [12, 800, "a", 24000], "internal_node_id": "0.0-140.0", "key_presses": [55, 13, 49, 52, 13, 49, 55, 8, 57, 13, 50], "trial": 5, "time_elapsed": 1169012, "type": "DISTRACTOR", "trial_index": 185, "num1": [3, 5, 7, 7]}, "uniqueid": "MTK1357:33FBRBDW6P66SLLVGI53KBSOWUQC87", "dateTime": 1515810366453}, {"current_trial": 186, "trialdata": {"rt": -1, "trial_type": "single-stim", "stimulus": "<p id=\"stim\">10</p>", "internal_node_id": "0.0-141.0-0.0", "time_elapsed": 1172015, "key_press": -1, "trial_index": 186}, "uniqueid": "MTK1357:33FBRBDW6P66SLLVGI53KBSOWUQC87", "dateTime": 1515810369455}, {"current_trial": 187, "trialdata": {"rt": -1, "trial_type": "single-stim", "stimulus": "<p id=\"stim\">9</p>", "internal_node_id": "0.0-141.0-1.0", "time_elapsed": 1173017, "key_press": -1, "trial_index": 187}, "uniqueid": "MTK1357:33FBRBDW6P66SLLVGI53KBSOWUQC87", "dateTime": 1515810370457}, {"current_trial": 188, "trialdata": {"rt": -1, "trial_type": "single-stim", "stimulus": "<p id=\"stim\">8</p>", "internal_node_id": "0.0-141.0-2.0", "time_elapsed": 1174019, "key_press": -1, "trial_index": 188}, "uniqueid": "MTK1357:33FBRBDW6P66SLLVGI53KBSOWUQC87", "dateTime": 1515810371460}, {"current_trial": 189, "trialdata": {"rt": -1, "trial_type": "single-stim", "stimulus": "<p id=\"stim\">7</p>", "internal_node_id": "0.0-141.0-3.0", "time_elapsed": 1175022, "key_press": -1, "trial_index": 189}, "uniqueid": "MTK1357:33FBRBDW6P66SLLVGI53KBSOWUQC87", "dateTime": 1515810372463}, {"current_trial": 190, "trialdata": {"rt": -1, "trial_type": "single-stim", "stimulus": "<p id=\"stim\">6</p>", "internal_node_id": "0.0-141.0-4.0", "time_elapsed": 1176025, "key_press": -1, "trial_index": 190}, "uniqueid": "MTK1357:33FBRBDW6P66SLLVGI53KBSOWUQC87", "dateTime": 1515810373465}, {"current_trial": 191, "trialdata": {"rt": -1, "trial_type": "single-stim", "stimulus": "<p id=\"stim\">5</p>", "internal_node_id": "0.0-141.0-5.0", "time_elapsed": 1177028, "key_press": -1, "trial_index": 191}, "uniqueid": "MTK1357:33FBRBDW6P66SLLVGI53KBSOWUQC87", "dateTime": 1515810374468}, {"current_trial": 192, "trialdata": {"rt": -1, "trial_type": "single-stim", "stimulus": "<p id=\"stim\">4</p>", "internal_node_id": "0.0-141.0-6.0", "time_elapsed": 1178029, "key_press": -1, "trial_index": 192}, "uniqueid": "MTK1357:33FBRBDW6P66SLLVGI53KBSOWUQC87", "dateTime": 1515810375470}, {"current_trial": 193, "trialdata": {"rt": -1, "trial_type": "single-stim", "stimulus": "<p id=\"stim\">3</p>", "internal_node_id": "0.0-141.0-7.0", "time_elapsed": 1179031, "key_press": -1, "trial_index": 193}, "uniqueid": "MTK1357:33FBRBDW6P66SLLVGI53KBSOWUQC87", "dateTime": 1515810376472}, {"current_trial": 194, "trialdata": {"rt": -1, "trial_type": "single-stim", "stimulus": "<p id=\"stim\">2</p>", "internal_node_id": "0.0-141.0-8.0", "time_elapsed": 1180033, "key_press": -1, "trial_index": 194}, "uniqueid": "MTK1357:33FBRBDW6P66SLLVGI53KBSOWUQC87", "dateTime": 1515810377474}, {"current_trial": 195, "trialdata": {"rt": -1, "trial_type": "single-stim", "stimulus": "<p id=\"stim\">1</p>", "internal_node_id": "0.0-141.0-9.0", "time_elapsed": 1181035, "key_press": -1, "trial_index": 195}, "uniqueid": "MTK1357:33FBRBDW6P66SLLVGI53KBSOWUQC87", "dateTime": 1515810378476}, {"current_trial": 196, "trialdata": {"rt": -1, "trial_type": "single-stim", "stimulus": "<p id=\"stim\">+</p>", "internal_node_id": "0.0-142.0-0.0", "time_elapsed": 1182537, "key_press": -1, "type": "FIXATION", "trial_index": 196}, "uniqueid": "MTK1357:33FBRBDW6P66SLLVGI53KBSOWUQC87", "dateTime": 1515810379977}, {"current_trial": 197, "trialdata": {"rt": -1000, "trial_type": "single-audio", "word": "pepper", "stimulus": "/static/audio/wordpool/PEPPER.wav", "conditions": [12, 800, "a", 24000], "internal_node_id": "0.0-143.0", "trial": 5, "time_elapsed": 1184146, "serialpos": 0, "key_press": -1, "wordID": 1046, "type": "PRES_AUD", "trial_index": 197}, "uniqueid": "MTK1357:33FBRBDW6P66SLLVGI53KBSOWUQC87", "dateTime": 1515810381586}, {"current_trial": 198, "trialdata": {"rt": -1000, "trial_type": "single-audio", "word": "velvet", "stimulus": "/static/audio/wordpool/VELVET.wav", "conditions": [12, 800, "a", 24000], "internal_node_id": "0.0-144.0", "trial": 5, "time_elapsed": 1186014, "serialpos": 1, "key_press": -1, "wordID": 1554, "type": "PRES_AUD", "trial_index": 198}, "uniqueid": "MTK1357:33FBRBDW6P66SLLVGI53KBSOWUQC87", "dateTime": 1515810383455}, {"current_trial": 199, "trialdata": {"rt": -1000, "trial_type": "single-audio", "word": "garden", "stimulus": "/static/audio/wordpool/GARDEN.wav", "conditions": [12, 800, "a", 24000], "internal_node_id": "0.0-145.0", "trial": 5, "time_elapsed": 1187627, "serialpos": 2, "key_press": -1, "wordID": 622, "type": "PRES_AUD", "trial_index": 199}, "uniqueid": "MTK1357:33FBRBDW6P66SLLVGI53KBSOWUQC87", "dateTime": 1515810385067}, {"current_trial": 200, "trialdata": {"rt": -1000, "trial_type": "single-audio", "word": "teacher", "stimulus": "/static/audio/wordpool/TEACHER.wav", "conditions": [12, 800, "a", 24000], "internal_node_id": "0.0-146.0", "trial": 5, "time_elapsed": 1189275, "serialpos": 3, "key_press": -1, "wordID": 1439, "type": "PRES_AUD", "trial_index": 200}, "uniqueid": "MTK1357:33FBRBDW6P66SLLVGI53KBSOWUQC87", "dateTime": 1515810386715}, {"current_trial": 201, "trialdata": {"rt": -1000, "trial_type": "single-audio", "word": "crayon", "stimulus": "/static/audio/wordpool/CRAYON.wav", "conditions": [12, 800, "a", 24000], "internal_node_id": "0.0-147.0", "trial": 5, "time_elapsed": 1190926, "serialpos": 4, "key_press": -1, "wordID": 400, "type": "PRES_AUD", "trial_index": 201}, "uniqueid": "MTK1357:33FBRBDW6P66SLLVGI53KBSOWUQC87", "dateTime": 1515810388367}, {"current_trial": 202, "trialdata": {"rt": -1000, "trial_type": "single-audio", "word": "clock", "stimulus": "/static/audio/wordpool/CLOCK.wav", "conditions": [12, 800, "a", 24000], "internal_node_id": "0.0-148.0", "trial": 5, "time_elapsed": 1192602, "serialpos": 5, "key_press": -1, "wordID": 324, "type": "PRES_AUD", "trial_index": 202}, "uniqueid": "MTK1357:33FBRBDW6P66SLLVGI53KBSOWUQC87", "dateTime": 1515810390043}, {"current_trial": 203, "trialdata": {"rt": -1000, "trial_type": "single-audio", "word": "mammal", "stimulus": "/static/audio/wordpool/MAMMAL.wav", "conditions": [12, 800, "a", 24000], "internal_node_id": "0.0-149.0", "trial": 5, "time_elapsed": 1194305, "serialpos": 6, "key_press": -1, "wordID": 860, "type": "PRES_AUD", "trial_index": 203}, "uniqueid": "MTK1357:33FBRBDW6P66SLLVGI53KBSOWUQC87", "dateTime": 1515810391746}, {"current_trial": 204, "trialdata": {"rt": -1000, "trial_type": "single-audio", "word": "onion", "stimulus": "/static/audio/wordpool/ONION.wav", "conditions": [12, 800, "a", 24000], "internal_node_id": "0.0-150.0", "trial": 5, "time_elapsed": 1196294, "serialpos": 7, "key_press": -1, "wordID": 976, "type": "PRES_AUD", "trial_index": 204}, "uniqueid": "MTK1357:33FBRBDW6P66SLLVGI53KBSOWUQC87", "dateTime": 1515810393734}, {"current_trial": 205, "trialdata": {"rt": -1000, "trial_type": "single-audio", "word": "tortoise", "stimulus": "/static/audio/wordpool/TORTOISE.wav", "conditions": [12, 800, "a", 24000], "internal_node_id": "0.0-151.0", "trial": 5, "time_elapsed": 1198209, "serialpos": 8, "key_press": -1, "wordID": 1485, "type": "PRES_AUD", "trial_index": 205}, "uniqueid": "MTK1357:33FBRBDW6P66SLLVGI53KBSOWUQC87", "dateTime": 1515810395650}, {"current_trial": 206, "trialdata": {"rt": -1000, "trial_type": "single-audio", "word": "snail", "stimulus": "/static/audio/wordpool/SNAIL.wav", "conditions": [12, 800, "a", 24000], "internal_node_id": "0.0-152.0", "trial": 5, "time_elapsed": 1200165, "serialpos": 9, "key_press": -1, "wordID": 1331, "type": "PRES_AUD", "trial_index": 206}, "uniqueid": "MTK1357:33FBRBDW6P66SLLVGI53KBSOWUQC87", "dateTime": 1515810397605}, {"current_trial": 207, "trialdata": {"rt": -1000, "trial_type": "single-audio", "word": "powder", "stimulus": "/static/audio/wordpool/POWDER.wav", "conditions": [12, 800, "a", 24000], "internal_node_id": "0.0-153.0", "trial": 5, "time_elapsed": 1201982, "serialpos": 10, "key_press": -1, "wordID": 1116, "type": "PRES_AUD", "trial_index": 207}, "uniqueid": "MTK1357:33FBRBDW6P66SLLVGI53KBSOWUQC87", "dateTime": 1515810399422}, {"current_trial": 208, "trialdata": {"rt": -1000, "trial_type": "single-audio", "word": "europe", "stimulus": "/static/audio/wordpool/EUROPE.wav", "conditions": [12, 800, "a", 24000], "internal_node_id": "0.0-154.0", "trial": 5, "time_elapsed": 1203862, "serialpos": 11, "key_press": -1, "wordID": 540, "type": "PRES_AUD", "trial_index": 208}, "uniqueid": "MTK1357:33FBRBDW6P66SLLVGI53KBSOWUQC87", "dateTime": 1515810401302}, {"current_trial": 209, "trialdata": {"rt": -1, "trial_type": "single-stim", "stimulus": "", "internal_node_id": "0.0-155.0-0.0", "time_elapsed": 1205168, "key_press": -1, "type": "PRE_RECALL_DELAY", "trial_index": 209}, "uniqueid": "MTK1357:33FBRBDW6P66SLLVGI53KBSOWUQC87", "dateTime": 1515810402608}, {"current_trial": 210, "trialdata": {"rt": -1000, "trial_type": "single-audio", "stimulus": "/static/audio/400Hz.wav", "internal_node_id": "0.0-156.0", "time_elapsed": 1205669, "key_press": -1, "type": "PRE_RECALL_ALERT", "trial_index": 210}, "uniqueid": "MTK1357:33FBRBDW6P66SLLVGI53KBSOWUQC87", "dateTime": 1515810403109}, {"current_trial": 211, "trialdata": {"rt": [11469, 32572], "recwords": ["toilet", "papa"], "key_times": [6343, 6557, 6829, 7110, 8077, 9957, 11469, 30661, 30997, 31213, 31381, 32572], "trial_type": "free-recall", "conditions": [12, 800, "a", 24000], "internal_node_id": "0.0-157.0-0.0", "key_presses": [84, 79, 73, 76, 69, 84, 13, 80, 65, 80, 65, 13], "trial": 5, "time_elapsed": 1265675, "type": "FREE_RECALL", "trial_index": 211}, "uniqueid": "MTK1357:33FBRBDW6P66SLLVGI53KBSOWUQC87", "dateTime": 1515810463129}, {"current_trial": 212, "trialdata": {"rt": 19550, "trial_type": "text", "internal_node_id": "0.0-158.0", "time_elapsed": 1287240, "key_press": 32, "type": "INSTRUCTIONS", "trial_index": 212}, "uniqueid": "MTK1357:33FBRBDW6P66SLLVGI53KBSOWUQC87", "dateTime": 1515810484681}, {"current_trial": 213, "trialdata": {"rt": [5933, 8613, 10823], "trial_type": "math-distractor", "key_times": [2744, 2887, 4695, 5238, 5933, 8424, 8613, 10639, 10823], "responses": ["10", "7", "5"], "num2": [2, 3, 2, 4], "num3": [3, 1, 2, 2], "conditions": [12, 1600, "a", 12000], "internal_node_id": "0.0-159.0", "key_presses": [49, 49, 8, 48, 13, 55, 13, 53, 13], "trial": 6, "time_elapsed": 1301248, "type": "DISTRACTOR", "trial_index": 213, "num1": [5, 3, 1, 3]}, "uniqueid": "MTK1357:33FBRBDW6P66SLLVGI53KBSOWUQC87", "dateTime": 1515810498688}, {"current_trial": 214, "trialdata": {"rt": -1, "trial_type": "single-stim", "stimulus": "<p id=\"stim\">10</p>", "internal_node_id": "0.0-160.0-0.0", "time_elapsed": 1304251, "key_press": -1, "trial_index": 214}, "uniqueid": "MTK1357:33FBRBDW6P66SLLVGI53KBSOWUQC87", "dateTime": 1515810501692}, {"current_trial": 215, "trialdata": {"rt": -1, "trial_type": "single-stim", "stimulus": "<p id=\"stim\">9</p>", "internal_node_id": "0.0-160.0-1.0", "time_elapsed": 1305255, "key_press": -1, "trial_index": 215}, "uniqueid": "MTK1357:33FBRBDW6P66SLLVGI53KBSOWUQC87", "dateTime": 1515810502695}, {"current_trial": 216, "trialdata": {"rt": -1, "trial_type": "single-stim", "stimulus": "<p id=\"stim\">8</p>", "internal_node_id": "0.0-160.0-2.0", "time_elapsed": 1306258, "key_press": -1, "trial_index": 216}, "uniqueid": "MTK1357:33FBRBDW6P66SLLVGI53KBSOWUQC87", "dateTime": 1515810503698}, {"current_trial": 217, "trialdata": {"rt": -1, "trial_type": "single-stim", "stimulus": "<p id=\"stim\">7</p>", "internal_node_id": "0.0-160.0-3.0", "time_elapsed": 1307260, "key_press": -1, "trial_index": 217}, "uniqueid": "MTK1357:33FBRBDW6P66SLLVGI53KBSOWUQC87", "dateTime": 1515810504701}, {"current_trial": 218, "trialdata": {"rt": -1, "trial_type": "single-stim", "stimulus": "<p id=\"stim\">6</p>", "internal_node_id": "0.0-160.0-4.0", "time_elapsed": 1308263, "key_press": -1, "trial_index": 218}, "uniqueid": "MTK1357:33FBRBDW6P66SLLVGI53KBSOWUQC87", "dateTime": 1515810505704}, {"current_trial": 219, "trialdata": {"rt": -1, "trial_type": "single-stim", "stimulus": "<p id=\"stim\">5</p>", "internal_node_id": "0.0-160.0-5.0", "time_elapsed": 1309265, "key_press": -1, "trial_index": 219}, "uniqueid": "MTK1357:33FBRBDW6P66SLLVGI53KBSOWUQC87", "dateTime": 1515810506705}, {"current_trial": 220, "trialdata": {"rt": -1, "trial_type": "single-stim", "stimulus": "<p id=\"stim\">4</p>", "internal_node_id": "0.0-160.0-6.0", "time_elapsed": 1310267, "key_press": -1, "trial_index": 220}, "uniqueid": "MTK1357:33FBRBDW6P66SLLVGI53KBSOWUQC87", "dateTime": 1515810507707}, {"current_trial": 221, "trialdata": {"rt": -1, "trial_type": "single-stim", "stimulus": "<p id=\"stim\">3</p>", "internal_node_id": "0.0-160.0-7.0", "time_elapsed": 1311270, "key_press": -1, "trial_index": 221}, "uniqueid": "MTK1357:33FBRBDW6P66SLLVGI53KBSOWUQC87", "dateTime": 1515810508710}, {"current_trial": 222, "trialdata": {"rt": -1, "trial_type": "single-stim", "stimulus": "<p id=\"stim\">2</p>", "internal_node_id": "0.0-160.0-8.0", "time_elapsed": 1312272, "key_press": -1, "trial_index": 222}, "uniqueid": "MTK1357:33FBRBDW6P66SLLVGI53KBSOWUQC87", "dateTime": 1515810509712}, {"current_trial": 223, "trialdata": {"rt": -1, "trial_type": "single-stim", "stimulus": "<p id=\"stim\">1</p>", "internal_node_id": "0.0-160.0-9.0", "time_elapsed": 1313273, "key_press": -1, "trial_index": 223}, "uniqueid": "MTK1357:33FBRBDW6P66SLLVGI53KBSOWUQC87", "dateTime": 1515810510714}, {"current_trial": 224, "trialdata": {"rt": -1, "trial_type": "single-stim", "stimulus": "<p id=\"stim\">+</p>", "internal_node_id": "0.0-161.0-0.0", "time_elapsed": 1314775, "key_press": -1, "type": "FIXATION", "trial_index": 224}, "uniqueid": "MTK1357:33FBRBDW6P66SLLVGI53KBSOWUQC87", "dateTime": 1515810512216}, {"current_trial": 225, "trialdata": {"rt": -1000, "trial_type": "single-audio", "word": "bacon", "stimulus": "/static/audio/wordpool/BACON.wav", "conditions": [12, 1600, "a", 12000], "internal_node_id": "0.0-162.0", "trial": 6, "time_elapsed": 1317197, "serialpos": 0, "key_press": -1, "wordID": 66, "type": "PRES_AUD", "trial_index": 225}, "uniqueid": "MTK1357:33FBRBDW6P66SLLVGI53KBSOWUQC87", "dateTime": 1515810514637}, {"current_trial": 226, "trialdata": {"rt": -1000, "trial_type": "single-audio", "word": "omelet", "stimulus": "/static/audio/wordpool/OMELET.wav", "conditions": [12, 1600, "a", 12000], "internal_node_id": "0.0-163.0", "trial": 6, "time_elapsed": 1319914, "serialpos": 1, "key_press": -1, "wordID": 975, "type": "PRES_AUD", "trial_index": 226}, "uniqueid": "MTK1357:33FBRBDW6P66SLLVGI53KBSOWUQC87", "dateTime": 1515810517355}, {"current_trial": 227, "trialdata": {"rt": -1000, "trial_type": "single-audio", "word": "quarter", "stimulus": "/static/audio/wordpool/QUARTER.wav", "conditions": [12, 1600, "a", 12000], "internal_node_id": "0.0-164.0", "trial": 6, "time_elapsed": 1322401, "serialpos": 2, "key_press": -1, "wordID": 1147, "type": "PRES_AUD", "trial_index": 227}, "uniqueid": "MTK1357:33FBRBDW6P66SLLVGI53KBSOWUQC87", "dateTime": 1515810519841}, {"current_trial": 228, "trialdata": {"rt": -1000, "trial_type": "single-audio", "word": "airplane", "stimulus": "/static/audio/wordpool/AIRPLANE.wav", "conditions": [12, 1600, "a", 12000], "internal_node_id": "0.0-165.0", "trial": 6, "time_elapsed": 1325116, "serialpos": 3, "key_press": -1, "wordID": 11, "type": "PRES_AUD", "trial_index": 228}, "uniqueid": "MTK1357:33FBRBDW6P66SLLVGI53KBSOWUQC87", "dateTime": 1515810522557}, {"current_trial": 229, "trialdata": {"rt": -1000, "trial_type": "single-audio", "word": "record", "stimulus": "/static/audio/wordpool/RECORD.wav", "conditions": [12, 1600, "a", 12000], "internal_node_id": "0.0-166.0", "trial": 6, "time_elapsed": 1327861, "serialpos": 4, "key_press": -1, "wordID": 1175, "type": "PRES_AUD", "trial_index": 229}, "uniqueid": "MTK1357:33FBRBDW6P66SLLVGI53KBSOWUQC87", "dateTime": 1515810525302}, {"current_trial": 230, "trialdata": {"rt": -1000, "trial_type": "single-audio", "word": "body", "stimulus": "/static/audio/wordpool/BODY.wav", "conditions": [12, 1600, "a", 12000], "internal_node_id": "0.0-167.0", "trial": 6, "time_elapsed": 1330380, "serialpos": 5, "key_press": -1, "wordID": 144, "type": "PRES_AUD", "trial_index": 230}, "uniqueid": "MTK1357:33FBRBDW6P66SLLVGI53KBSOWUQC87", "dateTime": 1515810527820}, {"current_trial": 231, "trialdata": {"rt": -1000, "trial_type": "single-audio", "word": "sandwich", "stimulus": "/static/audio/wordpool/SANDWICH.wav", "conditions": [12, 1600, "a", 12000], "internal_node_id": "0.0-168.0", "trial": 6, "time_elapsed": 1332861, "serialpos": 6, "key_press": -1, "wordID": 1231, "type": "PRES_AUD", "trial_index": 231}, "uniqueid": "MTK1357:33FBRBDW6P66SLLVGI53KBSOWUQC87", "dateTime": 1515810530301}, {"current_trial": 232, "trialdata": {"rt": -1000, "trial_type": "single-audio", "word": "match", "stimulus": "/static/audio/wordpool/MATCH.wav", "conditions": [12, 1600, "a", 12000], "internal_node_id": "0.0-169.0", "trial": 6, "time_elapsed": 1335271, "serialpos": 7, "key_press": -1, "wordID": 877, "type": "PRES_AUD", "trial_index": 232}, "uniqueid": "MTK1357:33FBRBDW6P66SLLVGI53KBSOWUQC87", "dateTime": 1515810532711}, {"current_trial": 233, "trialdata": {"rt": -1000, "trial_type": "single-audio", "word": "patient", "stimulus": "/static/audio/wordpool/PATIENT.wav", "conditions": [12, 1600, "a", 12000], "internal_node_id": "0.0-170.0", "trial": 6, "time_elapsed": 1337928, "serialpos": 8, "key_press": -1, "wordID": 1023, "type": "PRES_AUD", "trial_index": 233}, "uniqueid": "MTK1357:33FBRBDW6P66SLLVGI53KBSOWUQC87", "dateTime": 1515810535368}, {"current_trial": 234, "trialdata": {"rt": -1000, "trial_type": "single-audio", "word": "wasp", "stimulus": "/static/audio/wordpool/WASP.wav", "conditions": [12, 1600, "a", 12000], "internal_node_id": "0.0-171.0", "trial": 6, "time_elapsed": 1340443, "serialpos": 9, "key_press": -1, "wordID": 1592, "type": "PRES_AUD", "trial_index": 234}, "uniqueid": "MTK1357:33FBRBDW6P66SLLVGI53KBSOWUQC87", "dateTime": 1515810537884}, {"current_trial": 235, "trialdata": {"rt": -1000, "trial_type": "single-audio", "word": "package", "stimulus": "/static/audio/wordpool/PACKAGE.wav", "conditions": [12, 1600, "a", 12000], "internal_node_id": "0.0-172.0", "trial": 6, "time_elapsed": 1343101, "serialpos": 10, "key_press": -1, "wordID": 996, "type": "PRES_AUD", "trial_index": 235}, "uniqueid": "MTK1357:33FBRBDW6P66SLLVGI53KBSOWUQC87", "dateTime": 1515810540542}, {"current_trial": 236, "trialdata": {"rt": -1000, "trial_type": "single-audio", "word": "diner", "stimulus": "/static/audio/wordpool/DINER.wav", "conditions": [12, 1600, "a", 12000], "internal_node_id": "0.0-173.0", "trial": 6, "time_elapsed": 1345753, "serialpos": 11, "key_press": -1, "wordID": 466, "type": "PRES_AUD", "trial_index": 236}, "uniqueid": "MTK1357:33FBRBDW6P66SLLVGI53KBSOWUQC87", "dateTime": 1515810543194}, {"current_trial": 237, "trialdata": {"rt": -1, "trial_type": "single-stim", "stimulus": "", "internal_node_id": "0.0-174.0-0.0", "time_elapsed": 1347107, "key_press": -1, "type": "PRE_RECALL_DELAY", "trial_index": 237}, "uniqueid": "MTK1357:33FBRBDW6P66SLLVGI53KBSOWUQC87", "dateTime": 1515810544548}, {"current_trial": 238, "trialdata": {"rt": -1000, "trial_type": "single-audio", "stimulus": "/static/audio/400Hz.wav", "internal_node_id": "0.0-175.0", "time_elapsed": 1347609, "key_press": -1, "type": "PRE_RECALL_ALERT", "trial_index": 238}, "uniqueid": "MTK1357:33FBRBDW6P66SLLVGI53KBSOWUQC87", "dateTime": 1515810545049}, {"current_trial": 239, "trialdata": {"rt": [5128, 11673, 20982, 34719, 48487], "recwords": ["happy", "airplan", "asian", "sandwich", "bacon"], "key_times": [2736, 2967, 3583, 3734, 4200, 5128, 6312, 6750, 7568, 8240, 8576, 9193, 9818, 11673, 14505, 16560, 16840, 17544, 18143, 20982, 26819, 27040, 27401, 29240, 30783, 31736, 32191, 32448, 34719, 42554, 42808, 43447, 43911, 44472, 48487], "trial_type": "free-recall", "conditions": [12, 1600, "a", 12000], "internal_node_id": "0.0-176.0-0.0", "key_presses": [72, 65, 80, 80, 89, 13, 65, 73, 82, 80, 76, 65, 78, 13, 65, 83, 73, 65, 78, 13, 83, 65, 78, 68, 87, 73, 67, 72, 13, 66, 65, 67, 79, 78, 13], "trial": 6, "time_elapsed": 1407615, "type": "FREE_RECALL", "trial_index": 239}, "uniqueid": "MTK1357:33FBRBDW6P66SLLVGI53KBSOWUQC87", "dateTime": 1515810605072}, {"current_trial": 240, "trialdata": {"rt": 542, "trial_type": "text", "internal_node_id": "0.0-177.0", "time_elapsed": 1410176, "key_press": 32, "type": "INSTRUCTIONS", "trial_index": 240}, "uniqueid": "MTK1357:33FBRBDW6P66SLLVGI53KBSOWUQC87", "dateTime": 1515810607616}, {"current_trial": 241, "trialdata": {"rt": [4415, 6735, 10136, 21737], "trial_type": "math-distractor", "key_times": [3703, 4095, 4415, 5959, 6552, 6735, 8976, 9608, 10136, 13248, 14375, 14600, 14871, 14872, 21737], "responses": ["13", "10", "16", "23"], "num2": [3, 4, 3, 8, 7], "num3": [3, 4, 5, 7, 4], "conditions": [12, 1600, "a", 24000], "internal_node_id": "0.0-178.0", "key_presses": [49, 51, 13, 49, 48, 13, 49, 54, 13, 49, 8, 50, 114, 51, 13], "trial": 7, "time_elapsed": 1436183, "type": "DISTRACTOR", "trial_index": 241, "num1": [7, 2, 8, 8, 2]}, "uniqueid": "MTK1357:33FBRBDW6P66SLLVGI53KBSOWUQC87", "dateTime": 1515810633624}, {"current_trial": 242, "trialdata": {"rt": -1, "trial_type": "single-stim", "stimulus": "<p id=\"stim\">10</p>", "internal_node_id": "0.0-179.0-0.0", "time_elapsed": 1439186, "key_press": -1, "trial_index": 242}, "uniqueid": "MTK1357:33FBRBDW6P66SLLVGI53KBSOWUQC87", "dateTime": 1515810636627}, {"current_trial": 243, "trialdata": {"rt": -1, "trial_type": "single-stim", "stimulus": "<p id=\"stim\">9</p>", "internal_node_id": "0.0-179.0-1.0", "time_elapsed": 1440188, "key_press": -1, "trial_index": 243}, "uniqueid": "MTK1357:33FBRBDW6P66SLLVGI53KBSOWUQC87", "dateTime": 1515810637629}, {"current_trial": 244, "trialdata": {"rt": -1, "trial_type": "single-stim", "stimulus": "<p id=\"stim\">8</p>", "internal_node_id": "0.0-179.0-2.0", "time_elapsed": 1441190, "key_press": -1, "trial_index": 244}, "uniqueid": "MTK1357:33FBRBDW6P66SLLVGI53KBSOWUQC87", "dateTime": 1515810638631}, {"current_trial": 245, "trialdata": {"rt": -1, "trial_type": "single-stim", "stimulus": "<p id=\"stim\">7</p>", "internal_node_id": "0.0-179.0-3.0", "time_elapsed": 1442192, "key_press": -1, "trial_index": 245}, "uniqueid": "MTK1357:33FBRBDW6P66SLLVGI53KBSOWUQC87", "dateTime": 1515810639633}, {"current_trial": 246, "trialdata": {"rt": -1, "trial_type": "single-stim", "stimulus": "<p id=\"stim\">6</p>", "internal_node_id": "0.0-179.0-4.0", "time_elapsed": 1443194, "key_press": -1, "trial_index": 246}, "uniqueid": "MTK1357:33FBRBDW6P66SLLVGI53KBSOWUQC87", "dateTime": 1515810640635}, {"current_trial": 247, "trialdata": {"rt": -1, "trial_type": "single-stim", "stimulus": "<p id=\"stim\">5</p>", "internal_node_id": "0.0-179.0-5.0", "time_elapsed": 1444196, "key_press": -1, "trial_index": 247}, "uniqueid": "MTK1357:33FBRBDW6P66SLLVGI53KBSOWUQC87", "dateTime": 1515810641637}, {"current_trial": 248, "trialdata": {"rt": -1, "trial_type": "single-stim", "stimulus": "<p id=\"stim\">4</p>", "internal_node_id": "0.0-179.0-6.0", "time_elapsed": 1445198, "key_press": -1, "trial_index": 248}, "uniqueid": "MTK1357:33FBRBDW6P66SLLVGI53KBSOWUQC87", "dateTime": 1515810642639}, {"current_trial": 249, "trialdata": {"rt": -1, "trial_type": "single-stim", "stimulus": "<p id=\"stim\">3</p>", "internal_node_id": "0.0-179.0-7.0", "time_elapsed": 1446200, "key_press": -1, "trial_index": 249}, "uniqueid": "MTK1357:33FBRBDW6P66SLLVGI53KBSOWUQC87", "dateTime": 1515810643641}, {"current_trial": 250, "trialdata": {"rt": -1, "trial_type": "single-stim", "stimulus": "<p id=\"stim\">2</p>", "internal_node_id": "0.0-179.0-8.0", "time_elapsed": 1447202, "key_press": -1, "trial_index": 250}, "uniqueid": "MTK1357:33FBRBDW6P66SLLVGI53KBSOWUQC87", "dateTime": 1515810644643}, {"current_trial": 251, "trialdata": {"rt": -1, "trial_type": "single-stim", "stimulus": "<p id=\"stim\">1</p>", "internal_node_id": "0.0-179.0-9.0", "time_elapsed": 1448205, "key_press": -1, "trial_index": 251}, "uniqueid": "MTK1357:33FBRBDW6P66SLLVGI53KBSOWUQC87", "dateTime": 1515810645646}, {"current_trial": 252, "trialdata": {"rt": -1, "trial_type": "single-stim", "stimulus": "<p id=\"stim\">+</p>", "internal_node_id": "0.0-180.0-0.0", "time_elapsed": 1449708, "key_press": -1, "type": "FIXATION", "trial_index": 252}, "uniqueid": "MTK1357:33FBRBDW6P66SLLVGI53KBSOWUQC87", "dateTime": 1515810647149}, {"current_trial": 253, "trialdata": {"rt": -1000, "trial_type": "single-audio", "word": "rocket", "stimulus": "/static/audio/wordpool/ROCKET.wav", "conditions": [12, 1600, "a", 24000], "internal_node_id": "0.0-181.0", "trial": 7, "time_elapsed": 1452449, "serialpos": 0, "key_press": -1, "wordID": 1201, "type": "PRES_AUD", "trial_index": 253}, "uniqueid": "MTK1357:33FBRBDW6P66SLLVGI53KBSOWUQC87", "dateTime": 1515810649889}, {"current_trial": 254, "trialdata": {"rt": -1000, "trial_type": "single-audio", "word": "dancer", "stimulus": "/static/audio/wordpool/DANCER.wav", "conditions": [12, 1600, "a", 24000], "internal_node_