{"assignmentId": "3SB4CE2TJW28E7P54CL4UFJTPK3XAT", "workerId": "MTK1821", "questiondata": {"origin": "United States", "strat-rehearsal": "58", "marital": "Single", "education": "Master's degree", "ethnicity": "Not Hispanic", "color_depth": 24, "distracted": "No", "wrote-notes": "Yes", "strat-other": "", "screen_width": 1366, "avail_screen_width": 1366, "avail_screen_height": 728, "strat-image": "81", "language": "English", "gender": "Male", "age": "25", "gender_other": "", "race": ["Black"], "strat-categorize": "94", "pixel_depth": 24, "strat-spatial": "48", "strat-story": "64", "race_other": "", "screen_height": 768}, "bonus": 0, "hitId": "3I7SHAD35M3DE9U9T029KN5LZ3BM72", "counterbalance": 2611, "useragent": "Mozilla/5.0 (Windows NT 6.3; WOW64) AppleWebKit/537.36 (KHTML, like Gecko) Chrome/51.0.2683.0 Safari/537.36", "eventdata": [{"eventtype": "initialized", "interval": 0, "value": null, "timestamp": 1516477830103}, {"eventtype": "window_resize", "interval": 0, "value": [1354, 706], "timestamp": 1516477830103}, {"eventtype": "focus", "interval": 439706, "value": "off", "timestamp": 1516478269809}, {"eventtype": "focus", "interval": 1333, "value": "on", "timestamp": 1516478271142}, {"eventtype": "focus", "interval": 1252353, "value": "off", "timestamp": 1516479523495}, {"eventtype": "focus", "interval": 139, "value": "on", "timestamp": 1516479523634}, {"eventtype": "focus", "interval": 1478574, "value": "off", "timestamp": 1516481002208}, {"eventtype": "focus", "interval": 821, "value": "on", "timestamp": 1516481003029}], "data": [{"current_trial": 0, "trialdata": {"rt": 1309, "trial_type": "text", "internal_node_id": "0.0-0.0", "time_elapsed": 1325, "key_press": 89, "type": "INSTRUCTIONS", "trial_index": 0}, "uniqueid": "MTK1821:3SB4CE2TJW28E7P54CL4UFJTPK3XAT", "dateTime": 1516477832370}, {"current_trial": 1, "trialdata": {"rt": 1451, "trial_type": "text", "internal_node_id": "0.0-1.0", "time_elapsed": 2795, "key_press": 89, "type": "INSTRUCTIONS", "trial_index": 1}, "uniqueid": "MTK1821:3SB4CE2TJW28E7P54CL4UFJTPK3XAT", "dateTime": 1516477833832}, {"current_trial": 2, "trialdata": {"rt": [18836], "trial_type": "audio-test", "responses": ["ocean"], "internal_node_id": "0.0-2.0", "time_elapsed": 21715, "type": "AUDIO_TEST", "trial_index": 2}, "uniqueid": "MTK1821:3SB4CE2TJW28E7P54CL4UFJTPK3XAT", "dateTime": 1516477852750}, {"current_trial": 3, "trialdata": {"rt": [11523], "trial_type": "audio-test", "responses": ["crystal"], "internal_node_id": "0.0-3.0", "time_elapsed": 33251, "type": "AUDIO_TEST", "trial_index": 3}, "uniqueid": "MTK1821:3SB4CE2TJW28E7P54CL4UFJTPK3XAT", "dateTime": 1516477864287}, {"current_trial": 4, "trialdata": {"rt": [5011], "trial_type": "audio-test", "responses": ["spice"], "internal_node_id": "0.0-4.0", "time_elapsed": 38281, "type": "AUDIO_TEST", "trial_index": 4}, "uniqueid": "MTK1821:3SB4CE2TJW28E7P54CL4UFJTPK3XAT", "dateTime": 1516477869316}, {"current_trial": 5, "trialdata": {"rt": 18825, "trial_type": "survey-text", "responses": "{\"Q0\":\"8:00\",\"Q1\":\"5:00\",\"Q2\":\"5\"}", "internal_node_id": "0.0-5.0", "time_elapsed": 57870, "type": "SLEEP_SURVEY", "trial_index": 5}, "uniqueid": "MTK1821:3SB4CE2TJW28E7P54CL4UFJTPK3XAT", "dateTime": 1516477888905}, {"current_trial": 6, "trialdata": {"rt": 9697, "trial_type": "text", "internal_node_id": "0.0-6.0", "time_elapsed": 68570, "key_press": 73, "type": "INSTRUCTIONS", "trial_index": 6}, "uniqueid": "MTK1821:3SB4CE2TJW28E7P54CL4UFJTPK3XAT", "dateTime": 1516477899606}, {"current_trial": 7, "trialdata": {"rt": 10918, "trial_type": "text", "internal_node_id": "0.0-7.0", "time_elapsed": 79997, "key_press": 74, "type": "INSTRUCTIONS", "trial_index": 7}, "uniqueid": "MTK1821:3SB4CE2TJW28E7P54CL4UFJTPK3XAT", "dateTime": 1516477911033}, {"current_trial": 8, "trialdata": {"rt": 3125, "trial_type": "text", "internal_node_id": "0.0-8.0", "time_elapsed": 83627, "key_press": 74, "type": "INSTRUCTIONS", "trial_index": 8}, "uniqueid": "MTK1821:3SB4CE2TJW28E7P54CL4UFJTPK3XAT", "dateTime": 1516477914663}, {"current_trial": 9, "trialdata": {"rt": [6609, 9147, 13048, 16918], "trial_type": "math-distractor", "key_times": [4380, 4460, 5445, 6609, 8177, 8758, 9147, 10550, 11943, 12380, 13048, 16180, 16250, 16918], "responses": ["15 ", "12", "9", "15"], "num2": [5, 5, 3, 2, 2], "num3": [3, 3, 3, 9, 9], "conditions": [18, 1200, "v", 18000], "internal_node_id": "0.0-9.0", "key_presses": [49, 53, 32, 13, 49, 50, 13, 49, 8, 57, 13, 49, 53, 13], "trial": 0, "time_elapsed": 102672, "type": "DISTRACTOR", "trial_index": 9, "num1": [8, 4, 3, 3, 9]}, "uniqueid": "MTK1821:3SB4CE2TJW28E7P54CL4UFJTPK3XAT", "dateTime": 1516477933708}, {"current_trial": 10, "trialdata": {"rt": -1, "trial_type": "single-stim", "stimulus": "<p id=\"stim\">10</p>", "internal_node_id": "0.0-10.0-0.0", "time_elapsed": 105683, "key_press": -1, "trial_index": 10}, "uniqueid": "MTK1821:3SB4CE2TJW28E7P54CL4UFJTPK3XAT", "dateTime": 1516477936719}, {"current_trial": 11, "trialdata": {"rt": -1, "trial_type": "single-stim", "stimulus": "<p id=\"stim\">9</p>", "internal_node_id": "0.0-10.0-1.0", "time_elapsed": 106689, "key_press": -1, "trial_index": 11}, "uniqueid": "MTK1821:3SB4CE2TJW28E7P54CL4UFJTPK3XAT", "dateTime": 1516477937724}, {"current_trial": 12, "trialdata": {"rt": -1, "trial_type": "single-stim", "stimulus": "<p id=\"stim\">8</p>", "internal_node_id": "0.0-10.0-2.0", "time_elapsed": 107695, "key_press": -1, "trial_index": 12}, "uniqueid": "MTK1821:3SB4CE2TJW28E7P54CL4UFJTPK3XAT", "dateTime": 1516477938730}, {"current_trial": 13, "trialdata": {"rt": -1, "trial_type": "single-stim", "stimulus": "<p id=\"stim\">7</p>", "internal_node_id": "0.0-10.0-3.0", "time_elapsed": 108698, "key_press": -1, "trial_index": 13}, "uniqueid": "MTK1821:3SB4CE2TJW28E7P54CL4UFJTPK3XAT", "dateTime": 1516477939733}, {"current_trial": 14, "trialdata": {"rt": -1, "trial_type": "single-stim", "stimulus": "<p id=\"stim\">6</p>", "internal_node_id": "0.0-10.0-4.0", "time_elapsed": 109701, "key_press": -1, "trial_index": 14}, "uniqueid": "MTK1821:3SB4CE2TJW28E7P54CL4UFJTPK3XAT", "dateTime": 1516477940736}, {"current_trial": 15, "trialdata": {"rt": -1, "trial_type": "single-stim", "stimulus": "<p id=\"stim\">5</p>", "internal_node_id": "0.0-10.0-5.0", "time_elapsed": 110704, "key_press": -1, "trial_index": 15}, "uniqueid": "MTK1821:3SB4CE2TJW28E7P54CL4UFJTPK3XAT", "dateTime": 1516477941740}, {"current_trial": 16, "trialdata": {"rt": -1, "trial_type": "single-stim", "stimulus": "<p id=\"stim\">4</p>", "internal_node_id": "0.0-10.0-6.0", "time_elapsed": 111708, "key_press": -1, "trial_index": 16}, "uniqueid": "MTK1821:3SB4CE2TJW28E7P54CL4UFJTPK3XAT", "dateTime": 1516477942743}, {"current_trial": 17, "trialdata": {"rt": -1, "trial_type": "single-stim", "stimulus": "<p id=\"stim\">3</p>", "internal_node_id": "0.0-10.0-7.0", "time_elapsed": 112710, "key_press": -1, "trial_index": 17}, "uniqueid": "MTK1821:3SB4CE2TJW28E7P54CL4UFJTPK3XAT", "dateTime": 1516477943746}, {"current_trial": 18, "trialdata": {"rt": -1, "trial_type": "single-stim", "stimulus": "<p id=\"stim\">2</p>", "internal_node_id": "0.0-10.0-8.0", "time_elapsed": 113714, "key_press": -1, "trial_index": 18}, "uniqueid": "MTK1821:3SB4CE2TJW28E7P54CL4UFJTPK3XAT", "dateTime": 1516477944750}, {"current_trial": 19, "trialdata": {"rt": -1, "trial_type": "single-stim", "stimulus": "<p id=\"stim\">1</p>", "internal_node_id": "0.0-10.0-9.0", "time_elapsed": 114717, "key_press": -1, "trial_index": 19}, "uniqueid": "MTK1821:3SB4CE2TJW28E7P54CL4UFJTPK3XAT", "dateTime": 1516477945753}, {"current_trial": 20, "trialdata": {"rt": -1, "trial_type": "single-stim", "stimulus": "<p id=\"stim\">+</p>", "internal_node_id": "0.0-11.0-0.0", "time_elapsed": 116224, "key_press": -1, "type": "FIXATION", "trial_index": 20}, "uniqueid": "MTK1821:3SB4CE2TJW28E7P54CL4UFJTPK3XAT", "dateTime": 1516477947259}, {"current_trial": 21, "trialdata": {"rt": -1, "trial_type": "single-stim", "word": "spouse", "stimulus": "<p id=\"stim\">SPOUSE</p>", "conditions": [18, 1200, "v", 18000], "internal_node_id": "0.0-12.0", "trial": 0, "time_elapsed": 117429, "serialpos": 0, "key_press": -1, "wordID": 1357, "type": "PRES_VIS", "trial_index": 21}, "uniqueid": "MTK1821:3SB4CE2TJW28E7P54CL4UFJTPK3XAT", "dateTime": 1516477948465}, {"current_trial": 22, "trialdata": {"rt": -1, "trial_type": "single-stim", "word": "saddle", "stimulus": "<p id=\"stim\">SADDLE</p>", "conditions": [18, 1200, "v", 18000], "internal_node_id": "0.0-13.0", "trial": 0, "time_elapsed": 119683, "serialpos": 1, "key_press": -1, "wordID": 1220, "type": "PRES_VIS", "trial_index": 22}, "uniqueid": "MTK1821:3SB4CE2TJW28E7P54CL4UFJTPK3XAT", "dateTime": 1516477950718}, {"current_trial": 23, "trialdata": {"rt": -1, "trial_type": "single-stim", "word": "dashboard", "stimulus": "<p id=\"stim\">DASHBOARD</p>", "conditions": [18, 1200, "v", 18000], "internal_node_id": "0.0-14.0", "trial": 0, "time_elapsed": 121850, "serialpos": 2, "key_press": -1, "wordID": 440, "type": "PRES_VIS", "trial_index": 23}, "uniqueid": "MTK1821:3SB4CE2TJW28E7P54CL4UFJTPK3XAT", "dateTime": 1516477952885}, {"current_trial": 24, "trialdata": {"rt": -1, "trial_type": "single-stim", "word": "virus", "stimulus": "<p id=\"stim\">VIRUS</p>", "conditions": [18, 1200, "v", 18000], "internal_node_id": "0.0-15.0", "trial": 0, "time_elapsed": 124066, "serialpos": 3, "key_press": -1, "wordID": 1571, "type": "PRES_VIS", "trial_index": 24}, "uniqueid": "MTK1821:3SB4CE2TJW28E7P54CL4UFJTPK3XAT", "dateTime": 1516477955101}, {"current_trial": 25, "trialdata": {"rt": -1, "trial_type": "single-stim", "word": "beast", "stimulus": "<p id=\"stim\">BEAST</p>", "conditions": [18, 1200, "v", 18000], "internal_node_id": "0.0-16.0", "trial": 0, "time_elapsed": 126166, "serialpos": 4, "key_press": -1, "wordID": 107, "type": "PRES_VIS", "trial_index": 25}, "uniqueid": "MTK1821:3SB4CE2TJW28E7P54CL4UFJTPK3XAT", "dateTime": 1516477957201}, {"current_trial": 26, "trialdata": {"rt": -1, "trial_type": "single-stim", "word": "hound", "stimulus": "<p id=\"stim\">HOUND</p>", "conditions": [18, 1200, "v", 18000], "internal_node_id": "0.0-17.0", "trial": 0, "time_elapsed": 128300, "serialpos": 5, "key_press": -1, "wordID": 723, "type": "PRES_VIS", "trial_index": 26}, "uniqueid": "MTK1821:3SB4CE2TJW28E7P54CL4UFJTPK3XAT", "dateTime": 1516477959335}, {"current_trial": 27, "trialdata": {"rt": -1, "trial_type": "single-stim", "word": "tribe", "stimulus": "<p id=\"stim\">TRIBE</p>", "conditions": [18, 1200, "v", 18000], "internal_node_id": "0.0-18.0", "trial": 0, "time_elapsed": 130568, "serialpos": 6, "key_press": -1, "wordID": 1504, "type": "PRES_VIS", "trial_index": 27}, "uniqueid": "MTK1821:3SB4CE2TJW28E7P54CL4UFJTPK3XAT", "dateTime": 1516477961603}, {"current_trial": 28, "trialdata": {"rt": -1, "trial_type": "single-stim", "word": "staple", "stimulus": "<p id=\"stim\">STAPLE</p>", "conditions": [18, 1200, "v", 18000], "internal_node_id": "0.0-19.0", "trial": 0, "time_elapsed": 132653, "serialpos": 7, "key_press": -1, "wordID": 1370, "type": "PRES_VIS", "trial_index": 28}, "uniqueid": "MTK1821:3SB4CE2TJW28E7P54CL4UFJTPK3XAT", "dateTime": 1516477963689}, {"current_trial": 29, "trialdata": {"rt": -1, "trial_type": "single-stim", "word": "match", "stimulus": "<p id=\"stim\">MATCH</p>", "conditions": [18, 1200, "v", 18000], "internal_node_id": "0.0-20.0", "trial": 0, "time_elapsed": 134678, "serialpos": 8, "key_press": -1, "wordID": 877, "type": "PRES_VIS", "trial_index": 29}, "uniqueid": "MTK1821:3SB4CE2TJW28E7P54CL4UFJTPK3XAT", "dateTime": 1516477965713}, {"current_trial": 30, "trialdata": {"rt": -1, "trial_type": "single-stim", "word": "novel", "stimulus": "<p id=\"stim\">NOVEL</p>", "conditions": [18, 1200, "v", 18000], "internal_node_id": "0.0-21.0", "trial": 0, "time_elapsed": 136978, "serialpos": 9, "key_press": -1, "wordID": 959, "type": "PRES_VIS", "trial_index": 30}, "uniqueid": "MTK1821:3SB4CE2TJW28E7P54CL4UFJTPK3XAT", "dateTime": 1516477968014}, {"current_trial": 31, "trialdata": {"rt": -1, "trial_type": "single-stim", "word": "ulcer", "stimulus": "<p id=\"stim\">ULCER</p>", "conditions": [18, 1200, "v", 18000], "internal_node_id": "0.0-22.0", "trial": 0, "time_elapsed": 139075, "serialpos": 10, "key_press": -1, "wordID": 1532, "type": "PRES_VIS", "trial_index": 31}, "uniqueid": "MTK1821:3SB4CE2TJW28E7P54CL4UFJTPK3XAT", "dateTime": 1516477970112}, {"current_trial": 32, "trialdata": {"rt": -1, "trial_type": "single-stim", "word": "cigar", "stimulus": "<p id=\"stim\">CIGAR</p>", "conditions": [18, 1200, "v", 18000], "internal_node_id": "0.0-23.0", "trial": 0, "time_elapsed": 141337, "serialpos": 11, "key_press": -1, "wordID": 307, "type": "PRES_VIS", "trial_index": 32}, "uniqueid": "MTK1821:3SB4CE2TJW28E7P54CL4UFJTPK3XAT", "dateTime": 1516477972372}, {"current_trial": 33, "trialdata": {"rt": -1, "trial_type": "single-stim", "word": "orchid", "stimulus": "<p id=\"stim\">ORCHID</p>", "conditions": [18, 1200, "v", 18000], "internal_node_id": "0.0-24.0", "trial": 0, "time_elapsed": 143568, "serialpos": 12, "key_press": -1, "wordID": 981, "type": "PRES_VIS", "trial_index": 33}, "uniqueid": "MTK1821:3SB4CE2TJW28E7P54CL4UFJTPK3XAT", "dateTime": 1516477974603}, {"current_trial": 34, "trialdata": {"rt": -1, "trial_type": "single-stim", "word": "cross", "stimulus": "<p id=\"stim\">CROSS</p>", "conditions": [18, 1200, "v", 18000], "internal_node_id": "0.0-25.0", "trial": 0, "time_elapsed": 145612, "serialpos": 13, "key_press": -1, "wordID": 412, "type": "PRES_VIS", "trial_index": 34}, "uniqueid": "MTK1821:3SB4CE2TJW28E7P54CL4UFJTPK3XAT", "dateTime": 1516477976648}, {"current_trial": 35, "trialdata": {"rt": -1, "trial_type": "single-stim", "word": "turnip", "stimulus": "<p id=\"stim\">TURNIP</p>", "conditions": [18, 1200, "v", 18000], "internal_node_id": "0.0-26.0", "trial": 0, "time_elapsed": 147899, "serialpos": 14, "key_press": -1, "wordID": 1520, "type": "PRES_VIS", "trial_index": 35}, "uniqueid": "MTK1821:3SB4CE2TJW28E7P54CL4UFJTPK3XAT", "dateTime": 1516477978935}, {"current_trial": 36, "trialdata": {"rt": -1, "trial_type": "single-stim", "word": "finger", "stimulus": "<p id=\"stim\">FINGER</p>", "conditions": [18, 1200, "v", 18000], "internal_node_id": "0.0-27.0", "trial": 0, "time_elapsed": 150178, "serialpos": 15, "key_press": -1, "wordID": 566, "type": "PRES_VIS", "trial_index": 36}, "uniqueid": "MTK1821:3SB4CE2TJW28E7P54CL4UFJTPK3XAT", "dateTime": 1516477981214}, {"current_trial": 37, "trialdata": {"rt": -1, "trial_type": "single-stim", "word": "pistol", "stimulus": "<p id=\"stim\">PISTOL</p>", "conditions": [18, 1200, "v", 18000], "internal_node_id": "0.0-28.0", "trial": 0, "time_elapsed": 152523, "serialpos": 16, "key_press": -1, "wordID": 1074, "type": "PRES_VIS", "trial_index": 37}, "uniqueid": "MTK1821:3SB4CE2TJW28E7P54CL4UFJTPK3XAT", "dateTime": 1516477983559}, {"current_trial": 38, "trialdata": {"rt": -1, "trial_type": "single-stim", "word": "lover", "stimulus": "<p id=\"stim\">LOVER</p>", "conditions": [18, 1200, "v", 18000], "internal_node_id": "0.0-29.0", "trial": 0, "time_elapsed": 154547, "serialpos": 17, "key_press": -1, "wordID": 845, "type": "PRES_VIS", "trial_index": 38}, "uniqueid": "MTK1821:3SB4CE2TJW28E7P54CL4UFJTPK3XAT", "dateTime": 1516477985583}, {"current_trial": 39, "trialdata": {"rt": -1, "trial_type": "single-stim", "stimulus": "", "internal_node_id": "0.0-30.0-0.0", "time_elapsed": 156705, "key_press": -1, "type": "PRE_RECALL_DELAY", "trial_index": 39}, "uniqueid": "MTK1821:3SB4CE2TJW28E7P54CL4UFJTPK3XAT", "dateTime": 1516477987740}, {"current_trial": 40, "trialdata": {"rt": -1000, "trial_type": "single-audio", "stimulus": "/static/audio/400Hz.wav", "internal_node_id": "0.0-31.0", "time_elapsed": 157232, "key_press": -1, "type": "PRE_RECALL_ALERT", "trial_index": 40}, "uniqueid": "MTK1821:3SB4CE2TJW28E7P54CL4UFJTPK3XAT", "dateTime": 1516477988267}, {"current_trial": 41, "trialdata": {"rt": [4487, 7419, 16699, 22828, 28051], "recwords": ["spice", "sugar", "laddle", "card", "spouse"], "key_times": [3192, 3252, 3468, 3606, 3899, 4487, 6110, 6170, 6420, 6831, 7206, 7419, 15601, 15742, 16005, 16157, 16290, 16409, 16699, 20565, 21479, 21821, 22065, 22828, 23088, 23600, 24002, 24112, 24318, 24947, 25333, 25492, 27241, 27611, 27674, 27923, 28051], "trial_type": "free-recall", "conditions": [18, 1200, "v", 18000], "internal_node_id": "0.0-32.0-0.0", "key_presses": [83, 80, 73, 67, 69, 32, 83, 85, 71, 65, 82, 32, 76, 65, 68, 68, 76, 69, 13, 67, 65, 82, 68, 13, 83, 80, 73, 83, 69, 8, 8, 8, 79, 85, 83, 69, 13], "trial": 0, "time_elapsed": 217246, "type": "FREE_RECALL", "trial_index": 41}, "uniqueid": "MTK1821:3SB4CE2TJW28E7P54CL4UFJTPK3XAT", "dateTime": 1516478048305}, {"current_trial": 42, "trialdata": {"rt": 2606, "trial_type": "text", "internal_node_id": "0.0-33.0", "time_elapsed": 221879, "key_press": 66, "type": "INSTRUCTIONS", "trial_index": 42}, "uniqueid": "MTK1821:3SB4CE2TJW28E7P54CL4UFJTPK3XAT", "dateTime": 1516478052915}, {"current_trial": 43, "trialdata": {"rt": [11882, 17599], "trial_type": "math-distractor", "key_times": [8649, 10587, 11882, 14589, 14928, 15634, 16627, 17599], "responses": ["9 ", "21"], "num2": [3, 8, 8], "num3": [5, 4, 8], "conditions": [18, 1200, "v", 18000], "internal_node_id": "0.0-34.0", "key_presses": [57, 32, 13, 50, 49, 222, 8, 13], "trial": 1, "time_elapsed": 241890, "type": "DISTRACTOR", "trial_index": 43, "num1": [1, 9, 4]}, "uniqueid": "MTK1821:3SB4CE2TJW28E7P54CL4UFJTPK3XAT", "dateTime": 1516478072925}, {"current_trial": 44, "trialdata": {"rt": -1, "trial_type": "single-stim", "stimulus": "<p id=\"stim\">10</p>", "internal_node_id": "0.0-35.0-0.0", "time_elapsed": 244894, "key_press": -1, "trial_index": 44}, "uniqueid": "MTK1821:3SB4CE2TJW28E7P54CL4UFJTPK3XAT", "dateTime": 1516478075930}, {"current_trial": 45, "trialdata": {"rt": -1, "trial_type": "single-stim", "stimulus": "<p id=\"stim\">9</p>", "internal_node_id": "0.0-35.0-1.0", "time_elapsed": 245898, "key_press": -1, "trial_index": 45}, "uniqueid": "MTK1821:3SB4CE2TJW28E7P54CL4UFJTPK3XAT", "dateTime": 1516478076933}, {"current_trial": 46, "trialdata": {"rt": -1, "trial_type": "single-stim", "stimulus": "<p id=\"stim\">8</p>", "internal_node_id": "0.0-35.0-2.0", "time_elapsed": 246901, "key_press": -1, "trial_index": 46}, "uniqueid": "MTK1821:3SB4CE2TJW28E7P54CL4UFJTPK3XAT", "dateTime": 1516478077936}, {"current_trial": 47, "trialdata": {"rt": -1, "trial_type": "single-stim", "stimulus": "<p id=\"stim\">7</p>", "internal_node_id": "0.0-35.0-3.0", "time_elapsed": 247904, "key_press": -1, "trial_index": 47}, "uniqueid": "MTK1821:3SB4CE2TJW28E7P54CL4UFJTPK3XAT", "dateTime": 1516478078939}, {"current_trial": 48, "trialdata": {"rt": -1, "trial_type": "single-stim", "stimulus": "<p id=\"stim\">6</p>", "internal_node_id": "0.0-35.0-4.0", "time_elapsed": 248907, "key_press": -1, "trial_index": 48}, "uniqueid": "MTK1821:3SB4CE2TJW28E7P54CL4UFJTPK3XAT", "dateTime": 1516478079947}, {"current_trial": 49, "trialdata": {"rt": -1, "trial_type": "single-stim", "stimulus": "<p id=\"stim\">5</p>", "internal_node_id": "0.0-35.0-5.0", "time_elapsed": 249917, "key_press": -1, "trial_index": 49}, "uniqueid": "MTK1821:3SB4CE2TJW28E7P54CL4UFJTPK3XAT", "dateTime": 1516478080953}, {"current_trial": 50, "trialdata": {"rt": -1, "trial_type": "single-stim", "stimulus": "<p id=\"stim\">4</p>", "internal_node_id": "0.0-35.0-6.0", "time_elapsed": 250920, "key_press": -1, "trial_index": 50}, "uniqueid": "MTK1821:3SB4CE2TJW28E7P54CL4UFJTPK3XAT", "dateTime": 1516478081955}, {"current_trial": 51, "trialdata": {"rt": -1, "trial_type": "single-stim", "stimulus": "<p id=\"stim\">3</p>", "internal_node_id": "0.0-35.0-7.0", "time_elapsed": 251922, "key_press": -1, "trial_index": 51}, "uniqueid": "MTK1821:3SB4CE2TJW28E7P54CL4UFJTPK3XAT", "dateTime": 1516478082958}, {"current_trial": 52, "trialdata": {"rt": -1, "trial_type": "single-stim", "stimulus": "<p id=\"stim\">2</p>", "internal_node_id": "0.0-35.0-8.0", "time_elapsed": 252926, "key_press": -1, "trial_index": 52}, "uniqueid": "MTK1821:3SB4CE2TJW28E7P54CL4UFJTPK3XAT", "dateTime": 1516478083962}, {"current_trial": 53, "trialdata": {"rt": -1, "trial_type": "single-stim", "stimulus": "<p id=\"stim\">1</p>", "internal_node_id": "0.0-35.0-9.0", "time_elapsed": 253932, "key_press": -1, "trial_index": 53}, "uniqueid": "MTK1821:3SB4CE2TJW28E7P54CL4UFJTPK3XAT", "dateTime": 1516478084967}, {"current_trial": 54, "trialdata": {"rt": -1, "trial_type": "single-stim", "stimulus": "<p id=\"stim\">+</p>", "internal_node_id": "0.0-36.0-0.0", "time_elapsed": 255436, "key_press": -1, "type": "FIXATION", "trial_index": 54}, "uniqueid": "MTK1821:3SB4CE2TJW28E7P54CL4UFJTPK3XAT", "dateTime": 1516478086473}, {"current_trial": 55, "trialdata": {"rt": -1, "trial_type": "single-stim", "word": "candy", "stimulus": "<p id=\"stim\">CANDY</p>", "conditions": [18, 1200, "v", 18000], "internal_node_id": "0.0-37.0", "trial": 1, "time_elapsed": 256642, "serialpos": 0, "key_press": -1, "wordID": 229, "type": "PRES_VIS", "trial_index": 55}, "uniqueid": "MTK1821:3SB4CE2TJW28E7P54CL4UFJTPK3XAT", "dateTime": 1516478087678}, {"current_trial": 56, "trialdata": {"rt": -1, "trial_type": "single-stim", "word": "hook", "stimulus": "<p id=\"stim\">HOOK</p>", "conditions": [18, 1200, "v", 18000], "internal_node_id": "0.0-38.0", "trial": 1, "time_elapsed": 258896, "serialpos": 1, "key_press": -1, "wordID": 714, "type": "PRES_VIS", "trial_index": 56}, "uniqueid": "MTK1821:3SB4CE2TJW28E7P54CL4UFJTPK3XAT", "dateTime": 1516478089931}, {"current_trial": 57, "trialdata": {"rt": -1, "trial_type": "single-stim", "word": "permit", "stimulus": "<p id=\"stim\">PERMIT</p>", "conditions": [18, 1200, "v", 18000], "internal_node_id": "0.0-39.0", "trial": 1, "time_elapsed": 260919, "serialpos": 2, "key_press": -1, "wordID": 1050, "type": "PRES_VIS", "trial_index": 57}, "uniqueid": "MTK1821:3SB4CE2TJW28E7P54CL4UFJTPK3XAT", "dateTime": 1516478091954}, {"current_trial": 58, "trialdata": {"rt": -1, "trial_type": "single-stim", "word": "clamp", "stimulus": "<p id=\"stim\">CLAMP</p>", "conditions": [18, 1200, "v", 18000], "internal_node_id": "0.0-40.0", "trial": 1, "time_elapsed": 263091, "serialpos": 3, "key_press": -1, "wordID": 315, "type": "PRES_VIS", "trial_index": 58}, "uniqueid": "MTK1821:3SB4CE2TJW28E7P54CL4UFJTPK3XAT", "dateTime": 1516478094127}, {"current_trial": 59, "trialdata": {"rt": -1, "trial_type": "single-stim", "word": "shrub", "stimulus": "<p id=\"stim\">SHRUB</p>", "conditions": [18, 1200, "v", 18000], "internal_node_id": "0.0-41.0", "trial": 1, "time_elapsed": 265361, "serialpos": 4, "key_press": -1, "wordID": 1298, "type": "PRES_VIS", "trial_index": 59}, "uniqueid": "MTK1821:3SB4CE2TJW28E7P54CL4UFJTPK3XAT", "dateTime": 1516478096397}, {"current_trial": 60, "trialdata": {"rt": -1, "trial_type": "single-stim", "word": "blueprint", "stimulus": "<p id=\"stim\">BLUEPRINT</p>", "conditions": [18, 1200, "v", 18000], "internal_node_id": "0.0-42.0", "trial": 1, "time_elapsed": 267413, "serialpos": 5, "key_press": -1, "wordID": 141, "type": "PRES_VIS", "trial_index": 60}, "uniqueid": "MTK1821:3SB4CE2TJW28E7P54CL4UFJTPK3XAT", "dateTime": 1516478098449}, {"current_trial": 61, "trialdata": {"rt": -1, "trial_type": "single-stim", "word": "guitar", "stimulus": "<p id=\"stim\">GUITAR</p>", "conditions": [18, 1200, "v", 18000], "internal_node_id": "0.0-43.0", "trial": 1, "time_elapsed": 269656, "serialpos": 6, "key_press": -1, "wordID": 669, "type": "PRES_VIS", "trial_index": 61}, "uniqueid": "MTK1821:3SB4CE2TJW28E7P54CL4UFJTPK3XAT", "dateTime": 1516478100692}, {"current_trial": 62, "trialdata": {"rt": -1, "trial_type": "single-stim", "word": "perfume", "stimulus": "<p id=\"stim\">PERFUME</p>", "conditions": [18, 1200, "v", 18000], "internal_node_id": "0.0-44.0", "trial": 1, "time_elapsed": 271783, "serialpos": 7, "key_press": -1, "wordID": 1048, "type": "PRES_VIS", "trial_index": 62}, "uniqueid": "MTK1821:3SB4CE2TJW28E7P54CL4UFJTPK3XAT", "dateTime": 1516478102818}, {"current_trial": 63, "trialdata": {"rt": -1, "trial_type": "single-stim", "word": "donkey", "stimulus": "<p id=\"stim\">DONKEY</p>", "conditions": [18, 1200, "v", 18000], "internal_node_id": "0.0-45.0", "trial": 1, "time_elapsed": 273977, "serialpos": 8, "key_press": -1, "wordID": 483, "type": "PRES_VIS", "trial_index": 63}, "uniqueid": "MTK1821:3SB4CE2TJW28E7P54CL4UFJTPK3XAT", "dateTime": 1516478105013}, {"current_trial": 64, "trialdata": {"rt": -1, "trial_type": "single-stim", "word": "switch", "stimulus": "<p id=\"stim\">SWITCH</p>", "conditions": [18, 1200, "v", 18000], "internal_node_id": "0.0-46.0", "trial": 1, "time_elapsed": 276133, "serialpos": 9, "key_press": -1, "wordID": 1421, "type": "PRES_VIS", "trial_index": 64}, "uniqueid": "MTK1821:3SB4CE2TJW28E7P54CL4UFJTPK3XAT", "dateTime": 1516478107169}, {"current_trial": 65, "trialdata": {"rt": -1, "trial_type": "single-stim", "word": "carrot", "stimulus": "<p id=\"stim\">CARROT</p>", "conditions": [18, 1200, "v", 18000], "internal_node_id": "0.0-47.0", "trial": 1, "time_elapsed": 278464, "serialpos": 10, "key_press": -1, "wordID": 248, "type": "PRES_VIS", "trial_index": 65}, "uniqueid": "MTK1821:3SB4CE2TJW28E7P54CL4UFJTPK3XAT", "dateTime": 1516478109500}, {"current_trial": 66, "trialdata": {"rt": -1, "trial_type": "single-stim", "word": "lily", "stimulus": "<p id=\"stim\">LILY</p>", "conditions": [18, 1200, "v", 18000], "internal_node_id": "0.0-48.0", "trial": 1, "time_elapsed": 280749, "serialpos": 11, "key_press": -1, "wordID": 820, "type": "PRES_VIS", "trial_index": 66}, "uniqueid": "MTK1821:3SB4CE2TJW28E7P54CL4UFJTPK3XAT", "dateTime": 1516478111784}, {"current_trial": 67, "trialdata": {"rt": -1, "trial_type": "single-stim", "word": "hatchet", "stimulus": "<p id=\"stim\">HATCHET</p>", "conditions": [18, 1200, "v", 18000], "internal_node_id": "0.0-49.0", "trial": 1, "time_elapsed": 282931, "serialpos": 12, "key_press": -1, "wordID": 690, "type": "PRES_VIS", "trial_index": 67}, "uniqueid": "MTK1821:3SB4CE2TJW28E7P54CL4UFJTPK3XAT", "dateTime": 1516478113966}, {"current_trial": 68, "trialdata": {"rt": -1, "trial_type": "single-stim", "word": "butcher", "stimulus": "<p id=\"stim\">BUTCHER</p>", "conditions": [18, 1200, "v", 18000], "internal_node_id": "0.0-50.0", "trial": 1, "time_elapsed": 285062, "serialpos": 13, "key_press": -1, "wordID": 202, "type": "PRES_VIS", "trial_index": 68}, "uniqueid": "MTK1821:3SB4CE2TJW28E7P54CL4UFJTPK3XAT", "dateTime": 1516478116098}, {"current_trial": 69, "trialdata": {"rt": -1, "trial_type": "single-stim", "word": "breast", "stimulus": "<p id=\"stim\">BREAST</p>", "conditions": [18, 1200, "v", 18000], "internal_node_id": "0.0-51.0", "trial": 1, "time_elapsed": 287121, "serialpos": 14, "key_press": -1, "wordID": 170, "type": "PRES_VIS", "trial_index": 69}, "uniqueid": "MTK1821:3SB4CE2TJW28E7P54CL4UFJTPK3XAT", "dateTime": 1516478118156}, {"current_trial": 70, "trialdata": {"rt": -1, "trial_type": "single-stim", "word": "compass", "stimulus": "<p id=\"stim\">COMPASS</p>", "conditions": [18, 1200, "v", 18000], "internal_node_id": "0.0-52.0", "trial": 1, "time_elapsed": 289170, "serialpos": 15, "key_press": -1, "wordID": 357, "type": "PRES_VIS", "trial_index": 70}, "uniqueid": "MTK1821:3SB4CE2TJW28E7P54CL4UFJTPK3XAT", "dateTime": 1516478120205}, {"current_trial": 71, "trialdata": {"rt": -1, "trial_type": "single-stim", "word": "kidney", "stimulus": "<p id=\"stim\">KIDNEY</p>", "conditions": [18, 1200, "v", 18000], "internal_node_id": "0.0-53.0", "trial": 1, "time_elapsed": 291339, "serialpos": 16, "key_press": -1, "wordID": 775, "type": "PRES_VIS", "trial_index": 71}, "uniqueid": "MTK1821:3SB4CE2TJW28E7P54CL4UFJTPK3XAT", "dateTime": 1516478122374}, {"current_trial": 72, "trialdata": {"rt": -1, "trial_type": "single-stim", "word": "flask", "stimulus": "<p id=\"stim\">FLASK</p>", "conditions": [18, 1200, "v", 18000], "internal_node_id": "0.0-54.0", "trial": 1, "time_elapsed": 293526, "serialpos": 17, "key_press": -1, "wordID": 575, "type": "PRES_VIS", "trial_index": 72}, "uniqueid": "MTK1821:3SB4CE2TJW28E7P54CL4UFJTPK3XAT", "dateTime": 1516478124561}, {"current_trial": 73, "trialdata": {"rt": -1, "trial_type": "single-stim", "stimulus": "", "internal_node_id": "0.0-55.0-0.0", "time_elapsed": 295845, "key_press": -1, "type": "PRE_RECALL_DELAY", "trial_index": 73}, "uniqueid": "MTK1821:3SB4CE2TJW28E7P54CL4UFJTPK3XAT", "dateTime": 1516478126882}, {"current_trial": 74, "trialdata": {"rt": -1000, "trial_type": "single-audio", "stimulus": "/static/audio/400Hz.wav", "internal_node_id": "0.0-56.0", "time_elapsed": 296353, "key_press": -1, "type": "PRE_RECALL_ALERT", "trial_index": 74}, "uniqueid": "MTK1821:3SB4CE2TJW28E7P54CL4UFJTPK3XAT", "dateTime": 1516478127389}, {"current_trial": 75, "trialdata": {"rt": [8451, 11020, 14369, 18333], "recwords": ["spice", "delay", "spouse", "car"], "key_times": [3326, 3515, 3860, 4080, 4504, 5104, 5232, 5377, 5507, 6542, 7079, 7278, 8275, 8451, 8862, 9118, 9593, 9952, 10360, 11020, 11612, 11708, 12298, 13149, 13281, 13539, 14369, 15057, 15517, 16042, 17127, 18039, 18333], "trial_type": "free-recall", "conditions": [18, 1200, "v", 18000], "internal_node_id": "0.0-57.0-0.0", "key_presses": [83, 219, 73, 67, 69, 8, 8, 8, 8, 80, 73, 67, 69, 13, 68, 69, 76, 65, 89, 13, 83, 80, 79, 85, 83, 69, 13, 67, 65, 82, 222, 8, 13], "trial": 1, "time_elapsed": 356361, "type": "FREE_RECALL", "trial_index": 75}, "uniqueid": "MTK1821:3SB4CE2TJW28E7P54CL4UFJTPK3XAT", "dateTime": 1516478187413}, {"current_trial": 76, "trialdata": {"rt": 10445, "trial_type": "text", "internal_node_id": "0.0-58.0", "time_elapsed": 368826, "key_press": 72, "type": "INSTRUCTIONS", "trial_index": 76}, "uniqueid": "MTK1821:3SB4CE2TJW28E7P54CL4UFJTPK3XAT", "dateTime": 1516478199862}, {"current_trial": 77, "trialdata": {"rt": [6535, 9907, 15788, 22014], "trial_type": "math-distractor", "key_times": [2801, 4915, 6150, 6535, 8335, 9907, 11831, 13069, 14488, 14561, 15788, 21146, 21356, 22014], "responses": ["5", "8", "15", "2o"], "num2": [1, 3, 2, 5, 4], "num3": [2, 2, 5, 9, 5], "conditions": [12, 1600, "v", 24000], "internal_node_id": "0.0-59.0", "key_presses": [53, 32, 8, 13, 56, 13, 50, 8, 49, 53, 13, 50, 79, 13], "trial": 2, "time_elapsed": 393844, "type": "DISTRACTOR", "trial_index": 77, "num1": [2, 3, 8, 6, 2]}, "uniqueid": "MTK1821:3SB4CE2TJW28E7P54CL4UFJTPK3XAT", "dateTime": 1516478224880}, {"current_trial": 78, "trialdata": {"rt": -1, "trial_type": "single-stim", "stimulus": "<p id=\"stim\">10</p>", "internal_node_id": "0.0-60.0-0.0", "time_elapsed": 396847, "key_press": -1, "trial_index": 78}, "uniqueid": "MTK1821:3SB4CE2TJW28E7P54CL4UFJTPK3XAT", "dateTime": 1516478227883}, {"current_trial": 79, "trialdata": {"rt": -1, "trial_type": "single-stim", "stimulus": "<p id=\"stim\">9</p>", "internal_node_id": "0.0-60.0-1.0", "time_elapsed": 397850, "key_press": -1, "trial_index": 79}, "uniqueid": "MTK1821:3SB4CE2TJW28E7P54CL4UFJTPK3XAT", "dateTime": 1516478228886}, {"current_trial": 80, "trialdata": {"rt": -1, "trial_type": "single-stim", "stimulus": "<p id=\"stim\">8</p>", "internal_node_id": "0.0-60.0-2.0", "time_elapsed": 398853, "key_press": -1, "trial_index": 80}, "uniqueid": "MTK1821:3SB4CE2TJW28E7P54CL4UFJTPK3XAT", "dateTime": 1516478229888}, {"current_trial": 81, "trialdata": {"rt": -1, "trial_type": "single-stim", "stimulus": "<p id=\"stim\">7</p>", "internal_node_id": "0.0-60.0-3.0", "time_elapsed": 399857, "key_press": -1, "trial_index": 81}, "uniqueid": "MTK1821:3SB4CE2TJW28E7P54CL4UFJTPK3XAT", "dateTime": 1516478230893}, {"current_trial": 82, "trialdata": {"rt": -1, "trial_type": "single-stim", "stimulus": "<p id=\"stim\">6</p>", "internal_node_id": "0.0-60.0-4.0", "time_elapsed": 400860, "key_press": -1, "trial_index": 82}, "uniqueid": "MTK1821:3SB4CE2TJW28E7P54CL4UFJTPK3XAT", "dateTime": 1516478231895}, {"current_trial": 83, "trialdata": {"rt": -1, "trial_type": "single-stim", "stimulus": "<p id=\"stim\">5</p>", "internal_node_id": "0.0-60.0-5.0", "time_elapsed": 401862, "key_press": -1, "trial_index": 83}, "uniqueid": "MTK1821:3SB4CE2TJW28E7P54CL4UFJTPK3XAT", "dateTime": 1516478232898}, {"current_trial": 84, "trialdata": {"rt": -1, "trial_type": "single-stim", "stimulus": "<p id=\"stim\">4</p>", "internal_node_id": "0.0-60.0-6.0", "time_elapsed": 402864, "key_press": -1, "trial_index": 84}, "uniqueid": "MTK1821:3SB4CE2TJW28E7P54CL4UFJTPK3XAT", "dateTime": 1516478233900}, {"current_trial": 85, "trialdata": {"rt": -1, "trial_type": "single-stim", "stimulus": "<p id=\"stim\">3</p>", "internal_node_id": "0.0-60.0-7.0", "time_elapsed": 403869, "key_press": -1, "trial_index": 85}, "uniqueid": "MTK1821:3SB4CE2TJW28E7P54CL4UFJTPK3XAT", "dateTime": 1516478234904}, {"current_trial": 86, "trialdata": {"rt": -1, "trial_type": "single-stim", "stimulus": "<p id=\"stim\">2</p>", "internal_node_id": "0.0-60.0-8.0", "time_elapsed": 404871, "key_press": -1, "trial_index": 86}, "uniqueid": "MTK1821:3SB4CE2TJW28E7P54CL4UFJTPK3XAT", "dateTime": 1516478235906}, {"current_trial": 87, "trialdata": {"rt": -1, "trial_type": "single-stim", "stimulus": "<p id=\"stim\">1</p>", "internal_node_id": "0.0-60.0-9.0", "time_elapsed": 405873, "key_press": -1, "trial_index": 87}, "uniqueid": "MTK1821:3SB4CE2TJW28E7P54CL4UFJTPK3XAT", "dateTime": 1516478236909}, {"current_trial": 88, "trialdata": {"rt": -1, "trial_type": "single-stim", "stimulus": "<p id=\"stim\">+</p>", "internal_node_id": "0.0-61.0-0.0", "time_elapsed": 407378, "key_press": -1, "type": "FIXATION", "trial_index": 88}, "uniqueid": "MTK1821:3SB4CE2TJW28E7P54CL4UFJTPK3XAT", "dateTime": 1516478238414}, {"current_trial": 89, "trialdata": {"rt": -1, "trial_type": "single-stim", "word": "sausage", "stimulus": "<p id=\"stim\">SAUSAGE</p>", "conditions": [12, 1600, "v", 24000], "internal_node_id": "0.0-62.0", "trial": 2, "time_elapsed": 408981, "serialpos": 0, "key_press": -1, "wordID": 1237, "type": "PRES_VIS", "trial_index": 89}, "uniqueid": "MTK1821:3SB4CE2TJW28E7P54CL4UFJTPK3XAT", "dateTime": 1516478240017}, {"current_trial": 90, "trialdata": {"rt": -1, "trial_type": "single-stim", "word": "denim", "stimulus": "<p id=\"stim\">DENIM</p>", "conditions": [12, 1600, "v", 24000], "internal_node_id": "0.0-63.0", "trial": 2, "time_elapsed": 411490, "serialpos": 1, "key_press": -1, "wordID": 445, "type": "PRES_VIS", "trial_index": 90}, "uniqueid": "MTK1821:3SB4CE2TJW28E7P54CL4UFJTPK3XAT", "dateTime": 1516478242526}, {"current_trial": 91, "trialdata": {"rt": -1, "trial_type": "single-stim", "word": "relish", "stimulus": "<p id=\"stim\">RELISH</p>", "conditions": [12, 1600, "v", 24000], "internal_node_id": "0.0-64.0", "trial": 2, "time_elapsed": 414061, "serialpos": 2, "key_press": -1, "wordID": 1182, "type": "PRES_VIS", "trial_index": 91}, "uniqueid": "MTK1821:3SB4CE2TJW28E7P54CL4UFJTPK3XAT", "dateTime": 1516478245096}, {"current_trial": 92, "trialdata": {"rt": -1, "trial_type": "single-stim", "word": "curtain", "stimulus": "<p id=\"stim\">CURTAIN</p>", "conditions": [12, 1600, "v", 24000], "internal_node_id": "0.0-65.0", "trial": 2, "time_elapsed": 416526, "serialpos": 3, "key_press": -1, "wordID": 426, "type": "PRES_VIS", "trial_index": 92}, "uniqueid": "MTK1821:3SB4CE2TJW28E7P54CL4UFJTPK3XAT", "dateTime": 1516478247563}, {"current_trial": 93, "trialdata": {"rt": -1, "trial_type": "single-stim", "word": "cocoon", "stimulus": "<p id=\"stim\">COCOON</p>", "conditions": [12, 1600, "v", 24000], "internal_node_id": "0.0-66.0", "trial": 2, "time_elapsed": 418949, "serialpos": 4, "key_press": -1, "wordID": 338, "type": "PRES_VIS", "trial_index": 93}, "uniqueid": "MTK1821:3SB4CE2TJW28E7P54CL4UFJTPK3XAT", "dateTime": 1516478249984}, {"current_trial": 94, "trialdata": {"rt": -1, "trial_type": "single-stim", "word": "kitchen", "stimulus": "<p id=\"stim\">KITCHEN</p>", "conditions": [12, 1600, "v", 24000], "internal_node_id": "0.0-67.0", "trial": 2, "time_elapsed": 421395, "serialpos": 5, "key_press": -1, "wordID": 777, "type": "PRES_VIS", "trial_index": 94}, "uniqueid": "MTK1821:3SB4CE2TJW28E7P54CL4UFJTPK3XAT", "dateTime": 1516478252431}, {"current_trial": 95, "trialdata": {"rt": -1, "trial_type": "single-stim", "word": "keeper", "stimulus": "<p id=\"stim\">KEEPER</p>", "conditions": [12, 1600, "v", 24000], "internal_node_id": "0.0-68.0", "trial": 2, "time_elapsed": 423863, "serialpos": 6, "key_press": -1, "wordID": 768, "type": "PRES_VIS", "trial_index": 95}, "uniqueid": "MTK1821:3SB4CE2TJW28E7P54CL4UFJTPK3XAT", "dateTime": 1516478254899}, {"current_trial": 96, "trialdata": {"rt": 1287, "trial_type": "single-stim", "word": "gift", "stimulus": "<p id=\"stim\">GIFT</p>", "conditions": [12, 1600, "v", 24000], "internal_node_id": "0.0-69.0", "trial": 2, "time_elapsed": 426309, "serialpos": 7, "key_press": 36, "wordID": 634, "type": "PRES_VIS", "trial_index": 96}, "uniqueid": "MTK1821:3SB4CE2TJW28E7P54CL4UFJTPK3XAT", "dateTime": 1516478257345}, {"current_trial": 97, "trialdata": {"rt": -1, "trial_type": "single-stim", "word": "sandwich", "stimulus": "<p id=\"stim\">SANDWICH</p>", "conditions": [12, 1600, "v", 24000], "internal_node_id": "0.0-70.0", "trial": 2, "time_elapsed": 428808, "serialpos": 8, "key_press": -1, "wordID": 1231, "type": "PRES_VIS", "trial_index": 97}, "uniqueid": "MTK1821:3SB4CE2TJW28E7P54CL4UFJTPK3XAT", "dateTime": 1516478259844}, {"current_trial": 98, "trialdata": {"rt": 1142, "trial_type": "single-stim", "word": "pasta", "stimulus": "<p id=\"stim\">PASTA</p>", "conditions": [12, 1600, "v", 24000], "internal_node_id": "0.0-71.0", "trial": 2, "time_elapsed": 431610, "serialpos": 9, "key_press": 36, "wordID": 1020, "type": "PRES_VIS", "trial_index": 98}, "uniqueid": "MTK1821:3SB4CE2TJW28E7P54CL4UFJTPK3XAT", "dateTime": 1516478262648}, {"current_trial": 99, "trialdata": {"rt": -1, "trial_type": "single-stim", "word": "husband", "stimulus": "<p id=\"stim\">HUSBAND</p>", "conditions": [12, 1600, "v", 24000], "internal_node_id": "0.0-72.0", "trial": 2, "time_elapsed": 434244, "serialpos": 10, "key_press": -1, "wordID": 727, "type": "PRES_VIS", "trial_index": 99}, "uniqueid": "MTK1821:3SB4CE2TJW28E7P54CL4UFJTPK3XAT", "dateTime": 1516478265285}, {"current_trial": 100, "trialdata": {"rt": -1, "trial_type": "single-stim", "word": "cousin", "stimulus": "<p id=\"stim\">COUSIN</p>", "conditions": [12, 1600, "v", 24000], "internal_node_id": "0.0-73.0", "trial": 2, "time_elapsed": 436750, "serialpos": 11, "key_press": -1, "wordID": 391, "type": "PRES_VIS", "trial_index": 100}, "uniqueid": "MTK1821:3SB4CE2TJW28E7P54CL4UFJTPK3XAT", "dateTime": 1516478267786}, {"current_trial": 101, "trialdata": {"rt": -1, "trial_type": "single-stim", "stimulus": "", "internal_node_id": "0.0-74.0-0.0", "time_elapsed": 438972, "key_press": -1, "type": "PRE_RECALL_DELAY", "trial_index": 101}, "uniqueid": "MTK1821:3SB4CE2TJW28E7P54CL4UFJTPK3XAT", "dateTime": 1516478270007}, {"current_trial": 102, "trialdata": {"rt": -1000, "trial_type": "single-audio", "stimulus": "/static/audio/400Hz.wav", "internal_node_id": "0.0-75.0", "time_elapsed": 439486, "key_press": -1, "type": "PRE_RECALL_ALERT", "trial_index": 102}, "uniqueid": "MTK1821:3SB4CE2TJW28E7P54CL4UFJTPK3XAT", "dateTime": 1516478270521}, {"current_trial": 103, "trialdata": {"rt": [10897, 28143, 31293, 40869, 45870, 50600, 55228, 59041], "recwords": ["kitchen", "keeper", "gift", "pasta", "sandwich", "pasta", "husband", "cousin"], "key_times": [7290, 7617, 8474, 8889, 9201, 9694, 10203, 10897, 21593, 22680, 22872, 23697, 24739, 25010, 28143, 29378, 29844, 30297, 30505, 31293, 32517, 36002, 36201, 36686, 37666, 38415, 39110, 40869, 41652, 41924, 42466, 43163, 43421, 44090, 44597, 45151, 45870, 46887, 47767, 47946, 48588, 49060, 50600, 51678, 51892, 52446, 52788, 53352, 53814, 54214, 55228, 55955, 56550, 56914, 57528, 58004, 58280, 59041], "trial_type": "free-recall", "conditions": [12, 1600, "v", 24000], "internal_node_id": "0.0-76.0-0.0", "key_presses": [75, 73, 84, 67, 72, 69, 78, 13, 75, 69, 69, 80, 69, 82, 13, 71, 73, 70, 84, 13, 80, 65, 83, 89, 8, 84, 65, 13, 83, 65, 78, 68, 87, 73, 67, 72, 32, 80, 65, 83, 84, 65, 13, 72, 85, 83, 66, 65, 78, 68, 13, 67, 79, 85, 83, 73, 78, 13], "trial": 2, "time_elapsed": 499497, "type": "FREE_RECALL", "trial_index": 103}, "uniqueid": "MTK1821:3SB4CE2TJW28E7P54CL4UFJTPK3XAT", "dateTime": 1516478330553}, {"current_trial": 104, "trialdata": {"rt": 1576, "trial_type": "text", "internal_node_id": "0.0-77.0", "time_elapsed": 503098, "key_press": 32, "type": "INSTRUCTIONS", "trial_index": 104}, "uniqueid": "MTK1821:3SB4CE2TJW28E7P54CL4UFJTPK3XAT", "dateTime": 1516478334133}, {"current_trial": 105, "trialdata": {"rt": [9126], "trial_type": "math-distractor", "key_times": [7911, 8365, 9126, 10962, 11740], "responses": ["25"], "num2": [9, 7], "num3": [6, 2], "conditions": [24, 800, "v", 12000], "internal_node_id": "0.0-78.0", "key_presses": [50, 53, 13, 49, 48], "trial": 3, "time_elapsed": 517109, "type": "DISTRACTOR", "trial_index": 105, "num1": [8, 1]}, "uniqueid": "MTK1821:3SB4CE2TJW28E7P54CL4UFJTPK3XAT", "dateTime": 1516478348144}, {"current_trial": 106, "trialdata": {"rt": -1, "trial_type": "single-stim", "stimulus": "<p id=\"stim\">10</p>", "internal_node_id": "0.0-79.0-0.0", "time_elapsed": 520113, "key_press": -1, "trial_index": 106}, "uniqueid": "MTK1821:3SB4CE2TJW28E7P54CL4UFJTPK3XAT", "dateTime": 1516478351148}, {"current_trial": 107, "trialdata": {"rt": -1, "trial_type": "single-stim", "stimulus": "<p id=\"stim\">9</p>", "internal_node_id": "0.0-79.0-1.0", "time_elapsed": 521118, "key_press": -1, "trial_index": 107}, "uniqueid": "MTK1821:3SB4CE2TJW28E7P54CL4UFJTPK3XAT", "dateTime": 1516478352154}, {"current_trial": 108, "trialdata": {"rt": -1, "trial_type": "single-stim", "stimulus": "<p id=\"stim\">8</p>", "internal_node_id": "0.0-79.0-2.0", "time_elapsed": 522122, "key_press": -1, "trial_index": 108}, "uniqueid": "MTK1821:3SB4CE2TJW28E7P54CL4UFJTPK3XAT", "dateTime": 1516478353157}, {"current_trial": 109, "trialdata": {"rt": -1, "trial_type": "single-stim", "stimulus": "<p id=\"stim\">7</p>", "internal_node_id": "0.0-79.0-3.0", "time_elapsed": 523126, "key_press": -1, "trial_index": 109}, "uniqueid": "MTK1821:3SB4CE2TJW28E7P54CL4UFJTPK3XAT", "dateTime": 1516478354162}, {"current_trial": 110, "trialdata": {"rt": -1, "trial_type": "single-stim", "stimulus": "<p id=\"stim\">6</p>", "internal_node_id": "0.0-79.0-4.0", "time_elapsed": 524129, "key_press": -1, "trial_index": 110}, "uniqueid": "MTK1821:3SB4CE2TJW28E7P54CL4UFJTPK3XAT", "dateTime": 1516478355166}, {"current_trial": 111, "trialdata": {"rt": -1, "trial_type": "single-stim", "stimulus": "<p id=\"stim\">5</p>", "internal_node_id": "0.0-79.0-5.0", "time_elapsed": 525135, "key_press": -1, "trial_index": 111}, "uniqueid": "MTK1821:3SB4CE2TJW28E7P54CL4UFJTPK3XAT", "dateTime": 1516478356170}, {"current_trial": 112, "trialdata": {"rt": -1, "trial_type": "single-stim", "stimulus": "<p id=\"stim\">4</p>", "internal_node_id": "0.0-79.0-6.0", "time_elapsed": 526139, "key_press": -1, "trial_index": 112}, "uniqueid": "MTK1821:3SB4CE2TJW28E7P54CL4UFJTPK3XAT", "dateTime": 1516478357174}, {"current_trial": 113, "trialdata": {"rt": -1, "trial_type": "single-stim", "stimulus": "<p id=\"stim\">3</p>", "internal_node_id": "0.0-79.0-7.0", "time_elapsed": 527143, "key_press": -1, "trial_index": 113}, "uniqueid": "MTK1821:3SB4CE2TJW28E7P54CL4UFJTPK3XAT", "dateTime": 1516478358179}, {"current_trial": 114, "trialdata": {"rt": -1, "trial_type": "single-stim", "stimulus": "<p id=\"stim\">2</p>", "internal_node_id": "0.0-79.0-8.0", "time_elapsed": 528147, "key_press": -1, "trial_index": 114}, "uniqueid": "MTK1821:3SB4CE2TJW28E7P54CL4UFJTPK3XAT", "dateTime": 1516478359183}, {"current_trial": 115, "trialdata": {"rt": -1, "trial_type": "single-stim", "stimulus": "<p id=\"stim\">1</p>", "internal_node_id": "0.0-79.0-9.0", "time_elapsed": 529151, "key_press": -1, "trial_index": 115}, "uniqueid": "MTK1821:3SB4CE2TJW28E7P54CL4UFJTPK3XAT", "dateTime": 1516478360187}, {"current_trial": 116, "trialdata": {"rt": -1, "trial_type": "single-stim", "stimulus": "<p id=\"stim\">+</p>", "internal_node_id": "0.0-80.0-0.0", "time_elapsed": 530655, "key_press": -1, "type": "FIXATION", "trial_index": 116}, "uniqueid": "MTK1821:3SB4CE2TJW28E7P54CL4UFJTPK3XAT", "dateTime": 1516478361691}, {"current_trial": 117, "trialdata": {"rt": -1, "trial_type": "single-stim", "word": "raft", "stimulus": "<p id=\"stim\">RAFT</p>", "conditions": [24, 800, "v", 12000], "internal_node_id": "0.0-81.0", "trial": 3, "time_elapsed": 531459, "serialpos": 0, "key_press": -1, "wordID": 1158, "type": "PRES_VIS", "trial_index": 117}, "uniqueid": "MTK1821:3SB4CE2TJW28E7P54CL4UFJTPK3XAT", "dateTime": 1516478362495}, {"current_trial": 118, "trialdata": {"rt": -1, "trial_type": "single-stim", "word": "stream", "stimulus": "<p id=\"stim\">STREAM</p>", "conditions": [24, 800, "v", 12000], "internal_node_id": "0.0-82.0", "trial": 3, "time_elapsed": 533196, "serialpos": 1, "key_press": -1, "wordID": 1391, "type": "PRES_VIS", "trial_index": 118}, "uniqueid": "MTK1821:3SB4CE2TJW28E7P54CL4UFJTPK3XAT", "dateTime": 1516478364232}, {"current_trial": 119, "trialdata": {"rt": -1, "trial_type": "single-stim", "word": "sketch", "stimulus": "<p id=\"stim\">SKETCH</p>", "conditions": [24, 800, "v", 12000], "internal_node_id": "0.0-83.0", "trial": 3, "time_elapsed": 534876, "serialpos": 2, "key_press": -1, "wordID": 1314, "type": "PRES_VIS", "trial_index": 119}, "uniqueid": "MTK1821:3SB4CE2TJW28E7P54CL4UFJTPK3XAT", "dateTime": 1516478365912}, {"current_trial": 120, "trialdata": {"rt": -1, "trial_type": "single-stim", "word": "suitcase", "stimulus": "<p id=\"stim\">SUITCASE</p>", "conditions": [24, 800, "v", 12000], "internal_node_id": "0.0-84.0", "trial": 3, "time_elapsed": 536490, "serialpos": 3, "key_press": -1, "wordID": 1402, "type": "PRES_VIS", "trial_index": 120}, "uniqueid": "MTK1821:3SB4CE2TJW28E7P54CL4UFJTPK3XAT", "dateTime": 1516478367526}, {"current_trial": 121, "trialdata": {"rt": -1, "trial_type": "single-stim", "word": "ozone", "stimulus": "<p id=\"stim\">OZONE</p>", "conditions": [24, 800, "v", 12000], "internal_node_id": "0.0-85.0", "trial": 3, "time_elapsed": 538096, "serialpos": 4, "key_press": -1, "wordID": 995, "type": "PRES_VIS", "trial_index": 121}, "uniqueid": "MTK1821:3SB4CE2TJW28E7P54CL4UFJTPK3XAT", "dateTime": 1516478369132}, {"current_trial": 122, "trialdata": {"rt": -1, "trial_type": "single-stim", "word": "motor", "stimulus": "<p id=\"stim\">MOTOR</p>", "conditions": [24, 800, "v", 12000], "internal_node_id": "0.0-86.0", "trial": 3, "time_elapsed": 540032, "serialpos": 5, "key_press": -1, "wordID": 921, "type": "PRES_VIS", "trial_index": 122}, "uniqueid": "MTK1821:3SB4CE2TJW28E7P54CL4UFJTPK3XAT", "dateTime": 1516478371067}, {"current_trial": 123, "trialdata": {"rt": -1, "trial_type": "single-stim", "word": "shelter", "stimulus": "<p id=\"stim\">SHELTER</p>", "conditions": [24, 800, "v", 12000], "internal_node_id": "0.0-87.0", "trial": 3, "time_elapsed": 541868, "serialpos": 6, "key_press": -1, "wordID": 1281, "type": "PRES_VIS", "trial_index": 123}, "uniqueid": "MTK1821:3SB4CE2TJW28E7P54CL4UFJTPK3XAT", "dateTime": 1516478372904}, {"current_trial": 124, "trialdata": {"rt": -1, "trial_type": "single-stim", "word": "rooster", "stimulus": "<p id=\"stim\">ROOSTER</p>", "conditions": [24, 800, "v", 12000], "internal_node_id": "0.0-88.0", "trial": 3, "time_elapsed": 543860, "serialpos": 7, "key_press": -1, "wordID": 1208, "type": "PRES_VIS", "trial_index": 124}, "uniqueid": "MTK1821:3SB4CE2TJW28E7P54CL4UFJTPK3XAT", "dateTime": 1516478374895}, {"current_trial": 125, "trialdata": {"rt": -1, "trial_type": "single-stim", "word": "pilot", "stimulus": "<p id=\"stim\">PILOT</p>", "conditions": [24, 800, "v", 12000], "internal_node_id": "0.0-89.0", "trial": 3, "time_elapsed": 545831, "serialpos": 8, "key_press": -1, "wordID": 1069, "type": "PRES_VIS", "trial_index": 125}, "uniqueid": "MTK1821:3SB4CE2TJW28E7P54CL4UFJTPK3XAT", "dateTime": 1516478376867}, {"current_trial": 126, "trialdata": {"rt": -1, "trial_type": "single-stim", "word": "garden", "stimulus": "<p id=\"stim\">GARDEN</p>", "conditions": [24, 800, "v", 12000], "internal_node_id": "0.0-90.0", "trial": 3, "time_elapsed": 547497, "serialpos": 9, "key_press": -1, "wordID": 622, "type": "PRES_VIS", "trial_index": 126}, "uniqueid": "MTK1821:3SB4CE2TJW28E7P54CL4UFJTPK3XAT", "dateTime": 1516478378532}, {"current_trial": 127, "trialdata": {"rt": -1, "trial_type": "single-stim", "word": "flower", "stimulus": "<p id=\"stim\">FLOWER</p>", "conditions": [24, 800, "v", 12000], "internal_node_id": "0.0-91.0", "trial": 3, "time_elapsed": 549444, "serialpos": 10, "key_press": -1, "wordID": 583, "type": "PRES_VIS", "trial_index": 127}, "uniqueid": "MTK1821:3SB4CE2TJW28E7P54CL4UFJTPK3XAT", "dateTime": 1516478380480}, {"current_trial": 128, "trialdata": {"rt": -1, "trial_type": "single-stim", "word": "handbag", "stimulus": "<p id=\"stim\">HANDBAG</p>", "conditions": [24, 800, "v", 12000], "internal_node_id": "0.0-92.0", "trial": 3, "time_elapsed": 551393, "serialpos": 11, "key_press": -1, "wordID": 683, "type": "PRES_VIS", "trial_index": 128}, "uniqueid": "MTK1821:3SB4CE2TJW28E7P54CL4UFJTPK3XAT", "dateTime": 1516478382428}, {"current_trial": 129, "trialdata": {"rt": -1, "trial_type": "single-stim", "word": "banquet", "stimulus": "<p id=\"stim\">BANQUET</p>", "conditions": [24, 800, "v", 12000], "internal_node_id": "0.0-93.0", "trial": 3, "time_elapsed": 553222, "serialpos": 12, "key_press": -1, "wordID": 85, "type": "PRES_VIS", "trial_index": 129}, "uniqueid": "MTK1821:3SB4CE2TJW28E7P54CL4UFJTPK3XAT", "dateTime": 1516478384259}, {"current_trial": 130, "trialdata": {"rt": -1, "trial_type": "single-stim", "word": "summit", "stimulus": "<p id=\"stim\">SUMMIT</p>", "conditions": [24, 800, "v", 12000], "internal_node_id": "0.0-94.0", "trial": 3, "time_elapsed": 554841, "serialpos": 13, "key_press": -1, "wordID": 1404, "type": "PRES_VIS", "trial_index": 130}, "uniqueid": "MTK1821:3SB4CE2TJW28E7P54CL4UFJTPK3XAT", "dateTime": 1516478385877}, {"current_trial": 131, "trialdata": {"rt": -1, "trial_type": "single-stim", "word": "robber", "stimulus": "<p id=\"stim\">ROBBER</p>", "conditions": [24, 800, "v", 12000], "internal_node_id": "0.0-95.0", "trial": 3, "time_elapsed": 556609, "serialpos": 14, "key_press": -1, "wordID": 1196, "type": "PRES_VIS", "trial_index": 131}, "uniqueid": "MTK1821:3SB4CE2TJW28E7P54CL4UFJTPK3XAT", "dateTime": 1516478387653}, {"current_trial": 132, "trialdata": {"rt": -1, "trial_type": "single-stim", "word": "bunny", "stimulus": "<p id=\"stim\">BUNNY</p>", "conditions": [24, 800, "v", 12000], "internal_node_id": "0.0-96.0", "trial": 3, "time_elapsed": 558499, "serialpos": 15, "key_press": -1, "wordID": 197, "type": "PRES_VIS", "trial_index": 132}, "uniqueid": "MTK1821:3SB4CE2TJW28E7P54CL4UFJTPK3XAT", "dateTime": 1516478389535}, {"current_trial": 133, "trialdata": {"rt": -1, "trial_type": "single-stim", "word": "puppy", "stimulus": "<p id=\"stim\">PUPPY</p>", "conditions": [24, 800, "v", 12000], "internal_node_id": "0.0-97.0", "trial": 3, "time_elapsed": 560114, "serialpos": 16, "key_press": -1, "wordID": 1143, "type": "PRES_VIS", "trial_index": 133}, "uniqueid": "MTK1821:3SB4CE2TJW28E7P54CL4UFJTPK3XAT", "dateTime": 1516478391150}, {"current_trial": 134, "trialdata": {"rt": -1, "trial_type": "single-stim", "word": "sidewalk", "stimulus": "<p id=\"stim\">SIDEWALK</p>", "conditions": [24, 800, "v", 12000], "internal_node_id": "0.0-98.0", "trial": 3, "time_elapsed": 562003, "serialpos": 17, "key_press": -1, "wordID": 1302, "type": "PRES_VIS", "trial_index": 134}, "uniqueid": "MTK1821:3SB4CE2TJW28E7P54CL4UFJTPK3XAT", "dateTime": 1516478393038}, {"current_trial": 135, "trialdata": {"rt": -1, "trial_type": "single-stim", "word": "truck", "stimulus": "<p id=\"stim\">TRUCK</p>", "conditions": [24, 800, "v", 12000], "internal_node_id": "0.0-99.0", "trial": 3, "time_elapsed": 563884, "serialpos": 18, "key_press": -1, "wordID": 1511, "type": "PRES_VIS", "trial_index": 135}, "uniqueid": "MTK1821:3SB4CE2TJW28E7P54CL4UFJTPK3XAT", "dateTime": 1516478394920}, {"current_trial": 136, "trialdata": {"rt": -1, "trial_type": "single-stim", "word": "burglar", "stimulus": "<p id=\"stim\">BURGLAR</p>", "conditions": [24, 800, "v", 12000], "internal_node_id": "0.0-100.0", "trial": 3, "time_elapsed": 565794, "serialpos": 19, "key_press": -1, "wordID": 199, "type": "PRES_VIS", "trial_index": 136}, "uniqueid": "MTK1821:3SB4CE2TJW28E7P54CL4UFJTPK3XAT", "dateTime": 1516478396830}, {"current_trial": 137, "trialdata": {"rt": -1, "trial_type": "single-stim", "word": "table", "stimulus": "<p id=\"stim\">TABLE</p>", "conditions": [24, 800, "v", 12000], "internal_node_id": "0.0-101.0", "trial": 3, "time_elapsed": 567611, "serialpos": 20, "key_press": -1, "wordID": 1425, "type": "PRES_VIS", "trial_index": 137}, "uniqueid": "MTK1821:3SB4CE2TJW28E7P54CL4UFJTPK3XAT", "dateTime": 1516478398646}, {"current_trial": 138, "trialdata": {"rt": -1, "trial_type": "single-stim", "word": "atlas", "stimulus": "<p id=\"stim\">ATLAS</p>", "conditions": [24, 800, "v", 12000], "internal_node_id": "0.0-102.0", "trial": 3, "time_elapsed": 569219, "serialpos": 21, "key_press": -1, "wordID": 52, "type": "PRES_VIS", "trial_index": 138}, "uniqueid": "MTK1821:3SB4CE2TJW28E7P54CL4UFJTPK3XAT", "dateTime": 1516478400254}, {"current_trial": 139, "trialdata": {"rt": -1, "trial_type": "single-stim", "word": "airport", "stimulus": "<p id=\"stim\">AIRPORT</p>", "conditions": [24, 800, "v", 12000], "internal_node_id": "0.0-103.0", "trial": 3, "time_elapsed": 570834, "serialpos": 22, "key_press": -1, "wordID": 12, "type": "PRES_VIS", "trial_index": 139}, "uniqueid": "MTK1821:3SB4CE2TJW28E7P54CL4UFJTPK3XAT", "dateTime": 1516478401870}, {"current_trial": 140, "trialdata": {"rt": -1, "trial_type": "single-stim", "word": "frame", "stimulus": "<p id=\"stim\">FRAME</p>", "conditions": [24, 800, "v", 12000], "internal_node_id": "0.0-104.0", "trial": 3, "time_elapsed": 572826, "serialpos": 23, "key_press": -1, "wordID": 599, "type": "PRES_VIS", "trial_index": 140}, "uniqueid": "MTK1821:3SB4CE2TJW28E7P54CL4UFJTPK3XAT", "dateTime": 1516478403862}, {"current_trial": 141, "trialdata": {"rt": -1, "trial_type": "single-stim", "stimulus": "", "internal_node_id": "0.0-105.0-0.0", "time_elapsed": 575265, "key_press": -1, "type": "PRE_RECALL_DELAY", "trial_index": 141}, "uniqueid": "MTK1821:3SB4CE2TJW28E7P54CL4UFJTPK3XAT", "dateTime": 1516478406300}, {"current_trial": 142, "trialdata": {"rt": -1000, "trial_type": "single-audio", "stimulus": "/static/audio/400Hz.wav", "internal_node_id": "0.0-106.0", "time_elapsed": 575768, "key_press": -1, "type": "PRE_RECALL_ALERT", "trial_index": 142}, "uniqueid": "MTK1821:3SB4CE2TJW28E7P54CL4UFJTPK3XAT", "dateTime": 1516478406803}, {"current_trial": 143, "trialdata": {"rt": [5327, 9237, 16137, 27253, 31290, 34204], "recwords": ["bunny", "shelter", "rooster", "burglar", "frame", "truck"], "key_times": [2226, 2475, 2885, 3066, 3503, 5327, 6492, 6905, 7273, 7907, 8280, 8512, 8718, 9237, 11554, 13020, 13731, 14151, 14323, 14823, 15111, 15358, 15543, 16137, 17426, 17705, 17981, 19303, 19941, 20625, 20692, 20985, 23480, 23653, 25346, 27253, 28096, 28295, 28625, 29275, 29701, 31290, 31918, 32101, 32392, 32713, 33076, 34204], "trial_type": "free-recall", "conditions": [24, 800, "v", 12000], "internal_node_id": "0.0-107.0-0.0", "key_presses": [66, 85, 78, 78, 89, 13, 83, 72, 69, 76, 84, 69, 82, 13, 82, 8, 82, 79, 79, 83, 84, 69, 82, 13, 66, 85, 82, 71, 76, 65, 65, 82, 8, 8, 82, 13, 70, 82, 65, 77, 69, 32, 84, 82, 85, 67, 75, 13], "trial": 3, "time_elapsed": 635779, "type": "FREE_RECALL", "trial_index": 143}, "uniqueid": "MTK1821:3SB4CE2TJW28E7P54CL4UFJTPK3XAT", "dateTime": 1516478466836}, {"current_trial": 144, "trialdata": {"rt": 6960, "trial_type": "text", "internal_node_id": "0.0-108.0", "time_elapsed": 644769, "key_press": 32, "type": "INSTRUCTIONS", "trial_index": 144}, "uniqueid": "MTK1821:3SB4CE2TJW28E7P54CL4UFJTPK3XAT", "dateTime": 1516478475805}, {"current_trial": 145, "trialdata": {"rt": [4065, 7716, 12005, 15380, 17684], "trial_type": "math-distractor", "key_times": [3091, 4065, 6705, 6957, 7716, 10732, 11382, 12005, 13699, 14984, 15380, 16736, 16903, 17684, 19027, 22277, 23337, 23560], "responses": ["9", "12", "18", "10", "11"], "num2": [2, 1, 2, 4, 1, 7], "num3": [6, 5, 8, 3, 9, 7], "conditions": [24, 1600, "v", 24000], "internal_node_id": "0.0-109.0", "key_presses": [57, 13, 49, 50, 13, 49, 56, 13, 49, 48, 13, 49, 49, 13, 49, 8, 50, 51], "trial": 4, "time_elapsed": 670790, "type": "DISTRACTOR", "trial_index": 145, "num1": [1, 6, 8, 3, 1, 8]}, "uniqueid": "MTK1821:3SB4CE2TJW28E7P54CL4UFJTPK3XAT", "dateTime": 1516478501825}, {"current_trial": 146, "trialdata": {"rt": -1, "trial_type": "single-stim", "stimulus": "<p id=\"stim\">10</p>", "internal_node_id": "0.0-110.0-0.0", "time_elapsed": 673794, "key_press": -1, "trial_index": 146}, "uniqueid": "MTK1821:3SB4CE2TJW28E7P54CL4UFJTPK3XAT", "dateTime": 1516478504830}, {"current_trial": 147, "trialdata": {"rt": -1, "trial_type": "single-stim", "stimulus": "<p id=\"stim\">9</p>", "internal_node_id": "0.0-110.0-1.0", "time_elapsed": 674797, "key_press": -1, "trial_index": 147}, "uniqueid": "MTK1821:3SB4CE2TJW28E7P54CL4UFJTPK3XAT", "dateTime": 1516478505833}, {"current_trial": 148, "trialdata": {"rt": -1, "trial_type": "single-stim", "stimulus": "<p id=\"stim\">8</p>", "internal_node_id": "0.0-110.0-2.0", "time_elapsed": 675801, "key_press": -1, "trial_index": 148}, "uniqueid": "MTK1821:3SB4CE2TJW28E7P54CL4UFJTPK3XAT", "dateTime": 1516478506836}, {"current_trial": 149, "trialdata": {"rt": -1, "trial_type": "single-stim", "stimulus": "<p id=\"stim\">7</p>", "internal_node_id": "0.0-110.0-3.0", "time_elapsed": 676804, "key_press": -1, "trial_index": 149}, "uniqueid": "MTK1821:3SB4CE2TJW28E7P54CL4UFJTPK3XAT", "dateTime": 1516478507840}, {"current_trial": 150, "trialdata": {"rt": -1, "trial_type": "single-stim", "stimulus": "<p id=\"stim\">6</p>", "internal_node_id": "0.0-110.0-4.0", "time_elapsed": 677810, "key_press": -1, "trial_index": 150}, "uniqueid": "MTK1821:3SB4CE2TJW28E7P54CL4UFJTPK3XAT", "dateTime": 1516478508846}, {"current_trial": 151, "trialdata": {"rt": -1, "trial_type": "single-stim", "stimulus": "<p id=\"stim\">5</p>", "internal_node_id": "0.0-110.0-5.0", "time_elapsed": 678815, "key_press": -1, "trial_index": 151}, "uniqueid": "MTK1821:3SB4CE2TJW28E7P54CL4UFJTPK3XAT", "dateTime": 1516478509851}, {"current_trial": 152, "trialdata": {"rt": -1, "trial_type": "single-stim", "stimulus": "<p id=\"stim\">4</p>", "internal_node_id": "0.0-110.0-6.0", "time_elapsed": 679832, "key_press": -1, "trial_index": 152}, "uniqueid": "MTK1821:3SB4CE2TJW28E7P54CL4UFJTPK3XAT", "dateTime": 1516478510869}, {"current_trial": 153, "trialdata": {"rt": -1, "trial_type": "single-stim", "stimulus": "<p id=\"stim\">3</p>", "internal_node_id": "0.0-110.0-7.0", "time_elapsed": 680843, "key_press": -1, "trial_index": 153}, "uniqueid": "MTK1821:3SB4CE2TJW28E7P54CL4UFJTPK3XAT", "dateTime": 1516478511879}, {"current_trial": 154, "trialdata": {"rt": -1, "trial_type": "single-stim", "stimulus": "<p id=\"stim\">2</p>", "internal_node_id": "0.0-110.0-8.0", "time_elapsed": 681847, "key_press": -1, "trial_index": 154}, "uniqueid": "MTK1821:3SB4CE2TJW28E7P54CL4UFJTPK3XAT", "dateTime": 1516478512883}, {"current_trial": 155, "trialdata": {"rt": -1, "trial_type": "single-stim", "stimulus": "<p id=\"stim\">1</p>", "internal_node_id": "0.0-110.0-9.0", "time_elapsed": 682850, "key_press": -1, "trial_index": 155}, "uniqueid": "MTK1821:3SB4CE2TJW28E7P54CL4UFJTPK3XAT", "dateTime": 1516478513886}, {"current_trial": 156, "trialdata": {"rt": -1, "trial_type": "single-stim", "stimulus": "<p id=\"stim\">+</p>", "internal_node_id": "0.0-111.0-0.0", "time_elapsed": 684355, "key_press": -1, "type": "FIXATION", "trial_index": 156}, "uniqueid": "MTK1821:3SB4CE2TJW28E7P54CL4UFJTPK3XAT", "dateTime": 1516478515391}, {"current_trial": 157, "trialdata": {"rt": -1, "trial_type": "single-stim", "word": "climber", "stimulus": "<p id=\"stim\">CLIMBER</p>", "conditions": [24, 1600, "v", 24000], "internal_node_id": "0.0-112.0", "trial": 4, "time_elapsed": 685959, "serialpos": 0, "key_press": -1, "wordID": 322, "type": "PRES_VIS", "trial_index": 157}, "uniqueid": "MTK1821:3SB4CE2TJW28E7P54CL4UFJTPK3XAT", "dateTime": 1516478516995}, {"current_trial": 158, "trialdata": {"rt": -1, "trial_type": "single-stim", "word": "nomad", "stimulus": "<p id=\"stim\">NOMAD</p>", "conditions": [24, 1600, "v", 24000], "internal_node_id": "0.0-113.0", "trial": 4, "time_elapsed": 688379, "serialpos": 1, "key_press": -1, "wordID": 954, "type": "PRES_VIS", "trial_index": 158}, "uniqueid": "MTK1821:3SB4CE2TJW28E7P54CL4UFJTPK3XAT", "dateTime": 1516478519414}, {"current_trial": 159, "trialdata": {"rt": -1, "trial_type": "single-stim", "word": "carriage", "stimulus": "<p id=\"stim\">CARRIAGE</p>", "conditions": [24, 1600, "v", 24000], "internal_node_id": "0.0-114.0", "trial": 4, "time_elapsed": 691052, "serialpos": 2, "key_press": -1, "wordID": 247, "type": "PRES_VIS", "trial_index": 159}, "uniqueid": "MTK1821:3SB4CE2TJW28E7P54CL4UFJTPK3XAT", "dateTime": 1516478522088}, {"current_trial": 160, "trialdata": {"rt": -1, "trial_type": "single-stim", "word": "rebel", "stimulus": "<p id=\"stim\">REBEL</p>", "conditions": [24, 1600, "v", 24000], "internal_node_id": "0.0-115.0", "trial": 4, "time_elapsed": 693740, "serialpos": 3, "key_press": -1, "wordID": 1171, "type": "PRES_VIS", "trial_index": 160}, "uniqueid": "MTK1821:3SB4CE2TJW28E7P54CL4UFJTPK3XAT", "dateTime": 1516478524776}, {"current_trial": 161, "trialdata": {"rt": -1, "trial_type": "single-stim", "word": "rust", "stimulus": "<p id=\"stim\">RUST</p>", "conditions": [24, 1600, "v", 24000], "internal_node_id": "0.0-116.0", "trial": 4, "time_elapsed": 696474, "serialpos": 4, "key_press": -1, "wordID": 1218, "type": "PRES_VIS", "trial_index": 161}, "uniqueid": "MTK1821:3SB4CE2TJW28E7P54CL4UFJTPK3XAT", "dateTime": 1516478527510}, {"current_trial": 162, "trialdata": {"rt": -1, "trial_type": "single-stim", "word": "cashier", "stimulus": "<p id=\"stim\">CASHIER</p>", "conditions": [24, 1600, "v", 24000], "internal_node_id": "0.0-117.0", "trial": 4, "time_elapsed": 699132, "serialpos": 5, "key_press": -1, "wordID": 253, "type": "PRES_VIS", "trial_index": 162}, "uniqueid": "MTK1821:3SB4CE2TJW28E7P54CL4UFJTPK3XAT", "dateTime": 1516478530168}, {"current_trial": 163, "trialdata": {"rt": -1, "trial_type": "single-stim", "word": "waitress", "stimulus": "<p id=\"stim\">WAITRESS</p>", "conditions": [24, 1600, "v", 24000], "internal_node_id": "0.0-118.0", "trial": 4, "time_elapsed": 701604, "serialpos": 6, "key_press": -1, "wordID": 1580, "type": "PRES_VIS", "trial_index": 163}, "uniqueid": "MTK1821:3SB4CE2TJW28E7P54CL4UFJTPK3XAT", "dateTime": 1516478532640}, {"current_trial": 164, "trialdata": {"rt": -1, "trial_type": "single-stim", "word": "scallop", "stimulus": "<p id=\"stim\">SCALLOP</p>", "conditions": [24, 1600, "v", 24000], "internal_node_id": "0.0-119.0", "trial": 4, "time_elapsed": 704018, "serialpos": 7, "key_press": -1, "wordID": 1241, "type": "PRES_VIS", "trial_index": 164}, "uniqueid": "MTK1821:3SB4CE2TJW28E7P54CL4UFJTPK3XAT", "dateTime": 1516478535054}, {"current_trial": 165, "trialdata": {"rt": -1, "trial_type": "single-stim", "word": "pecan", "stimulus": "<p id=\"stim\">PECAN</p>", "conditions": [24, 1600, "v", 24000], "internal_node_id": "0.0-120.0", "trial": 4, "time_elapsed": 706639, "serialpos": 8, "key_press": -1, "wordID": 1035, "type": "PRES_VIS", "trial_index": 165}, "uniqueid": "MTK1821:3SB4CE2TJW28E7P54CL4UFJTPK3XAT", "dateTime": 1516478537675}, {"current_trial": 166, "trialdata": {"rt": -1, "trial_type": "single-stim", "word": "hiker", "stimulus": "<p id=\"stim\">HIKER</p>", "conditions": [24, 1600, "v", 24000], "internal_node_id": "0.0-121.0", "trial": 4, "time_elapsed": 709384, "serialpos": 9, "key_press": -1, "wordID": 707, "type": "PRES_VIS", "trial_index": 166}, "uniqueid": "MTK1821:3SB4CE2TJW28E7P54CL4UFJTPK3XAT", "dateTime": 1516478540419}, {"current_trial": 167, "trialdata": {"rt": -1, "trial_type": "single-stim", "word": "canal", "stimulus": "<p id=\"stim\">CANAL</p>", "conditions": [24, 1600, "v", 24000], "internal_node_id": "0.0-122.0", "trial": 4, "time_elapsed": 712008, "serialpos": 10, "key_press": -1, "wordID": 225, "type": "PRES_VIS", "trial_index": 167}, "uniqueid": "MTK1821:3SB4CE2TJW28E7P54CL4UFJTPK3XAT", "dateTime": 1516478543044}, {"current_trial": 168, "trialdata": {"rt": -1, "trial_type": "single-stim", "word": "crevice", "stimulus": "<p id=\"stim\">CREVICE</p>", "conditions": [24, 1600, "v", 24000], "internal_node_id": "0.0-123.0", "trial": 4, "time_elapsed": 714759, "serialpos": 11, "key_press": -1, "wordID": 404, "type": "PRES_VIS", "trial_index": 168}, "uniqueid": "MTK1821:3SB4CE2TJW28E7P54CL4UFJTPK3XAT", "dateTime": 1516478545795}, {"current_trial": 169, "trialdata": {"rt": -1, "trial_type": "single-stim", "word": "patient", "stimulus": "<p id=\"stim\">PATIENT</p>", "conditions": [24, 1600, "v", 24000], "internal_node_id": "0.0-124.0", "trial": 4, "time_elapsed": 717431, "serialpos": 12, "key_press": -1, "wordID": 1023, "type": "PRES_VIS", "trial_index": 169}, "uniqueid": "MTK1821:3SB4CE2TJW28E7P54CL4UFJTPK3XAT", "dateTime": 1516478548467}, {"current_trial": 170, "trialdata": {"rt": -1, "trial_type": "single-stim", "word": "belly", "stimulus": "<p id=\"stim\">BELLY</p>", "conditions": [24, 1600, "v", 24000], "internal_node_id": "0.0-125.0", "trial": 4, "time_elapsed": 720229, "serialpos": 13, "key_press": -1, "wordID": 118, "type": "PRES_VIS", "trial_index": 170}, "uniqueid": "MTK1821:3SB4CE2TJW28E7P54CL4UFJTPK3XAT", "dateTime": 1516478551265}, {"current_trial": 171, "trialdata": {"rt": -1, "trial_type": "single-stim", "word": "marine", "stimulus": "<p id=\"stim\">MARINE</p>", "conditions": [24, 1600, "v", 24000], "internal_node_id": "0.0-126.0", "trial": 4, "time_elapsed": 722720, "serialpos": 14, "key_press": -1, "wordID": 868, "type": "PRES_VIS", "trial_index": 171}, "uniqueid": "MTK1821:3SB4CE2TJW28E7P54CL4UFJTPK3XAT", "dateTime": 1516478553755}, {"current_trial": 172, "trialdata": {"rt": -1, "trial_type": "single-stim", "word": "salmon", "stimulus": "<p id=\"stim\">SALMON</p>", "conditions": [24, 1600, "v", 24000], "internal_node_id": "0.0-127.0", "trial": 4, "time_elapsed": 725173, "serialpos": 15, "key_press": -1, "wordID": 1226, "type": "PRES_VIS", "trial_index": 172}, "uniqueid": "MTK1821:3SB4CE2TJW28E7P54CL4UFJTPK3XAT", "dateTime": 1516478556209}, {"current_trial": 173, "trialdata": {"rt": -1, "trial_type": "single-stim", "word": "teacher", "stimulus": "<p id=\"stim\">TEACHER</p>", "conditions": [24, 1600, "v", 24000], "internal_node_id": "0.0-128.0", "trial": 4, "time_elapsed": 727581, "serialpos": 16, "key_press": -1, "wordID": 1439, "type": "PRES_VIS", "trial_index": 173}, "uniqueid": "MTK1821:3SB4CE2TJW28E7P54CL4UFJTPK3XAT", "dateTime": 1516478558617}, {"current_trial": 174, "trialdata": {"rt": -1, "trial_type": "single-stim", "word": "penguin", "stimulus": "<p id=\"stim\">PENGUIN</p>", "conditions": [24, 1600, "v", 24000], "internal_node_id": "0.0-129.0", "trial": 4, "time_elapsed": 730028, "serialpos": 17, "key_press": -1, "wordID": 1043, "type": "PRES_VIS", "trial_index": 174}, "uniqueid": "MTK1821:3SB4CE2TJW28E7P54CL4UFJTPK3XAT", "dateTime": 1516478561064}, {"current_trial": 175, "trialdata": {"rt": -1, "trial_type": "single-stim", "word": "antler", "stimulus": "<p id=\"stim\">ANTLER</p>", "conditions": [24, 1600, "v", 24000], "internal_node_id": "0.0-130.0", "trial": 4, "time_elapsed": 732829, "serialpos": 18, "key_press": -1, "wordID": 28, "type": "PRES_VIS", "trial_index": 175}, "uniqueid": "MTK1821:3SB4CE2TJW28E7P54CL4UFJTPK3XAT", "dateTime": 1516478563866}, {"current_trial": 176, "trialdata": {"rt": -1, "trial_type": "single-stim", "word": "chipmunk", "stimulus": "<p id=\"stim\">CHIPMUNK</p>", "conditions": [24, 1600, "v", 24000], "internal_node_id": "0.0-131.0", "trial": 4, "time_elapsed": 735260, "serialpos": 19, "key_press": -1, "wordID": 303, "type": "PRES_VIS", "trial_index": 176}, "uniqueid": "MTK1821:3SB4CE2TJW28E7P54CL4UFJTPK3XAT", "dateTime": 1516478566296}, {"current_trial": 177, "trialdata": {"rt": -1, "trial_type": "single-stim", "word": "cricket", "stimulus": "<p id=\"stim\">CRICKET</p>", "conditions": [24, 1600, "v", 24000], "internal_node_id": "0.0-132.0", "trial": 4, "time_elapsed": 737710, "serialpos": 20, "key_press": -1, "wordID": 407, "type": "PRES_VIS", "trial_index": 177}, "uniqueid": "MTK1821:3SB4CE2TJW28E7P54CL4UFJTPK3XAT", "dateTime": 1516478568746}, {"current_trial": 178, "trialdata": {"rt": -1, "trial_type": "single-stim", "word": "crab", "stimulus": "<p id=\"stim\">CRAB</p>", "conditions": [24, 1600, "v", 24000], "internal_node_id": "0.0-133.0", "trial": 4, "time_elapsed": 740298, "serialpos": 21, "key_press": -1, "wordID": 396, "type": "PRES_VIS", "trial_index": 178}, "uniqueid": "MTK1821:3SB4CE2TJW28E7P54CL4UFJTPK3XAT", "dateTime": 1516478571334}, {"current_trial": 179, "trialdata": {"rt": -1, "trial_type": "single-stim", "word": "queen", "stimulus": "<p id=\"stim\">QUEEN</p>", "conditions": [24, 1600, "v", 24000], "internal_node_id": "0.0-134.0", "trial": 4, "time_elapsed": 742877, "serialpos": 22, "key_press": -1, "wordID": 1148, "type": "PRES_VIS", "trial_index": 179}, "uniqueid": "MTK1821:3SB4CE2TJW28E7P54CL4UFJTPK3XAT", "dateTime": 1516478573913}, {"current_trial": 180, "trialdata": {"rt": -1, "trial_type": "single-stim", "word": "princess", "stimulus": "<p id=\"stim\">PRINCESS</p>", "conditions": [24, 1600, "v", 24000], "internal_node_id": "0.0-135.0", "trial": 4, "time_elapsed": 745609, "serialpos": 23, "key_press": -1, "wordID": 1124, "type": "PRES_VIS", "trial_index": 180}, "uniqueid": "MTK1821:3SB4CE2TJW28E7P54CL4UFJTPK3XAT", "dateTime": 1516478576644}, {"current_trial": 181, "trialdata": {"rt": -1, "trial_type": "single-stim", "stimulus": "", "internal_node_id": "0.0-136.0-0.0", "time_elapsed": 747760, "key_press": -1, "type": "PRE_RECALL_DELAY", "trial_index": 181}, "uniqueid": "MTK1821:3SB4CE2TJW28E7P54CL4UFJTPK3XAT", "dateTime": 1516478578796}, {"current_trial": 182, "trialdata": {"rt": -1000, "trial_type": "single-audio", "stimulus": "/static/audio/400Hz.wav", "internal_node_id": "0.0-137.0", "time_elapsed": 748277, "key_press": -1, "type": "PRE_RECALL_ALERT", "trial_index": 182}, "uniqueid": "MTK1821:3SB4CE2TJW28E7P54CL4UFJTPK3XAT", "dateTime": 1516478579313}, {"current_trial": 183, "trialdata": {"rt": [13494, 17518, 21018, 24573, 34543, 38825, 45488, 58984], "recwords": ["climber", "crab", "crevice", "hiker", "antler", "teacher", "penquin", "queen"], "key_times": [5151, 6203, 8513, 9292, 9503, 9723, 10003, 10594, 12580, 13494, 14544, 14963, 15558, 15976, 17518, 18126, 18413, 18620, 19065, 19500, 19870, 20332, 21018, 22494, 22812, 23004, 23345, 23568, 24573, 32592, 32709, 32942, 33465, 33594, 33830, 34543, 35853, 35946, 36322, 36451, 37751, 37883, 38215, 38825, 39388, 40391, 41073, 42417, 42519, 44556, 44834, 45488, 56040, 56724, 57414, 57551, 58010, 58984, 60750, 60991, 61577, 61855, 62108, 62420], "trial_type": "free-recall", "conditions": [24, 1600, "v", 24000], "internal_node_id": "0.0-138.0-0.0", "key_presses": [68, 8, 67, 76, 73, 77, 66, 69, 82, 13, 67, 82, 65, 66, 13, 67, 82, 69, 86, 73, 67, 69, 32, 72, 73, 75, 69, 82, 13, 65, 78, 84, 76, 69, 82, 13, 84, 69, 65, 67, 72, 69, 82, 13, 80, 69, 78, 81, 85, 73, 78, 13, 81, 85, 69, 69, 78, 13, 83, 65, 76, 77, 79, 78], "trial": 4, "time_elapsed": 811215, "type": "FREE_RECALL", "trial_index": 183}, "uniqueid": "MTK1821:3SB4CE2TJW28E7P54CL4UFJTPK3XAT", "dateTime": 1516478642259}, {"current_trial": 184, "trialdata": {"rt": 6632, "trial_type": "text", "internal_node_id": "0.0-139.0", "time_elapsed": 819859, "key_press": 32, "type": "INSTRUCTIONS", "trial_index": 184}, "uniqueid": "MTK1821:3SB4CE2TJW28E7P54CL4UFJTPK3XAT", "dateTime": 1516478650895}, {"current_trial": 185, "trialdata": {"rt": [], "trial_type": "math-distractor", "key_times": [9167, 10863], "responses": [], "num2": [6], "num3": [3], "conditions": [24, 1600, "v", 12000], "internal_node_id": "0.0-140.0", "key_presses": [49, 55], "trial": 5, "time_elapsed": 833872, "type": "DISTRACTOR", "trial_index": 185, "num1": [9]}, "uniqueid": "MTK1821:3SB4CE2TJW28E7P54CL4UFJTPK3XAT", "dateTime": 1516478664908}, {"current_trial": 186, "trialdata": {"rt": -1, "trial_type": "single-stim", "stimulus": "<p id=\"stim\">10</p>", "internal_node_id": "0.0-141.0-0.0", "time_elapsed": 836877, "key_press": -1, "trial_index": 186}, "uniqueid": "MTK1821:3SB4CE2TJW28E7P54CL4UFJTPK3XAT", "dateTime": 1516478667913}, {"current_trial": 187, "trialdata": {"rt": -1, "trial_type": "single-stim", "stimulus": "<p id=\"stim\">9</p>", "internal_node_id": "0.0-141.0-1.0", "time_elapsed": 837883, "key_press": -1, "trial_index": 187}, "uniqueid": "MTK1821:3SB4CE2TJW28E7P54CL4UFJTPK3XAT", "dateTime": 1516478668919}, {"current_trial": 188, "trialdata": {"rt": -1, "trial_type": "single-stim", "stimulus": "<p id=\"stim\">8</p>", "internal_node_id": "0.0-141.0-2.0", "time_elapsed": 838886, "key_press": -1, "trial_index": 188}, "uniqueid": "MTK1821:3SB4CE2TJW28E7P54CL4UFJTPK3XAT", "dateTime": 1516478669922}, {"current_trial": 189, "trialdata": {"rt": -1, "trial_type": "single-stim", "stimulus": "<p id=\"stim\">7</p>", "internal_node_id": "0.0-141.0-3.0", "time_elapsed": 839891, "key_press": -1, "trial_index": 189}, "uniqueid": "MTK1821:3SB4CE2TJW28E7P54CL4UFJTPK3XAT", "dateTime": 1516478670927}, {"current_trial": 190, "trialdata": {"rt": -1, "trial_type": "single-stim", "stimulus": "<p id=\"stim\">6</p>", "internal_node_id": "0.0-141.0-4.0", "time_elapsed": 840894, "key_press": -1, "trial_index": 190}, "uniqueid": "MTK1821:3SB4CE2TJW28E7P54CL4UFJTPK3XAT", "dateTime": 1516478671930}, {"current_trial": 191, "trialdata": {"rt": -1, "trial_type": "single-stim", "stimulus": "<p id=\"stim\">5</p>", "internal_node_id": "0.0-141.0-5.0", "time_elapsed": 841898, "key_press": -1, "trial_index": 191}, "uniqueid": "MTK1821:3SB4CE2TJW28E7P54CL4UFJTPK3XAT", "dateTime": 1516478672934}, {"current_trial": 192, "trialdata": {"rt": -1, "trial_type": "single-stim", "stimulus": "<p id=\"stim\">4</p>", "internal_node_id": "0.0-141.0-6.0", "time_elapsed": 842902, "key_press": -1, "trial_index": 192}, "uniqueid": "MTK1821:3SB4CE2TJW28E7P54CL4UFJTPK3XAT", "dateTime": 1516478673937}, {"current_trial": 193, "trialdata": {"rt": -1, "trial_type": "single-stim", "stimulus": "<p id=\"stim\">3</p>", "internal_node_id": "0.0-141.0-7.0", "time_elapsed": 843905, "key_press": -1, "trial_index": 193}, "uniqueid": "MTK1821:3SB4CE2TJW28E7P54CL4UFJTPK3XAT", "dateTime": 1516478674941}, {"current_trial": 194, "trialdata": {"rt": -1, "trial_type": "single-stim", "stimulus": "<p id=\"stim\">2</p>", "internal_node_id": "0.0-141.0-8.0", "time_elapsed": 844911, "key_press": -1, "trial_index": 194}, "uniqueid": "MTK1821:3SB4CE2TJW28E7P54CL4UFJTPK3XAT", "dateTime": 1516478675947}, {"current_trial": 195, "trialdata": {"rt": -1, "trial_type": "single-stim", "stimulus": "<p id=\"stim\">1</p>", "internal_node_id": "0.0-141.0-9.0", "time_elapsed": 845916, "key_press": -1, "trial_index": 195}, "uniqueid": "MTK1821:3SB4CE2TJW28E7P54CL4UFJTPK3XAT", "dateTime": 1516478676951}, {"current_trial": 196, "trialdata": {"rt": -1, "trial_type": "single-stim", "stimulus": "<p id=\"stim\">+</p>", "internal_node_id": "0.0-142.0-0.0", "time_elapsed": 847418, "key_press": -1, "type": "FIXATION", "trial_index": 196}, "uniqueid": "MTK1821:3SB4CE2TJW28E7P54CL4UFJTPK3XAT", "dateTime": 1516478678454}, {"current_trial": 197, "trialdata": {"rt": -1, "trial_type": "single-stim", "word": "coin", "stimulus": "<p id=\"stim\">COIN</p>", "conditions": [24, 1600, "v", 12000], "internal_node_id": "0.0-143.0", "trial": 5, "time_elapsed": 849022, "serialpos": 0, "key_press": -1, "wordID": 342, "type": "PRES_VIS", "trial_index": 197}, "uniqueid": "MTK1821:3SB4CE2TJW28E7P54CL4UFJTPK3XAT", "dateTime": 1516478680058}, {"current_trial": 198, "trialdata": {"rt": -1, "trial_type": "single-stim", "word": "crater", "stimulus": "<p id=\"stim\">CRATER</p>", "conditions": [24, 1600, "v", 12000], "internal_node_id": "0.0-144.0", "trial": 5, "time_elapsed": 851778, "serialpos": 1, "key_press": -1, "wordID": 399, "type": "PRES_VIS", "trial_index": 198}, "uniqueid": "MTK1821:3SB4CE2TJW28E7P54CL4UFJTPK3XAT", "dateTime": 1516478682814}, {"current_trial": 199, "trialdata": {"rt": -1, "trial_type": "single-stim", "word": "shirt", "stimulus": "<p id=\"stim\">SHIRT</p>", "conditions": [24, 1600, "v", 12000], "internal_node_id": "0.0-145.0", "trial": 5, "time_elapsed": 854498, "serialpos": 2, "key_press": -1, "wordID": 1286, "type": "PRES_VIS", "trial_index": 199}, "uniqueid": "MTK1821:3SB4CE2TJW28E7P54CL4UFJTPK3XAT", "dateTime": 1516478685533}, {"current_trial": 200, "trialdata": {"rt": -1, "trial_type": "single-stim", "word": "headband", "stimulus": "<p id=\"stim\">HEADBAND</p>", "conditions": [24, 1600, "v", 12000], "internal_node_id": "0.0-146.0", "trial": 5, "time_elapsed": 857060, "serialpos": 3, "key_press": -1, "wordID": 695, "type": "PRES_VIS", "trial_index": 200}, "uniqueid": "MTK1821:3SB4CE2TJW28E7P54CL4UFJTPK3XAT", "dateTime": 1516478688096}, {"current_trial": 201, "trialdata": {"rt": -1, "trial_type": "single-stim", "word": "skillet", "stimulus": "<p id=\"stim\">SKILLET</p>", "conditions": [24, 1600, "v", 12000], "internal_node_id": "0.0-147.0", "trial": 5, "time_elapsed": 859606, "serialpos": 4, "key_press": -1, "wordID": 1316, "type": "PRES_VIS", "trial_index": 201}, "uniqueid": "MTK1821:3SB4CE2TJW28E7P54CL4UFJTPK3XAT", "dateTime": 1516478690641}, {"current_trial": 202, "trialdata": {"rt": -1, "trial_type": "single-stim", "word": "bouquet", "stimulus": "<p id=\"stim\">BOUQUET</p>", "conditions": [24, 1600, "v", 12000], "internal_node_id": "0.0-148.0", "trial": 5, "time_elapsed": 862291, "serialpos": 5, "key_press": -1, "wordID": 156, "type": "PRES_VIS", "trial_index": 202}, "uniqueid": "MTK1821:3SB4CE2TJW28E7P54CL4UFJTPK3XAT", "dateTime": 1516478693326}, {"current_trial": 203, "trialdata": {"rt": -1, "trial_type": "single-stim", "word": "lodge", "stimulus": "<p id=\"stim\">LODGE</p>", "conditions": [24, 1600, "v", 12000], "internal_node_id": "0.0-149.0", "trial": 5, "time_elapsed": 864819, "serialpos": 6, "key_press": -1, "wordID": 838, "type": "PRES_VIS", "trial_index": 203}, "uniqueid": "MTK1821:3SB4CE2TJW28E7P54CL4UFJTPK3XAT", "dateTime": 1516478695855}, {"current_trial": 204, "trialdata": {"rt": -1, "trial_type": "single-stim", "word": "briefcase", "stimulus": "<p id=\"stim\">BRIEFCASE</p>", "conditions": [24, 1600, "v", 12000], "internal_node_id": "0.0-150.0", "trial": 5, "time_elapsed": 867353, "serialpos": 7, "key_press": -1, "wordID": 174, "type": "PRES_VIS", "trial_index": 204}, "uniqueid": "MTK1821:3SB4CE2TJW28E7P54CL4UFJTPK3XAT", "dateTime": 1516478698389}, {"current_trial": 205, "trialdata": {"rt": -1, "trial_type": "single-stim", "word": "knapsack", "stimulus": "<p id=\"stim\">KNAPSACK</p>", "conditions": [24, 1600, "v", 12000], "internal_node_id": "0.0-151.0", "trial": 5, "time_elapsed": 869982, "serialpos": 8, "key_press": -1, "wordID": 782, "type": "PRES_VIS", "trial_index": 205}, "uniqueid": "MTK1821:3SB4CE2TJW28E7P54CL4UFJTPK3XAT", "dateTime": 1516478701018}, {"current_trial": 206, "trialdata": {"rt": -1, "trial_type": "single-stim", "word": "dress", "stimulus": "<p id=\"stim\">DRESS</p>", "conditions": [24, 1600, "v", 12000], "internal_node_id": "0.0-152.0", "trial": 5, "time_elapsed": 872399, "serialpos": 9, "key_press": -1, "wordID": 494, "type": "PRES_VIS", "trial_index": 206}, "uniqueid": "MTK1821:3SB4CE2TJW28E7P54CL4UFJTPK3XAT", "dateTime": 1516478703435}, {"current_trial": 207, "trialdata": {"rt": -1, "trial_type": "single-stim", "word": "quarter", "stimulus": "<p id=\"stim\">QUARTER</p>", "conditions": [24, 1600, "v", 12000], "internal_node_id": "0.0-153.0", "trial": 5, "time_elapsed": 874889, "serialpos": 10, "key_press": -1, "wordID": 1147, "type": "PRES_VIS", "trial_index": 207}, "uniqueid": "MTK1821:3SB4CE2TJW28E7P54CL4UFJTPK3XAT", "dateTime": 1516478705925}, {"current_trial": 208, "trialdata": {"rt": -1, "trial_type": "single-stim", "word": "lava", "stimulus": "<p id=\"stim\">LAVA</p>", "conditions": [24, 1600, "v", 12000], "internal_node_id": "0.0-154.0", "trial": 5, "time_elapsed": 877326, "serialpos": 11, "key_press": -1, "wordID": 803, "type": "PRES_VIS", "trial_index": 208}, "uniqueid": "MTK1821:3SB4CE2TJW28E7P54CL4UFJTPK3XAT", "dateTime": 1516478708361}, {"current_trial": 209, "trialdata": {"rt": -1, "trial_type": "single-stim", "word": "island", "stimulus": "<p id=\"stim\">ISLAND</p>", "conditions": [24, 1600, "v", 12000], "internal_node_id": "0.0-155.0", "trial": 5, "time_elapsed": 879958, "serialpos": 12, "key_press": -1, "wordID": 744, "type": "PRES_VIS", "trial_index": 209}, "uniqueid": "MTK1821:3SB4CE2TJW28E7P54CL4UFJTPK3XAT", "dateTime": 1516478710994}, {"current_trial": 210, "trialdata": {"rt": -1, "trial_type": "single-stim", "word": "cookbook", "stimulus": "<p id=\"stim\">COOKBOOK</p>", "conditions": [24, 1600, "v", 12000], "internal_node_id": "0.0-156.0", "trial": 5, "time_elapsed": 882469, "serialpos": 13, "key_press": -1, "wordID": 372, "type": "PRES_VIS", "trial_index": 210}, "uniqueid": "MTK1821:3SB4CE2TJW28E7P54CL4UFJTPK3XAT", "dateTime": 1516478713505}, {"current_trial": 211, "trialdata": {"rt": -1, "trial_type": "single-stim", "word": "girl", "stimulus": "<p id=\"stim\">GIRL</p>", "conditions": [24, 1600, "v", 12000], "internal_node_id": "0.0-157.0", "trial": 5, "time_elapsed": 885143, "serialpos": 14, "key_press": -1, "wordID": 636, "type": "PRES_VIS", "trial_index": 211}, "uniqueid": "MTK1821:3SB4CE2TJW28E7P54CL4UFJTPK3XAT", "dateTime": 1516478716179}, {"current_trial": 212, "trialdata": {"rt": -1, "trial_type": "single-stim", "word": "fungus", "stimulus": "<p id=\"stim\">FUNGUS</p>", "conditions": [24, 1600, "v", 12000], "internal_node_id": "0.0-158.0", "trial": 5, "time_elapsed": 887559, "serialpos": 15, "key_press": -1, "wordID": 613, "type": "PRES_VIS", "trial_index": 212}, "uniqueid": "MTK1821:3SB4CE2TJW28E7P54CL4UFJTPK3XAT", "dateTime": 1516478718595}, {"current_trial": 213, "trialdata": {"rt": -1, "trial_type": "single-stim", "word": "ketchup", "stimulus": "<p id=\"stim\">KETCHUP</p>", "conditions": [24, 1600, "v", 12000], "internal_node_id": "0.0-159.0", "trial": 5, "time_elapsed": 889991, "serialpos": 16, "key_press": -1, "wordID": 770, "type": "PRES_VIS", "trial_index": 213}, "uniqueid": "MTK1821:3SB4CE2TJW28E7P54CL4UFJTPK3XAT", "dateTime": 1516478721026}, {"current_trial": 214, "trialdata": {"rt": -1, "trial_type": "single-stim", "word": "robot", "stimulus": "<p id=\"stim\">ROBOT</p>", "conditions": [24, 1600, "v", 12000], "internal_node_id": "0.0-160.0", "trial": 5, "time_elapsed": 892510, "serialpos": 17, "key_press": -1, "wordID": 1199, "type": "PRES_VIS", "trial_index": 214}, "uniqueid": "MTK1821:3SB4CE2TJW28E7P54CL4UFJTPK3XAT", "dateTime": 1516478723546}, {"current_trial": 215, "trialdata": {"rt": -1, "trial_type": "single-stim", "word": "scalpel", "stimulus": "<p id=\"stim\">SCALPEL</p>", "conditions": [24, 1600, "v", 12000], "internal_node_id": "0.0-161.0", "trial": 5, "time_elapsed": 895214, "serialpos": 18, "key_press": -1, "wordID": 1242, "type": "PRES_VIS", "trial_index": 215}, "uniqueid": "MTK1821:3SB4CE2TJW28E7P54CL4UFJTPK3XAT", "dateTime": 1516478726249}, {"current_trial": 216, "trialdata": {"rt": -1, "trial_type": "single-stim", "word": "driver", "stimulus": "<p id=\"stim\">DRIVER</p>", "conditions": [24, 1600, "v", 12000], "internal_node_id": "0.0-162.0", "trial": 5, "time_elapsed": 897976, "serialpos": 19, "key_press": -1, "wordID": 498, "type": "PRES_VIS", "trial_index": 216}, "uniqueid": "MTK1821:3SB4CE2TJW28E7P54CL4UFJTPK3XAT", "dateTime": 1516478729011}, {"current_trial": 217, "trialdata": {"rt": -1, "trial_type": "single-stim", "word": "iceberg", "stimulus": "<p id=\"stim\">ICEBERG</p>", "conditions": [24, 1600, "v", 12000], "internal_node_id": "0.0-163.0", "trial": 5, "time_elapsed": 900510, "serialpos": 20, "key_press": -1, "wordID": 730, "type": "PRES_VIS", "trial_index": 217}, "uniqueid": "MTK1821:3SB4CE2TJW28E7P54CL4UFJTPK3XAT", "dateTime": 1516478731546}, {"current_trial": 218, "trialdata": {"rt": -1, "trial_type": "single-stim", "word": "grape", "stimulus": "<p id=\"stim\">GRAPE</p>", "conditions": [24, 1600, "v", 12000], "internal_node_id": "0.0-164.0", "trial": 5, "time_elapsed": 902950, "serialpos": 21, "key_press": -1, "wordID": 653, "type": "PRES_VIS", "trial_index": 218}, "uniqueid": "MTK1821:3SB4CE2TJW28E7P54CL4UFJTPK3XAT", "dateTime": 1516478733986}, {"current_trial": 219, "trialdata": {"rt": -1, "trial_type": "single-stim", "word": "apple", "stimulus": "<p id=\"stim\">APPLE</p>", "conditions": [24, 1600, "v", 12000], "internal_node_id": "0.0-165.0", "trial": 5, "time_elapsed": 905730, "serialpos": 22, "key_press": -1, "wordID": 32, "type": "PRES_VIS", "trial_index": 219}, "uniqueid": "MTK1821:3SB4CE2TJW28E7P54CL4UFJTPK3XAT", "dateTime": 1516478736766}, {"current_trial": 220, "trialdata": {"rt": -1, "trial_type": "single-stim", "word": "woman", "stimulus": "<p id=\"stim\">WOMAN</p>", "conditions": [24, 1600, "v", 12000], "internal_node_id": "0.0-166.0", "trial": 5, "time_elapsed": 908235, "serialpos": 23, "key_press": -1, "wordID": 1619, "type": "PRES_VIS", "trial_index": 220}, "uniqueid": "MTK1821:3SB4CE2TJW28E7P54CL4UFJTPK3XAT", "dateTime": 1516478739271}, {"current_trial": 221, "trialdata": {"rt": -1, "trial_type": "single-stim", "stimulus": "", "internal_node_id": "0.0-167.0-0.0", "time_elapsed": 910560, "key_press": -1, "type": "PRE_RECALL_DELAY", "trial_index": 221}, "uniqueid": "MTK1821:3SB4CE2TJW28E7P54CL4UFJTPK3XAT", "dateTime": 1516478741596}, {"current_trial": 222, "trialdata": {"rt": -1000, "trial_type": "single-audio", "stimulus": "/static/audio/400Hz.wav", "internal_node_id": "0.0-168.0", "time_elapsed": 911064, "key_press": -1, "type": "PRE_RECALL_ALERT", "trial_index": 222}, "uniqueid": "MTK1821:3SB4CE2TJW28E7P54CL4UFJTPK3XAT", "dateTime": 1516478742100}, {"current_trial": 223, "trialdata": {"rt": [9162, 19145, 24493, 28328, 32139, 36176, 40006, 54231], "recwords": ["ketchup", "lodge", "cookbook", "apple", "fungus", "lodge", "iceberg", "briefcase"], "key_times": [4370, 5941, 6555, 7682, 7974, 8229, 8533, 9162, 14860, 15065, 17404, 17692, 17961, 19145, 20539, 21051, 21191, 21508, 21950, 22439, 22689, 23304, 23664, 24016, 24493, 26079, 26793, 26951, 27168, 27682, 28328, 30138, 30475, 30753, 30962, 31195, 31544, 32139, 34360, 34543, 34941, 35194, 35459, 36176, 37807, 38163, 38381, 38662, 38924, 39144, 39378, 40006, 43139, 43404, 43967, 44847, 44858, 51112, 51702, 52162, 52373, 52720, 53011, 53222, 53418, 54231, 59481, 59738], "trial_type": "free-recall", "conditions": [24, 1600, "v", 12000], "internal_node_id": "0.0-169.0-0.0", "key_presses": [75, 69, 84, 67, 72, 85, 80, 13, 76, 79, 68, 71, 69, 13, 67, 79, 79, 75, 66, 79, 75, 8, 79, 75, 13, 65, 80, 80, 76, 69, 13, 70, 85, 78, 71, 85, 83, 13, 76, 79, 68, 71, 69, 13, 73, 67, 69, 66, 69, 82, 71, 13, 66, 82, 85, 187, 8, 8, 73, 69, 70, 67, 65, 83, 69, 13, 67, 82], "trial": 5, "time_elapsed": 971082, "type": "FREE_RECALL", "trial_index": 223}, "uniqueid": "MTK1821:3SB4CE2TJW28E7P54CL4UFJTPK3XAT", "dateTime": 1516478802146}, {"current_trial": 224, "trialdata": {"rt": 3339, "trial_type": "text", "internal_node_id": "0.0-170.0", "time_elapsed": 976453, "key_press": 66, "type": "INSTRUCTIONS", "trial_index": 224}, "uniqueid": "MTK1821:3SB4CE2TJW28E7P54CL4UFJTPK3XAT", "dateTime": 1516478807489}, {"current_trial": 225, "trialdata": {"rt": [4264, 10575], "trial_type": "math-distractor", "key_times": [2745, 3316, 4264, 6086, 7542, 8231, 8823, 9217, 10205, 10575], "responses": ["17", "20"], "num2": [7, 4, 3], "num3": [1, 9, 4], "conditions": [12, 800, "v", 12000], "internal_node_id": "0.0-171.0", "key_presses": [49, 55, 13, 49, 8, 50, 48, 222, 8, 13], "trial": 6, "time_elapsed": 990471, "type": "DISTRACTOR", "trial_index": 225, "num1": [9, 7, 5]}, "uniqueid": "MTK1821:3SB4CE2TJW28E7P54CL4UFJTPK3XAT", "dateTime": 1516478821506}, {"current_trial": 226, "trialdata": {"rt": -1, "trial_type": "single-stim", "stimulus": "<p id=\"stim\">10</p>", "internal_node_id": "0.0-172.0-0.0", "time_elapsed": 993478, "key_press": -1, "trial_index": 226}, "uniqueid": "MTK1821:3SB4CE2TJW28E7P54CL4UFJTPK3XAT", "dateTime": 1516478824514}, {"current_trial": 227, "trialdata": {"rt": -1, "trial_type": "single-stim", "stimulus": "<p id=\"stim\">9</p>", "internal_node_id": "0.0-172.0-1.0", "time_elapsed": 994481, "key_press": -1, "trial_index": 227}, "uniqueid": "MTK1821:3SB4CE2TJW28E7P54CL4UFJTPK3XAT", "dateTime": 1516478825517}, {"current_trial": 228, "trialdata": {"rt": -1, "trial_type": "single-stim", "stimulus": "<p id=\"stim\">8</p>", "internal_node_id": "0.0-172.0-2.0", "time_elapsed": 995485, "key_press": -1, "trial_index": 228}, "uniqueid": "MTK1821:3SB4CE2TJW28E7P54CL4UFJTPK3XAT", "dateTime": 1516478826521}, {"current_trial": 229, "trialdata": {"rt": -1, "trial_type": "single-stim", "stimulus": "<p id=\"stim\">7</p>", "internal_node_id": "0.0-172.0-3.0", "time_elapsed": 996490, "key_press": -1, "trial_index": 229}, "uniqueid": "MTK1821:3SB4CE2TJW28E7P54CL4UFJTPK3XAT", "dateTime": 1516478827525}, {"current_trial": 230, "trialdata": {"rt": -1, "trial_type": "single-stim", "stimulus": "<p id=\"stim\">6</p>", "internal_node_id": "0.0-172.0-4.0", "time_elapsed": 997494, "key_press": -1, "trial_index": 230}, "uniqueid": "MTK1821:3SB4CE2TJW28E7P54CL4UFJTPK3XAT", "dateTime": 1516478828530}, {"current_trial": 231, "trialdata": {"rt": -1, "trial_type": "single-stim", "stimulus": "<p id=\"stim\">5</p>", "internal_node_id": "0.0-172.0-5.0", "time_elapsed": 998498, "key_press": -1, "trial_index": 231}, "uniqueid": "MTK1821:3SB4CE2TJW28E7P54CL4UFJTPK3XAT", "dateTime": 1516478829534}, {"current_trial": 232, "trialdata": {"rt": -1, "trial_type": "single-stim", "stimulus": "<p id=\"stim\">4</p>", "internal_node_id": "0.0-172.0-6.0", "time_elapsed": 999502, "key_press": -1, "trial_index": 232}, "uniqueid": "MTK1821:3SB4CE2TJW28E7P54CL4UFJTPK3XAT", "dateTime": 1516478830538}, {"current_trial": 233, "trialdata": {"rt": -1, "trial_type": "single-stim", "stimulus": "<p id=\"stim\">3</p>", "internal_node_id": "0.0-172.0-7.0", "time_elapsed": 1000506, "key_press": -1, "trial_index": 233}, "uniqueid": "MTK1821:3SB4CE2TJW28E7P54CL4UFJTPK3XAT", "dateTime": 1516478831542}, {"current_trial": 234, "trialdata": {"rt": -1, "trial_type": "single-stim", "stimulus": "<p id=\"stim\">2</p>", "internal_node_id": "0.0-172.0-8.0", "time_elapsed": 1001510, "key_press": -1, "trial_index": 234}, "uniqueid": "MTK1821:3SB4CE2TJW28E7P54CL4UFJTPK3XAT", "dateTime": 1516478832546}, {"current_trial": 235, "trialdata": {"rt": -1, "trial_type": "single-stim", "stimulus": "<p id=\"stim\">1</p>", "internal_node_id": "0.0-172.0-9.0", "time_elapsed": 1002514, "key_press": -1, "trial_index": 235}, "uniqueid": "MTK1821:3SB4CE2TJW28E7P54CL4UFJTPK3XAT", "dateTime": 1516478833550}, {"current_trial": 236, "trialdata": {"rt": -1, "trial_type": "single-stim", "stimulus": "<p id=\"stim\">+</p>", "internal_node_id": "0.0-173.0-0.0", "time_elapsed": 1004018, "key_press": -1, "type": "FIXATION", "trial_index": 236}, "uniqueid": "MTK1821:3SB4CE2TJW28E7P54CL4UFJTPK3XAT", "dateTime": 1516478835054}, {"current_trial": 237, "trialdata": {"rt": -1, "trial_type": "single-stim", "word": "knife", "stimulus": "<p id=\"stim\">KNIFE</p>", "conditions": [12, 800, "v", 12000], "internal_node_id": "0.0-174.0", "trial": 6, "time_elapsed": 1004821, "serialpos": 0, "key_press": -1, "wordID": 784, "type": "PRES_VIS", "trial_index": 237}, "uniqueid": "MTK1821:3SB4CE2TJW28E7P54CL4UFJTPK3XAT", "dateTime": 1516478835857}, {"current_trial": 238, "trialdata": {"rt": -1, "trial_type": "single-stim", "word": "razor", "stimulus": "<p id=\"stim\">RAZOR</p>", "conditions": [12, 800, "v", 12000], "internal_node_id": "0.0-175.0", "trial": 6, "time_elapsed": 1006487, "serialpos": 1, "key_press": -1, "wordID": 1170, "type": "PRES_VIS", "trial_index": 238}, "uniqueid": "MTK1821:3SB4CE2TJW28E7P54CL4UFJTPK3XAT", "dateTime": 1516478837524}, {"current_trial": 239, "trialdata": {"rt": -1, "trial_type": "single-stim", "word": "atom", "stimulus": "<p id=\"stim\">ATOM</p>", "conditions": [12, 800, "v", 12000], "internal_node_id": "0.0-176.0", "trial": 6, "time_elapsed": 1008399, "serialpos": 2, "key_press": -1, "wordID": 54, "type": "PRES_VIS", "trial_index": 239}, "uniqueid": "MTK1821:3SB4CE2TJW28E7P54CL4UFJTPK3XAT", "dateTime": 1516478839435}, {"current_trial": 240, "trialdata": {"rt": -1, "trial_type": "single-stim", "word": "tart", "stimulus": "<p id=\"stim\">TART</p>", "conditions": [12, 800, "v", 12000], "internal_node_id": "0.0-177.0", "trial": 6, "time_elapsed": 1010296, "serialpos": 3, "key_press": -1, "wordID": 1435, "type": "PRES_VIS", "trial_index": 240}, "uniqueid": "MTK1821:3SB4CE2TJW28E7P54CL4UFJTPK3XAT", "dateTime": 1516478841332}, {"current_trial": 241, "trialdata": {"rt": -1, "trial_type": "single-stim", "word": "mars", "stimulus": "<p id=\"stim\">MARS</p>", "conditions": [12, 800, "v", 12000], "internal_node_id": "0.0-178.0", "trial": 6, "time_elapsed": 1012141, "serialpos": 4, "key_press": -1, "wordID": 872, "type": "PRES_VIS", "trial_index": 241}, "uniqueid": "MTK1821:3SB4CE2TJW28E7P54CL4UFJTPK3XAT", "dateTime": 1516478843177}, {"current_trial": 242, "trialdata": {"rt": -1, "trial_type": "single-stim", "word": "trout", "stimulus": "<p id=\"stim\">TROUT</p>", "conditions": [12, 800, "v", 12000], "internal_node_id": "0.0-179.0", "trial": 6, "time_elapsed": 1013928, "serialpos": 5, "key_press": -1, "wordID": 1510, "type": "PRES_VIS", "trial_index": 242}, "uniqueid": "MTK1821:3SB4CE2TJW28E7P54CL4UFJTPK3XAT", "dateTime": 1516478844964}, {"current_trial": 243, "trialdata": {"rt": -1, "trial_type": "single-stim", "word": "muffin", "stimulus": "<p id=\"stim\">MUFFIN</p>", "conditions": [12, 800, "v", 12000], "internal_node_id": "0.0-180.0", "trial": 6, "time_elapsed": 1015766, "serialpos": 6, "key_press": -1, "wordID": 928, "type": "PRES_VIS", "trial_index": 243}, "uniqueid": "MTK1821:3SB4CE2TJW28E7P54CL4UFJTPK3XAT", "dateTime": 1516478846802}, {"current_trial": 244, "trialdata": {"rt": -1, "trial_type": "single-stim", "word": "notebook", "stimulus": "<p id=\"stim\">NOTEBOOK</p>", "conditions": [12, 800, "v", 12000], "internal_node_id": "0.0-181.0", "trial": 6, "time_elapsed": 1017671, "serialpos": 7, "key_press": -1, "wordID": 958, "type": "PRES_VIS", "trial_index": 244}, "uniqueid": "MTK1821:3SB4CE2TJW28E7P54CL4UFJTPK3XAT", "dateTime": 1516478848707}, {"current_trial": 245, "trialdata": {"rt": -1, "trial_type": "single-stim", "word": "transplant", "stimulus": "<p id=\"stim\">TRANSPLANT</p>", "conditions": [12, 800, "v", 12000], "internal_node_id": "0.0-182.0", "trial": 6, "time_elapsed": 1019473, "serialpos": 8, "key_press": -1, "wordID": 1495, "type": "PRES_VIS", "trial_index": 245}, "uniqueid": "MTK1821:3SB4CE2TJW28E7P54CL4UFJTPK3XAT", "dateTime": 1516478850509}, {"current_trial": 246, "trialdata": {"rt": -1, "trial_type": "single-stim", "word": "barrel", "stimulus": "<p id=\"stim\">BARREL</p>", "conditions": [12, 800, "v", 12000], "internal_node_id": "0.0-183.0", "trial": 6, "time_elapsed": 1021182, "serialpos": 9, "key_press": -1, "wordID": 90, "type": "PRES_VIS", "trial_index": 246}, "uniqueid": "MTK1821:3SB4CE2TJW28E7P54CL4UFJTPK3XAT", "dateTime": 1516478852218}, {"current_trial": 247, "trialdata": {"rt": -1, "trial_type": "single-stim", "word": "gallon", "stimulus": "<p id=\"stim\">GALLON</p>", "conditions": [12, 800, "v", 12000], "internal_node_id": "0.0-184.0", "trial": 6, "time_elapsed": 1023150, "serialpos": 10, "key_press": -1, "wordID": 617, "type": "PRES_VIS", "trial_index": 247}, "uniqueid": "MTK1821:3SB4CE2TJW28E7P54CL4UFJTPK3XAT", "dateTime": 1516478854186}, {"current_trial": 248, "trialdata": {"rt": -1, "trial_type": "single-stim", "word": "scissors", "stimulus": "<p id=\"stim\">SCISSORS</p>", "conditions": [12, 800, "v", 12000], "internal_node_id": "0.0-185.0", "trial": 6, "time_elapsed": 1024966, "serialpos": 11, "key_press": -1, "wordID": 1249, "type": "PRES_VIS", "trial_index": 248}, "uniqueid": "MTK1821:3SB4CE2TJW28E7P54CL4UFJTPK3XAT", "dateTime": 1516478856003}, {"current_trial": 249, "trialdata": {"rt": -1, "trial_type": "single-stim", "stimulus": "", "internal_node_id": "0.0-186.0-0.0", "time_elapsed": 1027172, "key_press": -1, "type": "PRE_RECALL_DELAY", "trial_index": 249}, "uniqueid": "MTK1821:3SB4CE2TJW28E7P54CL4UFJTPK3XAT", "dateTime": 1516478858208}, {"current_trial": 250, "trialdata": {"rt": -1000, "trial_type": "single-audio", "stimulus": "/static/audio/400Hz.wav", "internal_node_id": "0.0-187.0", "time_elapsed": 1027702, "key_press": -1, "type": "PRE_RECALL_ALERT", "trial_index": 250}, "uniqueid": "MTK1821:3SB4CE2TJW28E7P54CL4UFJTPK3XAT", "dateTime": 1516478858738}, {"current_trial": 251, "trialdata": {"rt": [9923, 12324, 16336, 19471, 24398], "recwords": ["atom", "tart", "mars", "trout", "muffin"], "key_times": [5520, 5977, 6646, 6988, 9923, 10630, 11085, 11429, 11621, 12324, 14143, 14774, 15234, 15504, 16336, 17602, 17788, 18227, 18506, 18730, 19471, 22050, 22335, 22636, 22772, 23124, 23418, 24398], "trial_type": "free-recall", "conditions": [12, 800, "v", 12000], "internal_node_id": "0.0-188.0-0.0", "key_presses": [65, 84, 79, 77, 13, 84, 65, 82, 84, 13, 77, 65, 82, 83, 13, 84, 82, 79, 85, 84, 13, 77, 85, 70, 70, 73, 78, 13], "trial": 6, "time_elapsed": 1087713, "type": "FREE_RECALL", "trial_index": 251}, "uniqueid": "MTK1821:3SB4CE2TJW28E7P54CL4UFJTPK3XAT", "dateTime": 1516478918777}, {"current_trial": 252, "trialdata": {"rt": 1824, "trial_type": "text", "internal_node_id": "0.0-189.0", "time_elapsed": 1091577, "key_press": 32, "type": "INSTRUCTIONS", "trial_index": 252}, "uniqueid": "MTK1821:3SB4CE2TJW28E7P54CL4UFJTPK3XAT", "dateTime": 1516478922613}, {"current_trial": 253, "trialdata": {"rt": [4961, 11836], "trial_type": "math-distractor", "key_times": [3113, 4020, 4961, 6617, 6989, 7987, 8186, 8214, 9322, 11263, 11836], "responses": ["18", "17"], "num2": [9, 2, 9], "num3": [7, 7, 8], "conditions": [24, 800, "v", 12000], "internal_node_id": "0.0-190.0", "key_presses": [49, 56, 13, 87, 49, 8, 8, 8, 49, 55, 13], "trial": 7, "time_elapsed": 1105593, "type": "DISTRACTOR", "trial_index": 253, "num1": [2, 8, 8]}, "uniqueid": "MTK1821:3SB4CE2TJW28E7P54CL4UFJTPK3XAT", "dateTime": 1516478936629}, {"current_trial": 254, "trialdata": {"rt": -1, "trial_type": "single-stim", "stimulus": "<p id=\"stim\">10</p>", "internal_node_id": "0.0-191.0-0.0", "time_elapsed": 1108599, "key_press": -1, "trial_index": 254}, "uniqueid": "MTK1821:3SB4CE2TJW28E7P54CL4UFJTPK3XAT", "dateTime": 1516478939635}, {"current_trial": 255, "trialdata": {"rt": -1, "trial_type": "single-stim", "stimulus": "<p id=\"stim\">9</p>", "internal_node_id": "0.0-191.0-1.0", "time_elapsed": 1109603, "key_press": -1, "trial_index": 255}, "uniqueid": "MTK1821:3SB4CE2TJW28E7P54CL4UFJTPK3XAT", "dateTime": 1516478940639}, {"current_trial": 256, "trialdata": {"rt": -1, "trial_type": "single-stim", "stimulus": "<p id=\"stim\">8</p>", "internal_node_id": "0.0-191.0-2.0", "time_elapsed": 1110607, "key_press": -1, "trial_index": 256}, "uniqueid": "MTK1821:3SB4CE2TJW28E7P54CL4UFJTPK3XAT", "dateTime": 1516478941643}, {"current_trial": 257, "trialdata": {"rt": -1, "trial_type": "single-stim", "stimulus": "<p id=\"stim\">7</p>", "internal_node_id": "0.0-191.0-3.0", "time_elapsed": 1111611, "key_press": -1, "trial_index": 257}, "uniqueid": "MTK1821:3SB4CE2TJW28E7P54CL4UFJTPK3XAT", "dateTime": 1516478942647}, {"current_trial": 258, "trialdata": {"rt": -1, "trial_type": "single-stim", "stimulus": "<p id=\"stim\">6</p>", "internal_node_id": "0.0-191.0-4.0", "time_elapsed": 1112615, "key_press": -1, "trial_index": 25