{"condition": 0, "counterbalance": 2265, "assignmentId": "3X1FV8S5JYYHK9XDQXCW2GXB351GVC", "workerId": "MTK1005", "hitId": "3IH9TRB0FB6D74PGJ5N8RK7RD6Z1I6", "currenttrial": 626, "bonus": 0, "data": [{"uniqueid": "MTK1005:3X1FV8S5JYYHK9XDQXCW2GXB351GVC", "current_trial": 0, "dateTime": 1513037489260, "trialdata": {"rt": 24274, "key_press": 32, "type": "INSTRUCTIONS", "trial_type": "text", "trial_index": 0, "time_elapsed": 24275, "internal_node_id": "0.0-0.0"}}, {"uniqueid": "MTK1005:3X1FV8S5JYYHK9XDQXCW2GXB351GVC", "current_trial": 1, "dateTime": 1513037558142, "trialdata": {"rt": 68880, "key_press": 32, "type": "INSTRUCTIONS", "trial_type": "text", "trial_index": 1, "time_elapsed": 93157, "internal_node_id": "0.0-1.0"}}, {"uniqueid": "MTK1005:3X1FV8S5JYYHK9XDQXCW2GXB351GVC", "current_trial": 2, "dateTime": 1513037571000, "trialdata": {"rt": [12822], "responses": ["ocean"], "type": "AUDIO_TEST", "trial_type": "audio-test", "trial_index": 2, "time_elapsed": 106016, "internal_node_id": "0.0-2.0"}}, {"uniqueid": "MTK1005:3X1FV8S5JYYHK9XDQXCW2GXB351GVC", "current_trial": 3, "dateTime": 1513037588935, "trialdata": {"rt": [17919], "responses": ["crystal"], "type": "AUDIO_TEST", "trial_type": "audio-test", "trial_index": 3, "time_elapsed": 123950, "internal_node_id": "0.0-3.0"}}, {"uniqueid": "MTK1005:3X1FV8S5JYYHK9XDQXCW2GXB351GVC", "current_trial": 4, "dateTime": 1513037601750, "trialdata": {"rt": [12799], "responses": ["spice"], "type": "AUDIO_TEST", "trial_type": "audio-test", "trial_index": 4, "time_elapsed": 136766, "internal_node_id": "0.0-4.0"}}, {"uniqueid": "MTK1005:3X1FV8S5JYYHK9XDQXCW2GXB351GVC", "current_trial": 5, "dateTime": 1513037645532, "trialdata": {"rt": 43029, "responses": "{\"Q0\":\"12:00\",\"Q1\":\"7:30\",\"Q2\":\"5\"}", "type": "SLEEP_SURVEY", "trial_type": "survey-text", "trial_index": 5, "time_elapsed": 180548, "internal_node_id": "0.0-5.0"}}, {"uniqueid": "MTK1005:3X1FV8S5JYYHK9XDQXCW2GXB351GVC", "current_trial": 6, "dateTime": 1513037879219, "trialdata": {"rt": 232685, "key_press": 13, "type": "INSTRUCTIONS", "trial_type": "text", "trial_index": 6, "time_elapsed": 414235, "internal_node_id": "0.0-6.0"}}, {"uniqueid": "MTK1005:3X1FV8S5JYYHK9XDQXCW2GXB351GVC", "current_trial": 7, "dateTime": 1513037900121, "trialdata": {"rt": 20401, "key_press": 13, "type": "INSTRUCTIONS", "trial_type": "text", "trial_index": 7, "time_elapsed": 435137, "internal_node_id": "0.0-7.0"}}, {"uniqueid": "MTK1005:3X1FV8S5JYYHK9XDQXCW2GXB351GVC", "current_trial": 8, "dateTime": 1513037912401, "trialdata": {"rt": 11779, "key_press": 32, "type": "INSTRUCTIONS", "trial_type": "text", "trial_index": 8, "time_elapsed": 447417, "internal_node_id": "0.0-8.0"}}, {"uniqueid": "MTK1005:3X1FV8S5JYYHK9XDQXCW2GXB351GVC", "current_trial": 9, "dateTime": 1513037931408, "trialdata": {"rt": [11330], "responses": ["22"], "num1": [9, 6], "num2": [7, 9], "num3": [6, 2], "type": "DISTRACTOR", "conditions": [18, 1200, "v", 18000], "trial": 0, "trial_type": "math-distractor", "trial_index": 9, "time_elapsed": 466424, "internal_node_id": "0.0-9.0"}}, {"uniqueid": "MTK1005:3X1FV8S5JYYHK9XDQXCW2GXB351GVC", "current_trial": 10, "dateTime": 1513037934411, "trialdata": {"rt": -1, "stimulus": "<p id=\"stim\">10</p>", "key_press": -1, "trial_type": "single-stim", "trial_index": 10, "time_elapsed": 469427, "internal_node_id": "0.0-10.0-0.0"}}, {"uniqueid": "MTK1005:3X1FV8S5JYYHK9XDQXCW2GXB351GVC", "current_trial": 11, "dateTime": 1513037935411, "trialdata": {"rt": -1, "stimulus": "<p id=\"stim\">9</p>", "key_press": -1, "trial_type": "single-stim", "trial_index": 11, "time_elapsed": 470427, "internal_node_id": "0.0-10.0-1.0"}}, {"uniqueid": "MTK1005:3X1FV8S5JYYHK9XDQXCW2GXB351GVC", "current_trial": 12, "dateTime": 1513037936412, "trialdata": {"rt": -1, "stimulus": "<p id=\"stim\">8</p>", "key_press": -1, "trial_type": "single-stim", "trial_index": 12, "time_elapsed": 471428, "internal_node_id": "0.0-10.0-2.0"}}, {"uniqueid": "MTK1005:3X1FV8S5JYYHK9XDQXCW2GXB351GVC", "current_trial": 13, "dateTime": 1513037937412, "trialdata": {"rt": -1, "stimulus": "<p id=\"stim\">7</p>", "key_press": -1, "trial_type": "single-stim", "trial_index": 13, "time_elapsed": 472428, "internal_node_id": "0.0-10.0-3.0"}}, {"uniqueid": "MTK1005:3X1FV8S5JYYHK9XDQXCW2GXB351GVC", "current_trial": 14, "dateTime": 1513037938414, "trialdata": {"rt": -1, "stimulus": "<p id=\"stim\">6</p>", "key_press": -1, "trial_type": "single-stim", "trial_index": 14, "time_elapsed": 473429, "internal_node_id": "0.0-10.0-4.0"}}, {"uniqueid": "MTK1005:3X1FV8S5JYYHK9XDQXCW2GXB351GVC", "current_trial": 15, "dateTime": 1513037939421, "trialdata": {"rt": -1, "stimulus": "<p id=\"stim\">5</p>", "key_press": -1, "trial_type": "single-stim", "trial_index": 15, "time_elapsed": 474437, "internal_node_id": "0.0-10.0-5.0"}}, {"uniqueid": "MTK1005:3X1FV8S5JYYHK9XDQXCW2GXB351GVC", "current_trial": 16, "dateTime": 1513037940424, "trialdata": {"rt": -1, "stimulus": "<p id=\"stim\">4</p>", "key_press": -1, "trial_type": "single-stim", "trial_index": 16, "time_elapsed": 475439, "internal_node_id": "0.0-10.0-6.0"}}, {"uniqueid": "MTK1005:3X1FV8S5JYYHK9XDQXCW2GXB351GVC", "current_trial": 17, "dateTime": 1513037941425, "trialdata": {"rt": -1, "stimulus": "<p id=\"stim\">3</p>", "key_press": -1, "trial_type": "single-stim", "trial_index": 17, "time_elapsed": 476441, "internal_node_id": "0.0-10.0-7.0"}}, {"uniqueid": "MTK1005:3X1FV8S5JYYHK9XDQXCW2GXB351GVC", "current_trial": 18, "dateTime": 1513037942425, "trialdata": {"rt": -1, "stimulus": "<p id=\"stim\">2</p>", "key_press": -1, "trial_type": "single-stim", "trial_index": 18, "time_elapsed": 477441, "internal_node_id": "0.0-10.0-8.0"}}, {"uniqueid": "MTK1005:3X1FV8S5JYYHK9XDQXCW2GXB351GVC", "current_trial": 19, "dateTime": 1513037943425, "trialdata": {"rt": -1, "stimulus": "<p id=\"stim\">1</p>", "key_press": -1, "trial_type": "single-stim", "trial_index": 19, "time_elapsed": 478441, "internal_node_id": "0.0-10.0-9.0"}}, {"uniqueid": "MTK1005:3X1FV8S5JYYHK9XDQXCW2GXB351GVC", "current_trial": 20, "dateTime": 1513037944927, "trialdata": {"rt": -1, "stimulus": "<p id=\"stim\">+</p>", "key_press": -1, "type": "FIXATION", "trial_type": "single-stim", "trial_index": 20, "time_elapsed": 479942, "internal_node_id": "0.0-11.0-0.0"}}, {"uniqueid": "MTK1005:3X1FV8S5JYYHK9XDQXCW2GXB351GVC", "current_trial": 21, "dateTime": 1513037946127, "trialdata": {"rt": -1, "stimulus": "<p id=\"stim\">OINTMENT</p>", "key_press": -1, "type": "PRES_VIS", "word": "ointment", "wordID": 973, "conditions": [18, 1200, "v", 18000], "trial": 0, "serialpos": 0, "trial_type": "single-stim", "trial_index": 21, "time_elapsed": 481143, "internal_node_id": "0.0-12.0"}}, {"uniqueid": "MTK1005:3X1FV8S5JYYHK9XDQXCW2GXB351GVC", "current_trial": 22, "dateTime": 1513037948518, "trialdata": {"rt": -1, "stimulus": "<p id=\"stim\">VIRUS</p>", "key_press": -1, "type": "PRES_VIS", "word": "virus", "wordID": 1571, "conditions": [18, 1200, "v", 18000], "trial": 0, "serialpos": 1, "trial_type": "single-stim", "trial_index": 22, "time_elapsed": 483533, "internal_node_id": "0.0-13.0"}}, {"uniqueid": "MTK1005:3X1FV8S5JYYHK9XDQXCW2GXB351GVC", "current_trial": 23, "dateTime": 1513037950827, "trialdata": {"rt": -1, "stimulus": "<p id=\"stim\">WASHER</p>", "key_press": -1, "type": "PRES_VIS", "word": "washer", "wordID": 1591, "conditions": [18, 1200, "v", 18000], "trial": 0, "serialpos": 2, "trial_type": "single-stim", "trial_index": 23, "time_elapsed": 485842, "internal_node_id": "0.0-14.0"}}, {"uniqueid": "MTK1005:3X1FV8S5JYYHK9XDQXCW2GXB351GVC", "current_trial": 24, "dateTime": 1513037953201, "trialdata": {"rt": -1, "stimulus": "<p id=\"stim\">ZEBRA</p>", "key_press": -1, "type": "PRES_VIS", "word": "zebra", "wordID": 1634, "conditions": [18, 1200, "v", 18000], "trial": 0, "serialpos": 3, "trial_type": "single-stim", "trial_index": 24, "time_elapsed": 488217, "internal_node_id": "0.0-15.0"}}, {"uniqueid": "MTK1005:3X1FV8S5JYYHK9XDQXCW2GXB351GVC", "current_trial": 25, "dateTime": 1513037955383, "trialdata": {"rt": -1, "stimulus": "<p id=\"stim\">WHISKERS</p>", "key_press": -1, "type": "PRES_VIS", "word": "whiskers", "wordID": 1604, "conditions": [18, 1200, "v", 18000], "trial": 0, "serialpos": 4, "trial_type": "single-stim", "trial_index": 25, "time_elapsed": 490399, "internal_node_id": "0.0-16.0"}}, {"uniqueid": "MTK1005:3X1FV8S5JYYHK9XDQXCW2GXB351GVC", "current_trial": 26, "dateTime": 1513037957402, "trialdata": {"rt": -1, "stimulus": "<p id=\"stim\">VIKING</p>", "key_press": -1, "type": "PRES_VIS", "word": "viking", "wordID": 1564, "conditions": [18, 1200, "v", 18000], "trial": 0, "serialpos": 5, "trial_type": "single-stim", "trial_index": 26, "time_elapsed": 492418, "internal_node_id": "0.0-17.0"}}, {"uniqueid": "MTK1005:3X1FV8S5JYYHK9XDQXCW2GXB351GVC", "current_trial": 27, "dateTime": 1513037959786, "trialdata": {"rt": -1, "stimulus": "<p id=\"stim\">WRIST</p>", "key_press": -1, "type": "PRES_VIS", "word": "wrist", "wordID": 1625, "conditions": [18, 1200, "v", 18000], "trial": 0, "serialpos": 6, "trial_type": "single-stim", "trial_index": 27, "time_elapsed": 494802, "internal_node_id": "0.0-18.0"}}, {"uniqueid": "MTK1005:3X1FV8S5JYYHK9XDQXCW2GXB351GVC", "current_trial": 28, "dateTime": 1513037961842, "trialdata": {"rt": -1, "stimulus": "<p id=\"stim\">COUSIN</p>", "key_press": -1, "type": "PRES_VIS", "word": "cousin", "wordID": 391, "conditions": [18, 1200, "v", 18000], "trial": 0, "serialpos": 7, "trial_type": "single-stim", "trial_index": 28, "time_elapsed": 496858, "internal_node_id": "0.0-19.0"}}, {"uniqueid": "MTK1005:3X1FV8S5JYYHK9XDQXCW2GXB351GVC", "current_trial": 29, "dateTime": 1513037963969, "trialdata": {"rt": -1, "stimulus": "<p id=\"stim\">SILK</p>", "key_press": -1, "type": "PRES_VIS", "word": "silk", "wordID": 1306, "conditions": [18, 1200, "v", 18000], "trial": 0, "serialpos": 8, "trial_type": "single-stim", "trial_index": 29, "time_elapsed": 498985, "internal_node_id": "0.0-20.0"}}, {"uniqueid": "MTK1005:3X1FV8S5JYYHK9XDQXCW2GXB351GVC", "current_trial": 30, "dateTime": 1513037965996, "trialdata": {"rt": -1, "stimulus": "<p id=\"stim\">COUNTY</p>", "key_press": -1, "type": "PRES_VIS", "word": "county", "wordID": 388, "conditions": [18, 1200, "v", 18000], "trial": 0, "serialpos": 9, "trial_type": "single-stim", "trial_index": 30, "time_elapsed": 501012, "internal_node_id": "0.0-21.0"}}, {"uniqueid": "MTK1005:3X1FV8S5JYYHK9XDQXCW2GXB351GVC", "current_trial": 31, "dateTime": 1513037968212, "trialdata": {"rt": -1, "stimulus": "<p id=\"stim\">POET</p>", "key_press": -1, "type": "PRES_VIS", "word": "poet", "wordID": 1094, "conditions": [18, 1200, "v", 18000], "trial": 0, "serialpos": 10, "trial_type": "single-stim", "trial_index": 31, "time_elapsed": 503228, "internal_node_id": "0.0-22.0"}}, {"uniqueid": "MTK1005:3X1FV8S5JYYHK9XDQXCW2GXB351GVC", "current_trial": 32, "dateTime": 1513037970220, "trialdata": {"rt": -1, "stimulus": "<p id=\"stim\">PLAZA</p>", "key_press": -1, "type": "PRES_VIS", "word": "plaza", "wordID": 1087, "conditions": [18, 1200, "v", 18000], "trial": 0, "serialpos": 11, "trial_type": "single-stim", "trial_index": 32, "time_elapsed": 505236, "internal_node_id": "0.0-23.0"}}, {"uniqueid": "MTK1005:3X1FV8S5JYYHK9XDQXCW2GXB351GVC", "current_trial": 33, "dateTime": 1513037972511, "trialdata": {"rt": -1, "stimulus": "<p id=\"stim\">SHORTCAKE</p>", "key_press": -1, "type": "PRES_VIS", "word": "shortcake", "wordID": 1291, "conditions": [18, 1200, "v", 18000], "trial": 0, "serialpos": 12, "trial_type": "single-stim", "trial_index": 33, "time_elapsed": 507527, "internal_node_id": "0.0-24.0"}}, {"uniqueid": "MTK1005:3X1FV8S5JYYHK9XDQXCW2GXB351GVC", "current_trial": 34, "dateTime": 1513037974642, "trialdata": {"rt": -1, "stimulus": "<p id=\"stim\">TREAT</p>", "key_press": -1, "type": "PRES_VIS", "word": "treat", "wordID": 1500, "conditions": [18, 1200, "v", 18000], "trial": 0, "serialpos": 13, "trial_type": "single-stim", "trial_index": 34, "time_elapsed": 509658, "internal_node_id": "0.0-25.0"}}, {"uniqueid": "MTK1005:3X1FV8S5JYYHK9XDQXCW2GXB351GVC", "current_trial": 35, "dateTime": 1513037976907, "trialdata": {"rt": -1, "stimulus": "<p id=\"stim\">PIANO</p>", "key_press": -1, "type": "PRES_VIS", "word": "piano", "wordID": 1056, "conditions": [18, 1200, "v", 18000], "trial": 0, "serialpos": 14, "trial_type": "single-stim", "trial_index": 35, "time_elapsed": 511923, "internal_node_id": "0.0-26.0"}}, {"uniqueid": "MTK1005:3X1FV8S5JYYHK9XDQXCW2GXB351GVC", "current_trial": 36, "dateTime": 1513037979010, "trialdata": {"rt": -1, "stimulus": "<p id=\"stim\">APPLE</p>", "key_press": -1, "type": "PRES_VIS", "word": "apple", "wordID": 32, "conditions": [18, 1200, "v", 18000], "trial": 0, "serialpos": 15, "trial_type": "single-stim", "trial_index": 36, "time_elapsed": 514026, "internal_node_id": "0.0-27.0"}}, {"uniqueid": "MTK1005:3X1FV8S5JYYHK9XDQXCW2GXB351GVC", "current_trial": 37, "dateTime": 1513037981209, "trialdata": {"rt": -1, "stimulus": "<p id=\"stim\">RECEIPT</p>", "key_press": -1, "type": "PRES_VIS", "word": "receipt", "wordID": 1172, "conditions": [18, 1200, "v", 18000], "trial": 0, "serialpos": 16, "trial_type": "single-stim", "trial_index": 37, "time_elapsed": 516225, "internal_node_id": "0.0-28.0"}}, {"uniqueid": "MTK1005:3X1FV8S5JYYHK9XDQXCW2GXB351GVC", "current_trial": 38, "dateTime": 1513037983550, "trialdata": {"rt": -1, "stimulus": "<p id=\"stim\">PRINCESS</p>", "key_press": -1, "type": "PRES_VIS", "word": "princess", "wordID": 1124, "conditions": [18, 1200, "v", 18000], "trial": 0, "serialpos": 17, "trial_type": "single-stim", "trial_index": 38, "time_elapsed": 518566, "internal_node_id": "0.0-29.0"}}, {"uniqueid": "MTK1005:3X1FV8S5JYYHK9XDQXCW2GXB351GVC", "current_trial": 39, "dateTime": 1513037985595, "trialdata": {"rt": -1, "stimulus": "", "key_press": -1, "type": "PRE_RECALL_DELAY", "trial_type": "single-stim", "trial_index": 39, "time_elapsed": 520611, "internal_node_id": "0.0-30.0-0.0"}}, {"uniqueid": "MTK1005:3X1FV8S5JYYHK9XDQXCW2GXB351GVC", "current_trial": 40, "dateTime": 1513037986121, "trialdata": {"rt": -1000, "stimulus": "/static/audio/400Hz.wav", "key_press": -1, "type": "PRE_RECALL_ALERT", "trial_type": "single-audio", "trial_index": 40, "time_elapsed": 521136, "internal_node_id": "0.0-31.0"}}, {"uniqueid": "MTK1005:3X1FV8S5JYYHK9XDQXCW2GXB351GVC", "current_trial": 41, "dateTime": 1513038046135, "trialdata": {"rt": [9606, 13627, 17490, 24978, 32241, 38273, 44440, 52408], "recwords": ["shortcake", "county", "poet", "vikings", "treats", "zebra", "ointm", "ointment"], "type": "FREE_RECALL", "conditions": [18, 1200, "v", 18000], "trial": 0, "trial_type": "free-recall", "trial_index": 41, "time_elapsed": 581146, "internal_node_id": "0.0-32.0-0.0"}}, {"uniqueid": "MTK1005:3X1FV8S5JYYHK9XDQXCW2GXB351GVC", "current_trial": 42, "dateTime": 1513038050371, "trialdata": {"rt": 2235, "key_press": 32, "type": "INSTRUCTIONS", "trial_type": "text", "trial_index": 42, "time_elapsed": 585387, "internal_node_id": "0.0-33.0"}}, {"uniqueid": "MTK1005:3X1FV8S5JYYHK9XDQXCW2GXB351GVC", "current_trial": 43, "dateTime": 1513038070370, "trialdata": {"rt": [5188, 8438, 15229], "responses": ["17", "6", "16"], "num1": [9, 2, 7, 7], "num2": [6, 1, 6, 7], "num3": [2, 3, 3, 2], "type": "DISTRACTOR", "conditions": [18, 1200, "a", 18000], "trial": 1, "trial_type": "math-distractor", "trial_index": 43, "time_elapsed": 605385, "internal_node_id": "0.0-34.0"}}, {"uniqueid": "MTK1005:3X1FV8S5JYYHK9XDQXCW2GXB351GVC", "current_trial": 44, "dateTime": 1513038073374, "trialdata": {"rt": -1, "stimulus": "<p id=\"stim\">10</p>", "key_press": -1, "trial_type": "single-stim", "trial_index": 44, "time_elapsed": 608390, "internal_node_id": "0.0-35.0-0.0"}}, {"uniqueid": "MTK1005:3X1FV8S5JYYHK9XDQXCW2GXB351GVC", "current_trial": 45, "dateTime": 1513038074374, "trialdata": {"rt": -1, "stimulus": "<p id=\"stim\">9</p>", "key_press": -1, "trial_type": "single-stim", "trial_index": 45, "time_elapsed": 609390, "internal_node_id": "0.0-35.0-1.0"}}, {"uniqueid": "MTK1005:3X1FV8S5JYYHK9XDQXCW2GXB351GVC", "current_trial": 46, "dateTime": 1513038075375, "trialdata": {"rt": -1, "stimulus": "<p id=\"stim\">8</p>", "key_press": -1, "trial_type": "single-stim", "trial_index": 46, "time_elapsed": 610391, "internal_node_id": "0.0-35.0-2.0"}}, {"uniqueid": "MTK1005:3X1FV8S5JYYHK9XDQXCW2GXB351GVC", "current_trial": 47, "dateTime": 1513038076375, "trialdata": {"rt": -1, "stimulus": "<p id=\"stim\">7</p>", "key_press": -1, "trial_type": "single-stim", "trial_index": 47, "time_elapsed": 611391, "internal_node_id": "0.0-35.0-3.0"}}, {"uniqueid": "MTK1005:3X1FV8S5JYYHK9XDQXCW2GXB351GVC", "current_trial": 48, "dateTime": 1513038077375, "trialdata": {"rt": -1, "stimulus": "<p id=\"stim\">6</p>", "key_press": -1, "trial_type": "single-stim", "trial_index": 48, "time_elapsed": 612391, "internal_node_id": "0.0-35.0-4.0"}}, {"uniqueid": "MTK1005:3X1FV8S5JYYHK9XDQXCW2GXB351GVC", "current_trial": 49, "dateTime": 1513038078375, "trialdata": {"rt": -1, "stimulus": "<p id=\"stim\">5</p>", "key_press": -1, "trial_type": "single-stim", "trial_index": 49, "time_elapsed": 613391, "internal_node_id": "0.0-35.0-5.0"}}, {"uniqueid": "MTK1005:3X1FV8S5JYYHK9XDQXCW2GXB351GVC", "current_trial": 50, "dateTime": 1513038079375, "trialdata": {"rt": -1, "stimulus": "<p id=\"stim\">4</p>", "key_press": -1, "trial_type": "single-stim", "trial_index": 50, "time_elapsed": 614391, "internal_node_id": "0.0-35.0-6.0"}}, {"uniqueid": "MTK1005:3X1FV8S5JYYHK9XDQXCW2GXB351GVC", "current_trial": 51, "dateTime": 1513038080375, "trialdata": {"rt": -1, "stimulus": "<p id=\"stim\">3</p>", "key_press": -1, "trial_type": "single-stim", "trial_index": 51, "time_elapsed": 615391, "internal_node_id": "0.0-35.0-7.0"}}, {"uniqueid": "MTK1005:3X1FV8S5JYYHK9XDQXCW2GXB351GVC", "current_trial": 52, "dateTime": 1513038081375, "trialdata": {"rt": -1, "stimulus": "<p id=\"stim\">2</p>", "key_press": -1, "trial_type": "single-stim", "trial_index": 52, "time_elapsed": 616391, "internal_node_id": "0.0-35.0-8.0"}}, {"uniqueid": "MTK1005:3X1FV8S5JYYHK9XDQXCW2GXB351GVC", "current_trial": 53, "dateTime": 1513038082375, "trialdata": {"rt": -1, "stimulus": "<p id=\"stim\">1</p>", "key_press": -1, "trial_type": "single-stim", "trial_index": 53, "time_elapsed": 617391, "internal_node_id": "0.0-35.0-9.0"}}, {"uniqueid": "MTK1005:3X1FV8S5JYYHK9XDQXCW2GXB351GVC", "current_trial": 54, "dateTime": 1513038083877, "trialdata": {"rt": -1, "stimulus": "<p id=\"stim\">+</p>", "key_press": -1, "type": "FIXATION", "trial_type": "single-stim", "trial_index": 54, "time_elapsed": 618892, "internal_node_id": "0.0-36.0-0.0"}}, {"uniqueid": "MTK1005:3X1FV8S5JYYHK9XDQXCW2GXB351GVC", "current_trial": 55, "dateTime": 1513038086025, "trialdata": {"rt": -1000, "stimulus": "/static/audio/wordpool/CAPTIVE.wav", "key_press": -1, "type": "PRES_AUD", "word": "captive", "wordID": 239, "conditions": [18, 1200, "a", 18000], "trial": 1, "serialpos": 0, "trial_type": "single-audio", "trial_index": 55, "time_elapsed": 621041, "internal_node_id": "0.0-37.0"}}, {"uniqueid": "MTK1005:3X1FV8S5JYYHK9XDQXCW2GXB351GVC", "current_trial": 56, "dateTime": 1513038088408, "trialdata": {"rt": -1000, "stimulus": "/static/audio/wordpool/PLAYGROUND.wav", "key_press": -1, "type": "PRES_AUD", "word": "playground", "wordID": 1086, "conditions": [18, 1200, "a", 18000], "trial": 1, "serialpos": 1, "trial_type": "single-audio", "trial_index": 56, "time_elapsed": 623424, "internal_node_id": "0.0-38.0"}}, {"uniqueid": "MTK1005:3X1FV8S5JYYHK9XDQXCW2GXB351GVC", "current_trial": 57, "dateTime": 1513038090461, "trialdata": {"rt": -1000, "stimulus": "/static/audio/wordpool/SADDLE.wav", "key_press": -1, "type": "PRES_AUD", "word": "saddle", "wordID": 1220, "conditions": [18, 1200, "a", 18000], "trial": 1, "serialpos": 2, "trial_type": "single-audio", "trial_index": 57, "time_elapsed": 625477, "internal_node_id": "0.0-39.0"}}, {"uniqueid": "MTK1005:3X1FV8S5JYYHK9XDQXCW2GXB351GVC", "current_trial": 58, "dateTime": 1513038092596, "trialdata": {"rt": -1000, "stimulus": "/static/audio/wordpool/PANTHER.wav", "key_press": -1, "type": "PRES_AUD", "word": "panther", "wordID": 1008, "conditions": [18, 1200, "a", 18000], "trial": 1, "serialpos": 3, "trial_type": "single-audio", "trial_index": 58, "time_elapsed": 627612, "internal_node_id": "0.0-40.0"}}, {"uniqueid": "MTK1005:3X1FV8S5JYYHK9XDQXCW2GXB351GVC", "current_trial": 59, "dateTime": 1513038094809, "trialdata": {"rt": -1000, "stimulus": "/static/audio/wordpool/BODY.wav", "key_press": -1, "type": "PRES_AUD", "word": "body", "wordID": 144, "conditions": [18, 1200, "a", 18000], "trial": 1, "serialpos": 4, "trial_type": "single-audio", "trial_index": 59, "time_elapsed": 629825, "internal_node_id": "0.0-41.0"}}, {"uniqueid": "MTK1005:3X1FV8S5JYYHK9XDQXCW2GXB351GVC", "current_trial": 60, "dateTime": 1513038097178, "trialdata": {"rt": -1000, "stimulus": "/static/audio/wordpool/FIDDLE.wav", "key_press": -1, "type": "PRES_AUD", "word": "fiddle", "wordID": 560, "conditions": [18, 1200, "a", 18000], "trial": 1, "serialpos": 5, "trial_type": "single-audio", "trial_index": 60, "time_elapsed": 632194, "internal_node_id": "0.0-42.0"}}, {"uniqueid": "MTK1005:3X1FV8S5JYYHK9XDQXCW2GXB351GVC", "current_trial": 61, "dateTime": 1513038099506, "trialdata": {"rt": -1000, "stimulus": "/static/audio/wordpool/JELLO.wav", "key_press": -1, "type": "PRES_AUD", "word": "jello", "wordID": 753, "conditions": [18, 1200, "a", 18000], "trial": 1, "serialpos": 6, "trial_type": "single-audio", "trial_index": 61, "time_elapsed": 634522, "internal_node_id": "0.0-43.0"}}, {"uniqueid": "MTK1005:3X1FV8S5JYYHK9XDQXCW2GXB351GVC", "current_trial": 62, "dateTime": 1513038101510, "trialdata": {"rt": -1000, "stimulus": "/static/audio/wordpool/MUFFIN.wav", "key_press": -1, "type": "PRES_AUD", "word": "muffin", "wordID": 928, "conditions": [18, 1200, "a", 18000], "trial": 1, "serialpos": 7, "trial_type": "single-audio", "trial_index": 62, "time_elapsed": 636525, "internal_node_id": "0.0-44.0"}}, {"uniqueid": "MTK1005:3X1FV8S5JYYHK9XDQXCW2GXB351GVC", "current_trial": 63, "dateTime": 1513038103795, "trialdata": {"rt": -1000, "stimulus": "/static/audio/wordpool/MILK.wav", "key_press": -1, "type": "PRES_AUD", "word": "milk", "wordID": 894, "conditions": [18, 1200, "a", 18000], "trial": 1, "serialpos": 8, "trial_type": "single-audio", "trial_index": 63, "time_elapsed": 638811, "internal_node_id": "0.0-45.0"}}, {"uniqueid": "MTK1005:3X1FV8S5JYYHK9XDQXCW2GXB351GVC", "current_trial": 64, "dateTime": 1513038105849, "trialdata": {"rt": -1000, "stimulus": "/static/audio/wordpool/QUEEN.wav", "key_press": -1, "type": "PRES_AUD", "word": "queen", "wordID": 1148, "conditions": [18, 1200, "a", 18000], "trial": 1, "serialpos": 9, "trial_type": "single-audio", "trial_index": 64, "time_elapsed": 640865, "internal_node_id": "0.0-46.0"}}, {"uniqueid": "MTK1005:3X1FV8S5JYYHK9XDQXCW2GXB351GVC", "current_trial": 65, "dateTime": 1513038107914, "trialdata": {"rt": -1000, "stimulus": "/static/audio/wordpool/AIRPLANE.wav", "key_press": -1, "type": "PRES_AUD", "word": "airplane", "wordID": 11, "conditions": [18, 1200, "a", 18000], "trial": 1, "serialpos": 10, "trial_type": "single-audio", "trial_index": 65, "time_elapsed": 642930, "internal_node_id": "0.0-47.0"}}, {"uniqueid": "MTK1005:3X1FV8S5JYYHK9XDQXCW2GXB351GVC", "current_trial": 66, "dateTime": 1513038110083, "trialdata": {"rt": -1000, "stimulus": "/static/audio/wordpool/SALT.wav", "key_press": -1, "type": "PRES_AUD", "word": "salt", "wordID": 1228, "conditions": [18, 1200, "a", 18000], "trial": 1, "serialpos": 11, "trial_type": "single-audio", "trial_index": 66, "time_elapsed": 645099, "internal_node_id": "0.0-48.0"}}, {"uniqueid": "MTK1005:3X1FV8S5JYYHK9XDQXCW2GXB351GVC", "current_trial": 67, "dateTime": 1513038112251, "trialdata": {"rt": -1000, "stimulus": "/static/audio/wordpool/PIZZA.wav", "key_press": -1, "type": "PRES_AUD", "word": "pizza", "wordID": 1078, "conditions": [18, 1200, "a", 18000], "trial": 1, "serialpos": 12, "trial_type": "single-audio", "trial_index": 67, "time_elapsed": 647267, "internal_node_id": "0.0-49.0"}}, {"uniqueid": "MTK1005:3X1FV8S5JYYHK9XDQXCW2GXB351GVC", "current_trial": 68, "dateTime": 1513038114311, "trialdata": {"rt": -1000, "stimulus": "/static/audio/wordpool/TAXI.wav", "key_press": -1, "type": "PRES_AUD", "word": "taxi", "wordID": 1437, "conditions": [18, 1200, "a", 18000], "trial": 1, "serialpos": 13, "trial_type": "single-audio", "trial_index": 68, "time_elapsed": 649327, "internal_node_id": "0.0-50.0"}}, {"uniqueid": "MTK1005:3X1FV8S5JYYHK9XDQXCW2GXB351GVC", "current_trial": 69, "dateTime": 1513038116654, "trialdata": {"rt": -1000, "stimulus": "/static/audio/wordpool/BLENDER.wav", "key_press": -1, "type": "PRES_AUD", "word": "blender", "wordID": 135, "conditions": [18, 1200, "a", 18000], "trial": 1, "serialpos": 14, "trial_type": "single-audio", "trial_index": 69, "time_elapsed": 651670, "internal_node_id": "0.0-51.0"}}, {"uniqueid": "MTK1005:3X1FV8S5JYYHK9XDQXCW2GXB351GVC", "current_trial": 70, "dateTime": 1513038119050, "trialdata": {"rt": -1000, "stimulus": "/static/audio/wordpool/MARROW.wav", "key_press": -1, "type": "PRES_AUD", "word": "marrow", "wordID": 871, "conditions": [18, 1200, "a", 18000], "trial": 1, "serialpos": 15, "trial_type": "single-audio", "trial_index": 70, "time_elapsed": 654066, "internal_node_id": "0.0-52.0"}}, {"uniqueid": "MTK1005:3X1FV8S5JYYHK9XDQXCW2GXB351GVC", "current_trial": 71, "dateTime": 1513038121062, "trialdata": {"rt": -1000, "stimulus": "/static/audio/wordpool/DIVER.wav", "key_press": -1, "type": "PRES_AUD", "word": "diver", "wordID": 475, "conditions": [18, 1200, "a", 18000], "trial": 1, "serialpos": 16, "trial_type": "single-audio", "trial_index": 71, "time_elapsed": 656078, "internal_node_id": "0.0-53.0"}}, {"uniqueid": "MTK1005:3X1FV8S5JYYHK9XDQXCW2GXB351GVC", "current_trial": 72, "dateTime": 1513038123409, "trialdata": {"rt": -1000, "stimulus": "/static/audio/wordpool/MOP.wav", "key_press": -1, "type": "PRES_AUD", "word": "mop", "wordID": 915, "conditions": [18, 1200, "a", 18000], "trial": 1, "serialpos": 17, "trial_type": "single-audio", "trial_index": 72, "time_elapsed": 658425, "internal_node_id": "0.0-54.0"}}, {"uniqueid": "MTK1005:3X1FV8S5JYYHK9XDQXCW2GXB351GVC", "current_trial": 73, "dateTime": 1513038124775, "trialdata": {"rt": -1, "stimulus": "", "key_press": -1, "type": "PRE_RECALL_DELAY", "trial_type": "single-stim", "trial_index": 73, "time_elapsed": 659791, "internal_node_id": "0.0-55.0-0.0"}}, {"uniqueid": "MTK1005:3X1FV8S5JYYHK9XDQXCW2GXB351GVC", "current_trial": 74, "dateTime": 1513038125277, "trialdata": {"rt": -1000, "stimulus": "/static/audio/400Hz.wav", "key_press": -1, "type": "PRE_RECALL_ALERT", "trial_type": "single-audio", "trial_index": 74, "time_elapsed": 660293, "internal_node_id": "0.0-56.0"}}, {"uniqueid": "MTK1005:3X1FV8S5JYYHK9XDQXCW2GXB351GVC", "current_trial": 75, "dateTime": 1513038185300, "trialdata": {"rt": [7890, 11098, 14305, 17233, 21513, 26745, 33176, 38480, 43016, 52679, 56830], "recwords": ["airplane", "milk", "body", "pizza", "yellow", "playground", "plastic", "london", "ball", "body", "captive"], "type": "FREE_RECALL", "conditions": [18, 1200, "a", 18000], "trial": 1, "trial_type": "free-recall", "trial_index": 75, "time_elapsed": 720311, "internal_node_id": "0.0-57.0-0.0"}}, {"uniqueid": "MTK1005:3X1FV8S5JYYHK9XDQXCW2GXB351GVC", "current_trial": 76, "dateTime": 1513038191019, "trialdata": {"rt": 3712, "key_press": 32, "type": "INSTRUCTIONS", "trial_type": "text", "trial_index": 76, "time_elapsed": 726028, "internal_node_id": "0.0-58.0"}}, {"uniqueid": "MTK1005:3X1FV8S5JYYHK9XDQXCW2GXB351GVC", "current_trial": 77, "dateTime": 1513038216022, "trialdata": {"rt": [6816, 16039, 19711], "responses": ["18", "14", "19"], "num1": [2, 8, 5, 3], "num2": [9, 3, 9, 8], "num3": [7, 3, 5, 3], "type": "DISTRACTOR", "conditions": [24, 1600, "a", 24000], "trial": 2, "trial_type": "math-distractor", "trial_index": 77, "time_elapsed": 751038, "internal_node_id": "0.0-59.0"}}, {"uniqueid": "MTK1005:3X1FV8S5JYYHK9XDQXCW2GXB351GVC", "current_trial": 78, "dateTime": 1513038219022, "trialdata": {"rt": -1, "stimulus": "<p id=\"stim\">10</p>", "key_press": -1, "trial_type": "single-stim", "trial_index": 78, "time_elapsed": 754038, "internal_node_id": "0.0-60.0-0.0"}}, {"uniqueid": "MTK1005:3X1FV8S5JYYHK9XDQXCW2GXB351GVC", "current_trial": 79, "dateTime": 1513038220022, "trialdata": {"rt": -1, "stimulus": "<p id=\"stim\">9</p>", "key_press": -1, "trial_type": "single-stim", "trial_index": 79, "time_elapsed": 755038, "internal_node_id": "0.0-60.0-1.0"}}, {"uniqueid": "MTK1005:3X1FV8S5JYYHK9XDQXCW2GXB351GVC", "current_trial": 80, "dateTime": 1513038221022, "trialdata": {"rt": -1, "stimulus": "<p id=\"stim\">8</p>", "key_press": -1, "trial_type": "single-stim", "trial_index": 80, "time_elapsed": 756038, "internal_node_id": "0.0-60.0-2.0"}}, {"uniqueid": "MTK1005:3X1FV8S5JYYHK9XDQXCW2GXB351GVC", "current_trial": 81, "dateTime": 1513038222022, "trialdata": {"rt": -1, "stimulus": "<p id=\"stim\">7</p>", "key_press": -1, "trial_type": "single-stim", "trial_index": 81, "time_elapsed": 757038, "internal_node_id": "0.0-60.0-3.0"}}, {"uniqueid": "MTK1005:3X1FV8S5JYYHK9XDQXCW2GXB351GVC", "current_trial": 82, "dateTime": 1513038223022, "trialdata": {"rt": -1, "stimulus": "<p id=\"stim\">6</p>", "key_press": -1, "trial_type": "single-stim", "trial_index": 82, "time_elapsed": 758038, "internal_node_id": "0.0-60.0-4.0"}}, {"uniqueid": "MTK1005:3X1FV8S5JYYHK9XDQXCW2GXB351GVC", "current_trial": 83, "dateTime": 1513038224022, "trialdata": {"rt": -1, "stimulus": "<p id=\"stim\">5</p>", "key_press": -1, "trial_type": "single-stim", "trial_index": 83, "time_elapsed": 759038, "internal_node_id": "0.0-60.0-5.0"}}, {"uniqueid": "MTK1005:3X1FV8S5JYYHK9XDQXCW2GXB351GVC", "current_trial": 84, "dateTime": 1513038225022, "trialdata": {"rt": -1, "stimulus": "<p id=\"stim\">4</p>", "key_press": -1, "trial_type": "single-stim", "trial_index": 84, "time_elapsed": 760038, "internal_node_id": "0.0-60.0-6.0"}}, {"uniqueid": "MTK1005:3X1FV8S5JYYHK9XDQXCW2GXB351GVC", "current_trial": 85, "dateTime": 1513038226023, "trialdata": {"rt": -1, "stimulus": "<p id=\"stim\">3</p>", "key_press": -1, "trial_type": "single-stim", "trial_index": 85, "time_elapsed": 761039, "internal_node_id": "0.0-60.0-7.0"}}, {"uniqueid": "MTK1005:3X1FV8S5JYYHK9XDQXCW2GXB351GVC", "current_trial": 86, "dateTime": 1513038227023, "trialdata": {"rt": -1, "stimulus": "<p id=\"stim\">2</p>", "key_press": -1, "trial_type": "single-stim", "trial_index": 86, "time_elapsed": 762039, "internal_node_id": "0.0-60.0-8.0"}}, {"uniqueid": "MTK1005:3X1FV8S5JYYHK9XDQXCW2GXB351GVC", "current_trial": 87, "dateTime": 1513038228023, "trialdata": {"rt": -1, "stimulus": "<p id=\"stim\">1</p>", "key_press": -1, "trial_type": "single-stim", "trial_index": 87, "time_elapsed": 763039, "internal_node_id": "0.0-60.0-9.0"}}, {"uniqueid": "MTK1005:3X1FV8S5JYYHK9XDQXCW2GXB351GVC", "current_trial": 88, "dateTime": 1513038229523, "trialdata": {"rt": -1, "stimulus": "<p id=\"stim\">+</p>", "key_press": -1, "type": "FIXATION", "trial_type": "single-stim", "trial_index": 88, "time_elapsed": 764539, "internal_node_id": "0.0-61.0-0.0"}}, {"uniqueid": "MTK1005:3X1FV8S5JYYHK9XDQXCW2GXB351GVC", "current_trial": 89, "dateTime": 1513038232043, "trialdata": {"rt": -1000, "stimulus": "/static/audio/wordpool/BEEF.wav", "key_press": -1, "type": "PRES_AUD", "word": "beef", "wordID": 112, "conditions": [24, 1600, "a", 24000], "trial": 2, "serialpos": 0, "trial_type": "single-audio", "trial_index": 89, "time_elapsed": 767059, "internal_node_id": "0.0-62.0"}}, {"uniqueid": "MTK1005:3X1FV8S5JYYHK9XDQXCW2GXB351GVC", "current_trial": 90, "dateTime": 1513038234611, "trialdata": {"rt": -1000, "stimulus": "/static/audio/wordpool/CATTLE.wav", "key_press": -1, "type": "PRES_AUD", "word": "cattle", "wordID": 260, "conditions": [24, 1600, "a", 24000], "trial": 2, "serialpos": 1, "trial_type": "single-audio", "trial_index": 90, "time_elapsed": 769627, "internal_node_id": "0.0-63.0"}}, {"uniqueid": "MTK1005:3X1FV8S5JYYHK9XDQXCW2GXB351GVC", "current_trial": 91, "dateTime": 1513038237033, "trialdata": {"rt": -1000, "stimulus": "/static/audio/wordpool/DRESS.wav", "key_press": -1, "type": "PRES_AUD", "word": "dress", "wordID": 494, "conditions": [24, 1600, "a", 24000], "trial": 2, "serialpos": 2, "trial_type": "single-audio", "trial_index": 91, "time_elapsed": 772049, "internal_node_id": "0.0-64.0"}}, {"uniqueid": "MTK1005:3X1FV8S5JYYHK9XDQXCW2GXB351GVC", "current_trial": 92, "dateTime": 1513038239476, "trialdata": {"rt": -1000, "stimulus": "/static/audio/wordpool/OFFICE.wav", "key_press": -1, "type": "PRES_AUD", "word": "office", "wordID": 971, "conditions": [24, 1600, "a", 24000], "trial": 2, "serialpos": 3, "trial_type": "single-audio", "trial_index": 92, "time_elapsed": 774492, "internal_node_id": "0.0-65.0"}}, {"uniqueid": "MTK1005:3X1FV8S5JYYHK9XDQXCW2GXB351GVC", "current_trial": 93, "dateTime": 1513038241889, "trialdata": {"rt": -1000, "stimulus": "/static/audio/wordpool/COCKTAIL.wav", "key_press": -1, "type": "PRES_AUD", "word": "cocktail", "wordID": 337, "conditions": [24, 1600, "a", 24000], "trial": 2, "serialpos": 4, "trial_type": "single-audio", "trial_index": 93, "time_elapsed": 776905, "internal_node_id": "0.0-66.0"}}, {"uniqueid": "MTK1005:3X1FV8S5JYYHK9XDQXCW2GXB351GVC", "current_trial": 94, "dateTime": 1513038244421, "trialdata": {"rt": -1000, "stimulus": "/static/audio/wordpool/PLAID.wav", "key_press": -1, "type": "PRES_AUD", "word": "plaid", "wordID": 1079, "conditions": [24, 1600, "a", 24000], "trial": 2, "serialpos": 5, "trial_type": "single-audio", "trial_index": 94, "time_elapsed": 779437, "internal_node_id": "0.0-67.0"}}, {"uniqueid": "MTK1005:3X1FV8S5JYYHK9XDQXCW2GXB351GVC", "current_trial": 95, "dateTime": 1513038247016, "trialdata": {"rt": -1000, "stimulus": "/static/audio/wordpool/PATIENT.wav", "key_press": -1, "type": "PRES_AUD", "word": "patient", "wordID": 1023, "conditions": [24, 1600, "a", 24000], "trial": 2, "serialpos": 6, "trial_type": "single-audio", "trial_index": 95, "time_elapsed": 782032, "internal_node_id": "0.0-68.0"}}, {"uniqueid": "MTK1005:3X1FV8S5JYYHK9XDQXCW2GXB351GVC", "current_trial": 96, "dateTime": 1513038249719, "trialdata": {"rt": -1000, "stimulus": "/static/audio/wordpool/MARS.wav", "key_press": -1, "type": "PRES_AUD", "word": "mars", "wordID": 872, "conditions": [24, 1600, "a", 24000], "trial": 2, "serialpos": 7, "trial_type": "single-audio", "trial_index": 96, "time_elapsed": 784735, "internal_node_id": "0.0-69.0"}}, {"uniqueid": "MTK1005:3X1FV8S5JYYHK9XDQXCW2GXB351GVC", "current_trial": 97, "dateTime": 1513038252188, "trialdata": {"rt": -1000, "stimulus": "/static/audio/wordpool/TART.wav", "key_press": -1, "type": "PRES_AUD", "word": "tart", "wordID": 1435, "conditions": [24, 1600, "a", 24000], "trial": 2, "serialpos": 8, "trial_type": "single-audio", "trial_index": 97, "time_elapsed": 787204, "internal_node_id": "0.0-70.0"}}, {"uniqueid": "MTK1005:3X1FV8S5JYYHK9XDQXCW2GXB351GVC", "current_trial": 98, "dateTime": 1513038254719, "trialdata": {"rt": -1000, "stimulus": "/static/audio/wordpool/REPORT.wav", "key_press": -1, "type": "PRES_AUD", "word": "report", "wordID": 1183, "conditions": [24, 1600, "a", 24000], "trial": 2, "serialpos": 9, "trial_type": "single-audio", "trial_index": 98, "time_elapsed": 789735, "internal_node_id": "0.0-71.0"}}, {"uniqueid": "MTK1005:3X1FV8S5JYYHK9XDQXCW2GXB351GVC", "current_trial": 99, "dateTime": 1513038257292, "trialdata": {"rt": -1000, "stimulus": "/static/audio/wordpool/CLOTHES.wav", "key_press": -1, "type": "PRES_AUD", "word": "clothes", "wordID": 326, "conditions": [24, 1600, "a", 24000], "trial": 2, "serialpos": 10, "trial_type": "single-audio", "trial_index": 99, "time_elapsed": 792308, "internal_node_id": "0.0-72.0"}}, {"uniqueid": "MTK1005:3X1FV8S5JYYHK9XDQXCW2GXB351GVC", "current_trial": 100, "dateTime": 1513038259812, "trialdata": {"rt": -1000, "stimulus": "/static/audio/wordpool/SUITCASE.wav", "key_press": -1, "type": "PRES_AUD", "word": "suitcase", "wordID": 1402, "conditions": [24, 1600, "a", 24000], "trial": 2, "serialpos": 11, "trial_type": "single-audio", "trial_index": 100, "time_elapsed": 794828, "internal_node_id": "0.0-73.0"}}, {"uniqueid": "MTK1005:3X1FV8S5JYYHK9XDQXCW2GXB351GVC", "current_trial": 101, "dateTime": 1513038262609, "trialdata": {"rt": -1000, "stimulus": "/static/audio/wordpool/CANDY.wav", "key_press": -1, "type": "PRES_AUD", "word": "candy", "wordID": 229, "conditions": [24, 1600, "a", 24000], "trial": 2, "serialpos": 12, "trial_type": "single-audio", "trial_index": 101, "time_elapsed": 797625, "internal_node_id": "0.0-74.0"}}, {"uniqueid": "MTK1005:3X1FV8S5JYYHK9XDQXCW2GXB351GVC", "current_trial": 102, "dateTime": 1513038265398, "trialdata": {"rt": -1000, "stimulus": "/static/audio/wordpool/BARLEY.wav", "key_press": -1, "type": "PRES_AUD", "word": "barley", "wordID": 87, "conditions": [24, 1600, "a", 24000], "trial": 2, "serialpos": 13, "trial_type": "single-audio", "trial_index": 102, "time_elapsed": 800414, "internal_node_id": "0.0-75.0"}}, {"uniqueid": "MTK1005:3X1FV8S5JYYHK9XDQXCW2GXB351GVC", "current_trial": 103, "dateTime": 1513038267829, "trialdata": {"rt": -1000, "stimulus": "/static/audio/wordpool/GRAPE.wav", "key_press": -1, "type": "PRES_AUD", "word": "grape", "wordID": 653, "conditions": [24, 1600, "a", 24000], "trial": 2, "serialpos": 14, "trial_type": "single-audio", "trial_index": 103, "time_elapsed": 802845, "internal_node_id": "0.0-76.0"}}, {"uniqueid": "MTK1005:3X1FV8S5JYYHK9XDQXCW2GXB351GVC", "current_trial": 104, "dateTime": 1513038270548, "trialdata": {"rt": -1000, "stimulus": "/static/audio/wordpool/RADISH.wav", "key_press": -1, "type": "PRES_AUD", "word": "radish", "wordID": 1157, "conditions": [24, 1600, "a", 24000], "trial": 2, "serialpos": 15, "trial_type": "single-audio", "trial_index": 104, "time_elapsed": 805564, "internal_node_id": "0.0-77.0"}}, {"uniqueid": "MTK1005:3X1FV8S5JYYHK9XDQXCW2GXB351GVC", "current_trial": 105, "dateTime": 1513038273306, "trialdata": {"rt": -1000, "stimulus": "/static/audio/wordpool/MUSTARD.wav", "key_press": -1, "type": "PRES_AUD", "word": "mustard", "wordID": 934, "conditions": [24, 1600, "a", 24000], "trial": 2, "serialpos": 16, "trial_type": "single-audio", "trial_index": 105, "time_elapsed": 808322, "internal_node_id": "0.0-78.0"}}, {"uniqueid": "MTK1005:3X1FV8S5JYYHK9XDQXCW2GXB351GVC", "current_trial": 106, "dateTime": 1513038275925, "trialdata": {"rt": -1000, "stimulus": "/static/audio/wordpool/RUST.wav", "key_press": -1, "type": "PRES_AUD", "word": "rust", "wordID": 1218, "conditions": [24, 1600, "a", 24000], "trial": 2, "serialpos": 17, "trial_type": "single-audio", "trial_index": 106, "time_elapsed": 810941, "internal_node_id": "0.0-79.0"}}, {"uniqueid": "MTK1005:3X1FV8S5JYYHK9XDQXCW2GXB351GVC", "current_trial": 107, "dateTime": 1513038278652, "trialdata": {"rt": -1000, "stimulus": "/static/audio/wordpool/CASHIER.wav", "key_press": -1, "type": "PRES_AUD", "word": "cashier", "wordID": 253, "conditions": [24, 1600, "a", 24000], "trial": 2, "serialpos": 18, "trial_type": "single-audio", "trial_index": 107, "time_elapsed": 813668, "internal_node_id": "0.0-80.0"}}, {"uniqueid": "MTK1005:3X1FV8S5JYYHK9XDQXCW2GXB351GVC", "current_trial": 108, "dateTime": 1513038281408, "trialdata": {"rt": -1000, "stimulus": "/static/audio/wordpool/JURY.wav", "key_press": -1, "type": "PRES_AUD", "word": "jury", "wordID": 765, "conditions": [24, 1600, "a", 24000], "trial": 2, "serialpos": 19, "trial_type": "single-audio", "trial_index": 108, "time_elapsed": 816424, "internal_node_id": "0.0-81.0"}}, {"uniqueid": "MTK1005:3X1FV8S5JYYHK9XDQXCW2GXB351GVC", "current_trial": 109, "dateTime": 1513038283999, "trialdata": {"rt": -1000, "stimulus": "/static/audio/wordpool/SUNRISE.wav", "key_press": -1, "type": "PRES_AUD", "word": "sunrise", "wordID": 1406, "conditions": [24, 1600, "a", 24000], "trial": 2, "serialpos": 20, "trial_type": "single-audio", "trial_index": 109, "time_elapsed": 819015, "internal_node_id": "0.0-82.0"}}, {"uniqueid": "MTK1005:3X1FV8S5JYYHK9XDQXCW2GXB351GVC", "current_trial": 110, "dateTime": 1513038286491, "trialdata": {"rt": -1000, "stimulus": "/static/audio/wordpool/TURNIP.wav", "key_press": -1, "type": "PRES_AUD", "word": "turnip", "wordID": 1520, "conditions": [24, 1600, "a", 24000], "trial": 2, "serialpos": 21, "trial_type": "single-audio", "trial_index": 110, "time_elapsed": 821507, "internal_node_id": "0.0-83.0"}}, {"uniqueid": "MTK1005:3X1FV8S5JYYHK9XDQXCW2GXB351GVC", "current_trial": 111, "dateTime": 1513038289252, "trialdata": {"rt": -1000, "stimulus": "/static/audio/wordpool/PLUTO.wav", "key_press": -1, "type": "PRES_AUD", "word": "pluto", "wordID": 1091, "conditions": [24, 1600, "a", 24000], "trial": 2, "serialpos": 22, "trial_type": "single-audio", "trial_index": 111, "time_elapsed": 824268, "internal_node_id": "0.0-84.0"}}, {"uniqueid": "MTK1005:3X1FV8S5JYYHK9XDQXCW2GXB351GVC", "current_trial": 112, "dateTime": 1513038291822, "trialdata": {"rt": -1000, "stimulus": "/static/audio/wordpool/CLOUD.wav", "key_press": -1, "type": "PRES_AUD", "word": "cloud", "wordID": 327, "conditions": [24, 1600, "a", 24000], "trial": 2, "serialpos": 23, "trial_type": "single-audio", "trial_index": 112, "time_elapsed": 826838, "internal_node_id": "0.0-85.0"}}, {"uniqueid": "MTK1005:3X1FV8S5JYYHK9XDQXCW2GXB351GVC", "current_trial": 113, "dateTime": 1513038293149, "trialdata": {"rt": -1, "stimulus": "", "key_press": -1, "type": "PRE_RECALL_DELAY", "trial_type": "single-stim", "trial_index": 113, "time_elapsed": 828165, "internal_node_id": "0.0-86.0-0.0"}}, {"uniqueid": "MTK1005:3X1FV8S5JYYHK9XDQXCW2GXB351GVC", "current_trial": 114, "dateTime": 1513038293651, "trialdata": {"rt": -1000, "stimulus": "/static/audio/400Hz.wav", "key_press": -1, "type": "PRE_RECALL_ALERT", "trial_type": "single-audio", "trial_index": 114, "time_elapsed": 828667, "internal_node_id": "0.0-87.0"}}, {"uniqueid": "MTK1005:3X1FV8S5JYYHK9XDQXCW2GXB351GVC", "current_trial": 115, "dateTime": 1513038353655, "trialdata": {"rt": [3953, 5816, 8337, 11565, 14853, 18333, 24133, 26732, 30148, 36748, 41667, 47499, 52915, 59410], "recwords": ["cloud", "pluto", "turnip", "sunrise", "clothes", "heat", "candy", "dress", "cattle", "cocktail", "office", "report", "mustard", "grapes"], "type": "FREE_RECALL", "conditions": [24, 1600, "a", 24000], "trial": 2, "trial_type": "free-recall", "trial_index": 115, "time_elapsed": 888667, "internal_node_id": "0.0-88.0-0.0"}}, {"uniqueid": "MTK1005:3X1FV8S5JYYHK9XDQXCW2GXB351GVC", "current_trial": 116, "dateTime": 1513038358271, "trialdata": {"rt": 2615, "key_press": 13, "type": "INSTRUCTIONS", "trial_type": "text", "trial_index": 116, "time_elapsed": 893287, "internal_node_id": "0.0-89.0"}}, {"uniqueid": "MTK1005:3X1FV8S5JYYHK9XDQXCW2GXB351GVC", "current_trial": 117, "dateTime": 1513038384283, "trialdata": {"rt": [4877, 10070, 17519, 21582], "responses": ["22", "13", "17", "11"], "num1": [9, 1, 1, 5, 5], "num2": [6, 6, 6, 2, 2], "num3": [7, 6, 9, 4, 2], "type": "DISTRACTOR", "conditions": [24, 1600, "v", 24000], "trial": 3, "trial_type": "math-distractor", "trial_index": 117, "time_elapsed": 919299, "internal_node_id": "0.0-90.0"}}, {"uniqueid": "MTK1005:3X1FV8S5JYYHK9XDQXCW2GXB351GVC", "current_trial": 118, "dateTime": 1513038387285, "trialdata": {"rt": -1, "stimulus": "<p id=\"stim\">10</p>", "key_press": -1, "trial_type": "single-stim", "trial_index": 118, "time_elapsed": 922301, "internal_node_id": "0.0-91.0-0.0"}}, {"uniqueid": "MTK1005:3X1FV8S5JYYHK9XDQXCW2GXB351GVC", "current_trial": 119, "dateTime": 1513038388286, "trialdata": {"rt": -1, "stimulus": "<p id=\"stim\">9</p>", "key_press": -1, "trial_type": "single-stim", "trial_index": 119, "time_elapsed": 923302, "internal_node_id": "0.0-91.0-1.0"}}, {"uniqueid": "MTK1005:3X1FV8S5JYYHK9XDQXCW2GXB351GVC", "current_trial": 120, "dateTime": 1513038389286, "trialdata": {"rt": -1, "stimulus": "<p id=\"stim\">8</p>", "key_press": -1, "trial_type": "single-stim", "trial_index": 120, "time_elapsed": 924302, "internal_node_id": "0.0-91.0-2.0"}}, {"uniqueid": "MTK1005:3X1FV8S5JYYHK9XDQXCW2GXB351GVC", "current_trial": 121, "dateTime": 1513038390286, "trialdata": {"rt": -1, "stimulus": "<p id=\"stim\">7</p>", "key_press": -1, "trial_type": "single-stim", "trial_index": 121, "time_elapsed": 925302, "internal_node_id": "0.0-91.0-3.0"}}, {"uniqueid": "MTK1005:3X1FV8S5JYYHK9XDQXCW2GXB351GVC", "current_trial": 122, "dateTime": 1513038391286, "trialdata": {"rt": -1, "stimulus": "<p id=\"stim\">6</p>", "key_press": -1, "trial_type": "single-stim", "trial_index": 122, "time_elapsed": 926302, "internal_node_id": "0.0-91.0-4.0"}}, {"uniqueid": "MTK1005:3X1FV8S5JYYHK9XDQXCW2GXB351GVC", "current_trial": 123, "dateTime": 1513038392286, "trialdata": {"rt": -1, "stimulus": "<p id=\"stim\">5</p>", "key_press": -1, "trial_type": "single-stim", "trial_index": 123, "time_elapsed": 927302, "internal_node_id": "0.0-91.0-5.0"}}, {"uniqueid": "MTK1005:3X1FV8S5JYYHK9XDQXCW2GXB351GVC", "current_trial": 124, "dateTime": 1513038393286, "trialdata": {"rt": -1, "stimulus": "<p id=\"stim\">4</p>", "key_press": -1, "trial_type": "single-stim", "trial_index": 124, "time_elapsed": 928302, "internal_node_id": "0.0-91.0-6.0"}}, {"uniqueid": "MTK1005:3X1FV8S5JYYHK9XDQXCW2GXB351GVC", "current_trial": 125, "dateTime": 1513038394286, "trialdata": {"rt": -1, "stimulus": "<p id=\"stim\">3</p>", "key_press": -1, "trial_type": "single-stim", "trial_index": 125, "time_elapsed": 929302, "internal_node_id": "0.0-91.0-7.0"}}, {"uniqueid": "MTK1005:3X1FV8S5JYYHK9XDQXCW2GXB351GVC", "current_trial": 126, "dateTime": 1513038395286, "trialdata": {"rt": -1, "stimulus": "<p id=\"stim\">2</p>", "key_press": -1, "trial_type": "single-stim", "trial_index": 126, "time_elapsed": 930302, "internal_node_id": "0.0-91.0-8.0"}}, {"uniqueid": "MTK1005:3X1FV8S5JYYHK9XDQXCW2GXB351GVC", "current_trial": 127, "dateTime": 1513038396286, "trialdata": {"rt": -1, "stimulus": "<p id=\"stim\">1</p>", "key_press": -1, "trial_type": "single-stim", "trial_index": 127, "time_elapsed": 931302, "internal_node_id": "0.0-91.0-9.0"}}, {"uniqueid": "MTK1005:3X1FV8S5JYYHK9XDQXCW2GXB351GVC", "current_trial": 128, "dateTime": 1513038397787, "trialdata": {"rt": -1, "stimulus": "<p id=\"stim\">+</p>", "key_press": -1, "type": "FIXATION", "trial_type": "single-stim", "trial_index": 128, "time_elapsed": 932803, "internal_node_id": "0.0-92.0-0.0"}}, {"uniqueid": "MTK1005:3X1FV8S5JYYHK9XDQXCW2GXB351GVC", "current_trial": 129, "dateTime": 1513038399388, "trialdata": {"rt": -1, "stimulus": "<p id=\"stim\">SOFTBALL</p>", "key_press": -1, "type": "PRES_VIS", "word": "softball", "wordID": 1342, "conditions": [24, 1600, "v", 24000], "trial": 3, "serialpos": 0, "trial_type": "single-stim", "trial_index": 129, "time_elapsed": 934404, "internal_node_id": "0.0-93.0"}}, {"uniqueid": "MTK1005:3X1FV8S5JYYHK9XDQXCW2GXB351GVC", "current_trial": 130, "dateTime": 1513038402180, "trialdata": {"rt": -1, "stimulus": "<p id=\"stim\">LEADER</p>", "key_press": -1, "type": "PRES_VIS", "word": "leader", "wordID": 806, "conditions": [24, 1600, "v", 24000], "trial": 3, "serialpos": 1, "trial_type": "single-stim", "trial_index": 130, "time_elapsed": 937196, "internal_node_id": "0.0-94.0"}}, {"uniqueid": "MTK1005:3X1FV8S5JYYHK9XDQXCW2GXB351GVC", "current_trial": 131, "dateTime": 1513038404617, "trialdata": {"rt": -1, "stimulus": "<p id=\"stim\">ROD</p>", "key_press": -1, "type": "PRES_VIS", "word": "rod", "wordID": 1202, "conditions": [24, 1600, "v", 24000], "trial": 3, "serialpos": 2, "trial_type": "single-stim", "trial_index": 131, "time_elapsed": 939631, "internal_node_id": "0.0-95.0"}}, {"uniqueid": "MTK1005:3X1FV8S5JYYHK9XDQXCW2GXB351GVC", "current_trial": 132, "dateTime": 1513038407025, "trialdata": {"rt": -1, "stimulus": "<p id=\"stim\">TOASTER</p>", "key_press": -1, "type": "PRES_VIS", "word": "toaster", "wordID": 1471, "conditions": [24, 1600, "v", 24000], "trial": 3, "serialpos": 3, "trial_type": "single-stim", "trial_index": 132, "time_elapsed": 942041, "internal_node_id": "0.0-96.0"}}, {"uniqueid": "MTK1005:3X1FV8S5JYYHK9XDQXCW2GXB351GVC", "current_trial": 133, "dateTime": 1513038409775, "trialdata": {"rt": -1, "stimulus": "<p id=\"stim\">KLEENEX</p>", "key_press": -1, "type": "PRES_VIS", "word": "kleenex", "wordID": 781, "conditions": [24, 1600, "v", 24000], "trial": 3, "serialpos": 4, "trial_type": "single-stim", "trial_index": 133, "time_elapsed": 944791, "internal_node_id": "0.0-97.0"}}, {"uniqueid": "MTK1005:3X1FV8S5JYYHK9XDQXCW2GXB351GVC", "current_trial": 134, "dateTime": 1513038412365, "trialdata": {"rt": -1, "stimulus": "<p id=\"stim\">STONE</p>", "key_press": -1, "type": "PRES_VIS", "word": "stone", "wordID": 1384, "conditions": [24, 1600, "v", 24000], "trial": 3, "serialpos": 5, "trial_type": "single-stim", "trial_index": 134, "time_elapsed": 947380, "internal_node_id": "0.0-98.0"}}, {"uniqueid": "MTK1005:3X1FV8S5JYYHK9XDQXCW2GXB351GVC", "current_trial": 135, "dateTime": 1513038414774, "trialdata": {"rt": -1, "stimulus": "<p id=\"stim\">SNAKE</p>", "key_press": -1, "type": "PRES_VIS", "word": "snake", "wordID": 1332, "conditions": [24, 1600, "v", 24000], "trial": 3, "serialpos": 6, "trial_type": "single-stim", "trial_index": 135, "time_elapsed": 949790, "internal_node_id": "0.0-99.0"}}, {"uniqueid": "MTK1005:3X1FV8S5JYYHK9XDQXCW2GXB351GVC", "current_trial": 136, "dateTime": 1513038417209, "trialdata": {"rt": -1, "stimulus": "<p id=\"stim\">STOVE</p>", "key_press": -1, "type": "PRES_VIS", "word": "stove", "wordID": 1387, "conditions": [24, 1600, "v", 24000], "trial": 3, "serialpos": 7, "trial_type": "single-stim", "trial_index": 136, "time_elapsed": 952225, "internal_node_id": "0.0-100.0"}}, {"uniqueid": "MTK1005:3X1FV8S5JYYHK9XDQXCW2GXB351GVC", "current_trial": 137, "dateTime": 1513038419675, "trialdata": {"rt": -1, "stimulus": "<p id=\"stim\">CRAYON</p>", "key_press": -1, "type": "PRES_VIS", "word": "crayon", "wordID": 400, "conditions": [24, 1600, "v", 24000], "trial": 3, "serialpos": 8, "trial_type": "single-stim", "trial_index": 137, "time_elapsed": 954691, "internal_node_id": "0.0-101.0"}}, {"uniqueid": "MTK1005:3X1FV8S5JYYHK9XDQXCW2GXB351GVC", "current_trial": 138, "dateTime": 1513038422158, "trialdata": {"rt": -1, "stimulus": "<p id=\"stim\">BANJO</p>", "key_press": -1, "type": "PRES_VIS", "word": "banjo", "wordID": 81, "conditions": [24, 1600, "v", 24000], "trial": 3, "serialpos": 9, "trial_type": "single-stim", "trial_index": 138, "time_elapsed": 957174, "internal_node_id": "0.0-102.0"}}, {"uniqueid": "MTK1005:3X1FV8S5JYYHK9XDQXCW2GXB351GVC", "current_trial": 139, "dateTime": 1513038424927, "trialdata": {"rt": -1, "stimulus": "<p id=\"stim\">JELLY</p>", "key_press": -1, "type": "PRES_VIS", "word": "jelly", "wordID": 754, "conditions": [24, 1600, "v", 24000], "trial": 3, "serialpos": 10, "trial_type": "single-stim", "trial_index": 139, "time_elapsed": 959943, "internal_node_id": "0.0-103.0"}}, {"uniqueid": "MTK1005:3X1FV8S5JYYHK9XDQXCW2GXB351GVC", "current_trial": 140, "dateTime": 1513038427591, "trialdata": {"rt": -1, "stimulus": "<p id=\"stim\">CUSTARD</p>", "key_press": -1, "type": "PRES_VIS", "word": "custard", "wordID": 428, "conditions": [24, 1600, "v", 24000], "trial": 3, "serialpos": 11, "trial_type": "single-stim", "trial_index": 140, "time_elapsed": 962607, "internal_node_id": "0.0-104.0"}}, {"uniqueid": "MTK1005:3X1FV8S5JYYHK9XDQXCW2GXB351GVC", "current_trial": 141, "dateTime": 1513038430049, "trialdata": {"rt": -1, "stimulus": "<p id=\"stim\">LILY</p>", "key_press": -1, "type": "PRES_VIS", "word": "lily", "wordID": 820, "conditions": [24, 1600, "v", 24000], "trial": 3, "serialpos": 12, "trial_type": "single-stim", "trial_index": 141, "time_elapsed": 965065, "internal_node_id": "0.0-105.0"}}, {"uniqueid": "MTK1005:3X1FV8S5JYYHK9XDQXCW2GXB351GVC", "current_trial": 142, "dateTime": 1513038432725, "trialdata": {"rt": -1, "stimulus": "<p id=\"stim\">DRINK</p>", "key_press": -1, "type": "PRES_VIS", "word": "drink", "wordID": 497, "conditions": [24, 1600, "v", 24000], "trial": 3, "serialpos": 13, "trial_type": "single-stim", "trial_index": 142, "time_elapsed": 967741, "internal_node_id": "0.0-106.0"}}, {"uniqueid": "MTK1005:3X1FV8S5JYYHK9XDQXCW2GXB351GVC", "current_trial": 143, "dateTime": 1513038435224, "trialdata": {"rt": -1, "stimulus": "<p id=\"stim\">SCISSORS</p>", "key_press": -1, "type": "PRES_VIS", "word": "scissors", "wordID": 1249, "conditions": [24, 1600, "v", 24000], "trial": 3, "serialpos": 14, "trial_type": "single-stim", "trial_index": 143, "time_elapsed": 970240, "internal_node_id": "0.0-107.0"}}, {"uniqueid": "MTK1005:3X1FV8S5JYYHK9XDQXCW2GXB351GVC", "current_trial": 144, "dateTime": 1513038437800, "trialdata": {"rt": -1, "stimulus": "<p id=\"stim\">CHIPMUNK</p>", "key_press": -1, "type": "PRES_VIS", "word": "chipmunk", "wordID": 303, "conditions": [24, 1600, "v", 24000], "trial": 3, "serialpos": 15, "trial_type": "single-stim", "trial_index": 144, "time_elapsed": 972816, "internal_node_id": "0.0-108.0"}}, {"uniqueid": "MTK1005:3X1FV8S5JYYHK9XDQXCW2GXB351GVC", "current_trial": 145, "dateTime": 1513038440518, "trialdata": {"rt": -1, "stimulus": "<p id=\"stim\">GIRL</p>", "key_press": -1, "type": "PRES_VIS", "word": "girl", "wordID": 636, "conditions": [24, 1600, "v", 24000], "trial": 3, "serialpos": 16, "trial_type": "single-stim", "trial_index": 145, "time_elapsed": 975534, "internal_node_id": "0.0-109.0"}}, {"uniqueid": "MTK1005:3X1FV8S5JYYHK9XDQXCW2GXB351GVC", "current_trial": 146, "dateTime": 1513038443050, "trialdata": {"rt": -1, "stimulus": "<p id=\"stim\">SMOG</p>", "key_press": -1, "type": "PRES_VIS", "word": "smog", "wordID": 1329, "conditions": [24, 1600, "v", 24000], "trial": 3, "serialpos": 17, "trial_type": "single-stim", "trial_index": 146, "time_elapsed": 978066, "internal_node_id": "0.0-110.0"}}, {"uniqueid": "MTK1005:3X1FV8S5JYYHK9XDQXCW2GXB351GVC", "current_trial": 147, "dateTime": 1513038445636, "trialdata": {"rt": -1, "stimulus": "<p id=\"stim\">SAUSAGE</p>", "key_press": -1, "type": "PRES_VIS", "word": "sausage", "wordID": 1237, "conditions": [24, 1600, "v", 24000], "trial": 3, "serialpos": 18, "trial_type": "single-stim", "trial_index": 147, "time_elapsed": 980652, "internal_node_id": "0.0-111.0"}}, {"uniqueid": "MTK1005:3X1FV8S5JYYHK9XDQXCW2GXB351GVC", "current_trial": 148, "dateTime": 1513038448100, "trialdata": {"rt": -1, "stimulus": "<p id=\"stim\">ROCKET</p>", "key_press": -1, "type": "PRES_VIS", "word": "rocket", "wordID": 1201, "conditions": [24, 1600, "v", 24000], "trial": 3, "serialpos": 19, "trial_type": "single-stim", "trial_index": 148, "time_elapsed": 983116, "internal_node_id": "0.0-112.0"}}, {"uniqueid": "MTK1005:3X1FV8S5JYYHK9XDQXCW2GXB351GVC", "current_trial": 149, "dateTime": 1513038450758, "trialdata": {"rt": -1, "stimulus": "<p id=\"stim\">MISSILE</p>", "key_press": -1, "type": "PRES_VIS", "word": "missile", "wordID": 899, "conditions": [24, 1600, "v", 24000], "trial": 3, "serialpos": 20, "trial_type": "single-stim", "trial_index": 149, "time_elapsed": 985774, "internal_node_id": "0.0-113.0"}}, {"uniqueid": "MTK1005:3X1FV8S5JYYHK9XDQXCW2GXB351GVC", "current_trial": 150, "dateTime": 1513038453425, "trialdata": {"rt": -1, "stimulus": "<p id=\"stim\">KNIFE</p>", "key_press": -1, "type": "PRES_VIS", "word": "knife", "wordID": 784, "conditions": [24, 1600, "v", 24000], "trial": 3, "serialpos": 21, "trial_type": "single-stim", "trial_index": 150, "time_elapsed": 988441, "internal_node_id": "0.0-114.0"}}, {"uniqueid": "MTK1005:3X1FV8S5JYYHK9XDQXCW2GXB351GVC", "current_trial": 151, "dateTime": 1513038455854, "trialdata": {"rt": -1, "stimulus": "<p id=\"stim\">OZONE</p>", "key_press": -1, "type": "PRES_VIS", "word": "ozone", "wordID": 995, "conditions": [24, 1600, "v", 24000], "trial": 3, "serialpos": 22, "trial_type": "single-stim", "trial_index": 151, "time_elapsed": 990870, "internal_node_id": "0.0-115.0"}}, {"uniqueid": "MTK1005:3X1FV8S5JYYHK9XDQXCW2GXB351GVC", "current_trial": 152, "dateTime": 1513038458425, "trialdata": {"rt": -1, "stimulus": "<p id=\"stim\">LUMBER</p>", "key_press": -1, "type": "PRES_VIS", "word": "lumber", "wordID": 847, "conditions": [24, 1600, "v", 24000], "trial": 3, "serialpos": 23, "trial_type": "single-stim", "trial_index": 152, "time_elapsed": 993441, "internal_node_id": "0.0-116.0"}}, {"uniqueid": "MTK1005:3X1FV8S5JYYHK9XDQXCW2GXB351GVC", "current_trial": 153, "dateTime": 1513038460623, "trialdata": {"rt": -1, "stimulus": "", "key_press": -1, "type": "PRE_RECALL_DELAY", "trial_type": "single-stim", "trial_index": 153, "time_elapsed": 995639, "internal_node_id": "0.0-117.0-0.0"}}, {"uniqueid": "MTK1005:3X1FV8S5JYYHK9XDQXCW2GXB351GVC", "current_trial": 154, "dateTime": 1513038461123, "trialdata": {"rt": -1000, "stimulus": "/static/audio/400Hz.wav", "key_press": -1, "type": "PRE_RECALL_ALERT", "trial_type": "single-audio", "trial_index": 154, "time_elapsed": 996139, "internal_node_id": "0.0-118.0"}}, {"uniqueid": "MTK1005:3X1FV8S5JYYHK9XDQXCW2GXB351GVC", "current_trial": 155, "dateTime": 1513038521120, "trialdata": {"rt": [2501, 5653, 9884, 13076, 16196, 19716, 23196, 25843, 28851, 34264, 37352, 41631, 46919, 50279, 59399], "recwords": ["lily", "smog", "chipmunk", "scissors", "jelly", "banjo", "snake", "stove", "rod", "crayon", "drink", "sausage", "violet", "ozone", "girls"], "type": "FREE_RECALL", "conditions": [24, 1600, "v", 24000], "trial": 3, "trial_type": "free-recall", "trial_index": 155, "time_elapsed": 1056132, "internal_node_id": "0.0-119.0-0.0"}}, {"uniqueid": "MTK1005:3X1FV8S5JYYHK9XDQXCW2GXB351GVC", "current_trial": 156, "dateTime": 1513038524764, "trialdata": {"rt": 1643, "key_press": 13, "type": "INSTRUCTIONS", "trial_type": "text", "trial_index": 156, "time_elapsed": 1059780, "internal_node_id": "0.0-120.0"}}, {"uniqueid": "MTK1005:3X1FV8S5JYYHK9XDQXCW2GXB351GVC", "current_trial": 157, "dateTime": 1513038550768, "trialdata": {"rt": [3772, 10460, 12645, 17235, 21939], "responses": ["10", "21", "7", "13", "14"], "num1": [8, 6, 1, 8, 6, 9], "num2": [1, 8, 1, 3, 5, 9], "num3": [1, 9, 5, 2, 3, 7], "type": "DISTRACTOR", "conditions": [12, 800, "a", 24000], "trial": 4, "trial_type": "math-distractor", "trial_index": 157, "time_elapsed": 1085784, "internal_node_id": "0.0-121.0"}}, {"uniqueid": "MTK1005:3X1FV8S5JYYHK9XDQXCW2GXB351GVC", "current_trial": 158, "dateTime": 1513038553771, "trialdata": {"rt": -1, "stimulus": "<p id=\"stim\">10</p>", "key_press": -1, "trial_type": "single-stim", "trial_index": 158, "time_elapsed": 1088787, "internal_node_id": "0.0-122.0-0.0"}}, {"uniqueid": "MTK1005:3X1FV8S5JYYHK9XDQXCW2GXB351GVC", "current_trial": 159, "dateTime": 1513038554771, "trialdata": {"rt": -1, "stimulus": "<p id=\"stim\">9</p>", "key_press": -1, "trial_type": "single-stim", "trial_index": 159, "time_elapsed": 1089787, "internal_node_id": "0.0-122.0-1.0"}}, {"uniqueid": "MTK1005:3X1FV8S5JYYHK9XDQXCW2GXB351GVC", "current_trial": 160, "dateTime": 1513038555781, "trialdata": {"rt": -1, "stimulus": "<p id=\"stim\">8</p>", "key_press": -1, "trial_type": "single-stim", "trial_index": 160, "time_elapsed": 1090797, "internal_node_id": "0.0-122.0-2.0"}}, {"uniqueid": "MTK1005:3X1FV8S5JYYHK9XDQXCW2GXB351GVC", "current_trial": 161, "dateTime": 1513038556781, "trialdata": {"rt": -1, "stimulus": "<p id=\"stim\">7</p>", "key_press": -1, "trial_type": "single-stim", "trial_index": 161, "time_elapsed": 1091797, "internal_node_id": "0.0-122.0-3.0"}}, {"uniqueid": "MTK1005:3X1FV8S5JYYHK9XDQXCW2GXB351GVC", "current_trial": 162, "dateTime": 1513038557782, "trialdata": {"rt": -1, "stimulus": "<p id=\"stim\">6</p>", "key_press": -1, "trial_type": "single-stim", "trial_index": 162, "time_elapsed": 1092798, "internal_node_id": "0.0-122.0-4.0"}}, {"uniqueid": "MTK1005:3X1FV8S5JYYHK9XDQXCW2GXB351GVC", "current_trial": 163, "dateTime": 1513038558782, "trialdata": {"rt": -1, "stimulus": "<p id=\"stim\">5</p>", "key_press": -1, "trial_type": "single-stim", "trial_index": 163, "time_elapsed": 1093798, "internal_node_id": "0.0-122.0-5.0"}}, {"uniqueid": "MTK1005:3X1FV8S5JYYHK9XDQXCW2GXB351GVC", "current_trial": 164, "dateTime": 1513038559782, "trialdata": {"rt": -1, "stimulus": "<p id=\"stim\">4</p>", "key_press": -1, "trial_type": "single-stim", "trial_index": 164, "time_elapsed": 1094798, "internal_node_id": "0.0-122.0-6.0"}}, {"uniqueid": "MTK1005:3X1FV8S5JYYHK9XDQXCW2GXB351GVC", "current_trial": 165, "dateTime": 1513038560783, "trialdata": {"rt": -1, "stimulus": "<p id=\"stim\">3</p>", "key_press": -1, "trial_type": "single-stim", "trial_index": 165, "time_elapsed": 1095798, "internal_node_id": "0.0-122.0-7.0"}}, {"uniqueid": "MTK1005:3X1FV8S5JYYHK9XDQXCW2GXB351GVC", "current_trial": 166, "dateTime": 1513038561783, "trialdata": {"rt": -1, "stimulus": "<p id=\"stim\">2</p>", "key_press": -1, "trial_type": "single-stim", "trial_index": 166, "time_elapsed": 1096799, "internal_node_id": "0.0-122.0-8.0"}}, {"uniqueid": "MTK1005:3X1FV8S5JYYHK9XDQXCW2GXB351GVC", "current_trial": 167, "dateTime": 1513038562783, "trialdata": {"rt": -1, "stimulus": "<p id=\"stim\">1</p>", "key_press": -1, "trial_type": "single-stim", "trial_index": 167, "time_elapsed": 1097799, "internal_node_id": "0.0-122.0-9.0"}}, {"uniqueid": "MTK1005:3X1FV8S5JYYHK9XDQXCW2GXB351GVC", "current_trial": 168, "dateTime": 1513038564283, "trialdata": {"rt": -1, "stimulus": "<p id=\"stim\">+</p>", "key_press": -1, "type": "FIXATION", "trial_type": "single-stim", "trial_index": 168, "time_elapsed": 1099299, "internal_node_id": "0.0-123.0-0.0"}}, {"uniqueid": "MTK1005:3X1FV8S5JYYHK9XDQXCW2GXB351GVC", "current_trial": 169, "dateTime": 1513038565955, "trialdata": {"rt": -1000, "stimulus": "/static/audio/wordpool/BUTCHER.wav", "key_press": -1, "type": "PRES_AUD", "word": "butcher", "wordID": 202, "conditions": [12, 800, "a", 24000], "trial": 4, "serialpos": 0, "trial_type": "single-audio", "trial_index": 169, "time_elapsed": 1100971, "internal_node_id": "0.0-124.0"}}, {"uniqueid": "MTK1005:3X1FV8S5JYYHK9XDQXCW2GXB351GVC", "current_trial": 170, "dateTime": 1513038567633, "trialdata": {"rt": -1000, "stimulus": "/static/audio/wordpool/PUDDLE.wav", "key_press": -1, "type": "PRES_AUD", "word": "puddle", "wordID": 1139, "conditions": [12, 800, "a", 24000], "trial": 4, "serialpos": 1, "trial_type": "single-audio", "trial_index": 170, "time_elapsed": 1102649, "internal_node_id": "0.0-125.0"}}, {"uniqueid": "MTK1005:3X1FV8S5JYYHK9XDQXCW2GXB351GVC", "current_trial": 171, "dateTime": 1513038569629, "trialdata": {"rt": -1000, "stimulus": "/static/audio/wordpool/SCARF.wav", "key_press": -1, "type": "PRES_AUD", "word": "scarf", "wordID": 1245, "conditions": [12, 800, "a", 24000], "trial": 4, "serialpos": 2, "trial_type": "single-audio", "trial_index": 171, "time_elapsed": 1104645, "internal_node_id": "0.0-126.0"}}, {"uniqueid": "MTK1005:3X1FV8S5JYYHK9XDQXCW2GXB351GVC", "current_trial": 172, "dateTime": 1513038571340, "trialdata": {"rt": -1000, "stimulus": "/static/audio/wordpool/LACE.wav", "key_press": -1, "type": "PRES_AUD", "word": "lace", "wordID": 791, "conditions": [12, 800, "a", 24000], "trial": 4, "serialpos": 3, "trial_type": "single-audio", "trial_index": 172, "time_elapsed": 1106356, "internal_node_id": "0.0-127.0"}}, {"uniqueid": "MTK1005:3X1FV8S5JYYHK9XDQXCW2GXB351GVC", "current_trial": 173, "dateTime": 1513038573289, "trialdata": {"rt": -1000, "stimulus": "/static/audio/wordpool/RABBIT.wav", "key_press": -1, "type": "PRES_AUD", "word": "rabbit", "wordID": 1151, "conditions": [12, 800, "a", 24000], "trial": 4, "serialpos": 4, "trial_type": "single-audio", "trial_index": 173, "time_elapsed": 1108305, "internal_node_id": "0.0-128.0"}}, {"uniqueid": "MTK1005:3X1FV8S5JYYHK9XDQXCW2GXB351GVC", "current_trial": 174, "dateTime": 1513038575134, "trialdata": {"rt": -1000, "stimulus": "/static/audio/wordpool/LEOPARD.wav", "key_press": -1, "type": "PRES_AUD", "word": "leopard", "wordID": 811, "conditions": [12, 800, "a", 24000], "trial": 4, "serialpos": 5, "trial_type": "single-audio", "trial_index": 174, "time_elapsed": 1110150, "internal_node_id": "0.0-129.0"}}, {"uniqueid": "MTK1005:3X1FV8S5JYYHK9XDQXCW2GXB351GVC", "current_trial": 175, "dateTime": 1513038576749, "trialdata": {"rt": -1000, "stimulus": "/static/audio/wordpool/BLACKBOARD.wav", "key_press": -1, "type": "PRES_AUD", "word": "blackboard", "wordID": 132, "conditions": [12, 800, "a", 24000], "trial": 4, "serialpos": 6, "trial_type": "single-audio", "trial_index": 175, "time_elapsed": 1111765, "internal_node_id": "0.0-130.0"}}, {"uniqueid": "MTK1005:3X1FV8S5JYYHK9XDQXCW2GXB351GVC", "current_trial": 176, "dateTime": 1513038578465, "trialdata": {"rt": -1000, "stimulus": "/static/audio/wordpool/HEDGE.wav", "key_press": -1, "type": "PRES_AUD", "word": "hedge", "wordID": 698, "conditions": [12, 800, "a", 24000], "trial": 4, "serialpos": 7, "trial_type": "single-audio", "trial_index": 176, "time_elapsed": 1113481, "internal_node_id": "0.0-131.0"}}, {"uniqueid": "MTK1005:3X1FV8S5JYYHK9XDQXCW2GXB351GVC", "current_trial": 177, "dateTime": 1513038580240, "trialdata": {"rt": -1000, "stimulus": "/static/audio/wordpool/STREAM.wav", "key_press": -1, "type": "PRES_AUD", "word": "stream", "wordID": 1391, "conditions": [12, 800, "a", 24000], "trial": 4, "serialpos": 8, "trial_type": "single-audio", "trial_index": 177, "time_elapsed": 1115256, "internal_node_id": "0.0-132.0"}}, {"uniqueid": "MTK1005:3X1FV8S5JYYHK9XDQXCW2GXB351GVC", "current_trial": 178, "dateTime": 1513038581913, "trialdata": {"rt": -1000, "stimulus": "/static/audio/wordpool/SKILLET.wav", "key_press": -1, "type": "PRES_AUD", "word": "skillet", "wordID": 1316, "conditions": [12, 800, "a", 24000], "trial": 4, "serialpos": 9, "trial_type": "single-audio", "trial_index": 178, "time_elapsed": 1116929, "internal_node_id": "0.0-133.0"}}, {"uniqueid": "MTK1005:3X1FV8S5JYYHK9XDQXCW2GXB351GVC", "current_trial": 179, "dateTime": 1513038583865, "trialdata": {"rt": -1000, "stimulus": "/static/audio/wordpool/GRILL.wav", "key_press": -1, "type": "PRES_AUD", "word": "grill", "wordID": 660, "conditions": [12, 800, "a", 24000], "trial": 4, "serialpos": 10, "trial_type": "single-audio", "trial_index": 179, "time_elapsed": 1118881, "internal_node_id": "0.0-134.0"}}, {"uniqueid": "MTK1005:3X1FV8S5JYYHK9XDQXCW2GXB351GVC", "current_trial": 180, "dateTime": 1513038585790, "trialdata": {"rt": -1000, "stimulus": "/static/audio/wordpool/PUPPY.wav", "key_press": -1, "type": "PRES_AUD", "word": "puppy", "wordID": 1143, "conditions": [12, 800, "a", 24000], "trial": 4, "serialpos": 11, "trial_type": "single-audio", "trial_index": 180, "time_elapsed": 1120806, "internal_node_id": "0.0-135.0"}}, {"uniqueid": "MTK1005:3X1FV8S5JYYHK9XDQXCW2GXB351GVC", "current_trial": 181, "dateTime": 1513038587021, "trialdata": {"rt": -1, "stimulus": "", "key_press": -1, "type": "PRE_RECALL_DELAY", "trial_type": "single-stim", "trial_index": 181, "time_elapsed": 1122037, "internal_node_id": "0.0-136.0-0.0"}}, {"uniqueid": "MTK1005:3X1FV8S5JYYHK9XDQXCW2GXB351GVC", "current_trial": 182, "dateTime": 1513038587522, "trialdata": {"rt": -1000, "stimulus": "/static/audio/400Hz.wav", "key_press": -1, "type": "PRE_RECALL_ALERT", "trial_type": "single-audio", "trial_index": 182, "time_elapsed": 1122538, "internal_node_id": "0.0-137.0"}}, {"uniqueid": "MTK1005:3X1FV8S5JYYHK9XDQXCW2GXB351GVC", "current_trial": 183, "dateTime": 1513038647526, "trialdata": {"rt": [3949, 6493, 9197, 11974, 15197, 19357, 27860], "recwords": ["puppy", "grill", "rabbit", "place", "stream", "skillet", "park"], "type": "FREE_RECALL", "conditions": [12, 800, "a", 24000], "trial": 4, "trial_type": "free-recall", "trial_index": 183, "time_elapsed": 1182537, "internal_node_id": "0.0-138.0-0.0"}}, {"uniqueid": "MTK1005:3X1FV8S5JYYHK9XDQXCW2GXB351GVC", "current_trial": 184, "dateTime": 1513038651338, "trialdata": {"rt": 1811, "key_press": 13, "type": "INSTRUCTIONS", "trial_type": "text", "trial_index": 184, "time_elapsed": 1186354, "internal_node_id": "0.0-139.0"}}, {"uniqueid": "MTK1005:3X1FV8S5JYYHK9XDQXCW2GXB351GVC", "current_trial": 185, "dateTime": 1513038665340, "trialdata": {"rt": [5903], "responses": ["20"], "num1": [9, 4], "num2": [3, 6], "num3": [8, 4], "type": "DISTRACTOR", "conditions": [12, 800, "v", 12000], "trial": 5, "trial_type": "math-distractor", "trial_index": 185, "time_elapsed": 1200355, "internal_node_id": "0.0-140.0"}}, {"uniqueid": "MTK1005:3X1FV8S5JYYHK9XDQXCW2GXB351GVC", "current_trial": 186, "dateTime": 1513038668340, "trialdata": {"rt": -1, "stimulus": "<p id=\"stim\">10</p>", "key_press": -1, "trial_type": "single-stim", "trial_index": 186, "time_elapsed": 1203356, "internal_node_id": "0.0-141.0-0.0"}}, {"uniqueid": "MTK1005:3X1FV8S5JYYHK9XDQXCW2GXB351GVC", "current_trial": 187, "dateTime": 1513038669340, "trialdata": {"rt": -1, "stimulus": "<p id=\"stim\">9</p>", "key_press": -1, "trial_type": "single-stim", "trial_index": 187, "time_elapsed": 1204356, "internal_node_id": "0.0-141.0-1.0"}}, {"uniqueid": "MTK1005:3X1FV8S5JYYHK9XDQXCW2GXB351GVC", "current_trial": 188, "dateTime": 1513038670340, "trialdata": {"rt": -1, "stimulus": "<p id=\"stim\">8</p>", "key_press": -1, "trial_type": "single-stim", "trial_index": 188, "time_elapsed": 1205356, "internal_node_id": "0.0-141.0-2.0"}}, {"uniqueid": "MTK1005:3X1FV8S5JYYHK9XDQXCW2GXB351GVC", "current_trial": 189, "dateTime": 1513038671341, "trialdata": {"rt": -1, "stimulus": "<p id=\"stim\">7</p>", "key_press": -1, "trial_type": "single-stim", "trial_index": 189, "time_elapsed": 1206357, "internal_node_id": "0.0-141.0-3.0"}}, {"uniqueid": "MTK1005:3X1FV8S5JYYHK9XDQXCW2GXB351GVC", "current_trial": 190, "dateTime": 1513038672341, "trialdata": {"rt": -1, "stimulus": "<p id=\"stim\">6</p>", "key_press": -1, "trial_type": "single-stim", "trial_index": 190, "time_elapsed": 1207357, "internal_node_id": "0.0-141.0-4.0"}}, {"uniqueid": "MTK1005:3X1FV8S5JYYHK9XDQXCW2GXB351GVC", "current_trial": 191, "dateTime": 1513038673341, "trialdata": {"rt": -1, "stimulus": "<p id=\"stim\">5</p>", "key_press": -1, "trial_type": "single-stim", "trial_index": 191, "time_elapsed": 1208357, "internal_node_id": "0.0-141.0-5.0"}}, {"uniqueid": "MTK1005:3X1FV8S5JYYHK9XDQXCW2GXB351GVC", "current_trial": 192, "dateTime": 1513038674341, "trialdata": {"rt": -1, "stimulus": "<p id=\"stim\">4</p>", "key_press": -1, "trial_type": "single-stim", "trial_index": 192, "time_elapsed": 1209357, "internal_node_id": "0.0-141.0-6.0"}}, {"uniqueid": "MTK1005:3X1FV8S5JYYHK9XDQXCW2GXB351GVC", "current_trial": 193, "dateTime": 1513038675341, "trialdata": {"rt": -1, "stimulus": "<p id=\"stim\">3</p>", "key_press": -1, "trial_type": "single-stim", "trial_index": 193, "time_elapsed": 1210357, "internal_node_id": "0.0-141.0-7.0"}}, {"uniqueid": "MTK1005:3X1FV8S5JYYHK9XDQXCW2GXB351GVC", "current_trial": 194, "dateTime": 1513038676343, "trialdata": {"rt": -1, "stimulus": "<p id=\"stim\">2</p>", "key_press": -1, "trial_type": "single-stim", "trial_index": 194, "time_elapsed": 1211358, "internal_node_id": "0.0-141.0-8.0"}}, {"uniqueid": "MTK1005:3X1FV8S5JYYHK9XDQXCW2GXB351GVC", "current_trial": 195, "dateTime": 1513038677343, "trialdata": {"rt": -1, "stimulus": "<p id=\"stim\">1</p>", "key_press": -1, "trial_type": "single-stim", "trial_index": 195, "time_elapsed": 1212359, "internal_node_id": "0.0-141.0-9.0"}}, {"uniqueid": "MTK1005:3X1FV8S5JYYHK9XDQXCW2GXB351GVC", "current_trial": 196, "dateTime": 1513038678843, "trialdata": {"rt": -1, "stimulus": "<p id=\"stim\">+</p>", "key_press": -1, "type": "FIXATION", "trial_type": "single-stim", "trial_index": 196, "time_elapsed": 1213859, "internal_node_id": "0.0-142.0-0.0"}}, {"uniqueid": "MTK1005:3X1FV8S5JYYHK9XDQXCW2GXB351GVC", "current_trial": 197, "dateTime": 1513038679645, "trialdata": {"rt": -1, "stimulus": "<p id=\"stim\">SHOULDER</p>", "key_press": -1, "type": "PRES_VIS", "word": "shoulder", "wordID": 1293, "conditions": [12, 800, "v", 12000], "trial": 5, "serialpos": 0, "trial_type": "single-stim", "trial_index": 197, "time_elapsed": 1214661, "internal_node_id": "0.0-143.0"}}, {"uniqueid": "MTK1005:3X1FV8S5JYYHK9XDQXCW2GXB351GVC", "current_trial": 198, "dateTime": 1513038681429, "trialdata": {"rt": -1, "stimulus": "<p id=\"stim\">ORANGE</p>", "key_press": -1, "type": "PRES_VIS", "word": "orange", "wordID": 979, "conditions": [12, 800, "v", 12000], "trial": 5, "serialpos": 1, "trial_type": "single-stim", "trial_index": 198, "time_elapsed": 1216445, "internal_node_id": "0.0-144.0"}}, {"uniqueid": "MTK1005:3X1FV8S5JYYHK9XDQXCW2GXB351GVC", "current_trial": 199, "dateTime": 1513038683093, "trialdata": {"rt": -1, "stimulus": "<p id=\"stim\">SHORTS</p>", "key_press": -1, "type": "PRES_VIS", "word": "shorts", "wordID": 1292, "conditions": [12, 800, "v", 12000], "trial": 5, "serialpos": 2, "trial_type": "single-stim", "trial_index": 199, "time_elapsed": 1218109, "internal_node_id": "0.0-145.0"}}, {"uniqueid": "MTK1005:3X1FV8S5JYYHK9XDQXCW2GXB351GVC", "current_trial": 200, "dateTime": 1513038684919, "trialdata": {"rt": -1, "stimulus": "<p id=\"stim\">HUSBAND</p>", "key_press": -1, "type": "PRES_VIS", "word": "husband", "wordID": 727, "conditions": [12, 800, "v", 12000], "trial": 5, "serialpos": 3, "trial_type": "single-stim", "trial_index": 200, "time_elapsed": 1219935, "internal_node_id": "0.0-146.0"}}, {"uniqueid": "MTK1005:3X1FV8S5JYYHK9XDQXCW2GXB351GVC", "current_trial": 201, "dateTime": 1513038686838, "trialdata": {"rt": -1, "stimulus": "<p id=\"stim\">LETTUCE</p>", "key_press": -1, "type": "PRES_VIS", "word": "lettuce", "wordID": 813, "conditions": [12, 800, "v", 12000], "trial": 5, "serialpos": 4, "trial_type": "single-stim", "trial_index": 201, "time_elapsed": 1221854, "internal_node_id": "0.0-147.0"}}, {"uniqueid": "MTK1005:3X1FV8S5JYYHK9XDQXCW2GXB351GVC", "current_trial": 202, "dateTime": 1513038688643, "trialdata": {"rt": -1, "stimulus": "<p id=\"stim\">ACTOR</p>", "key_press": -1, "type": "PRES_VIS", "word": "actor", "wordID": 4, "conditions": [12, 800, "v", 12000], "trial": 5, "serialpos": 5, "trial_type": "single-stim", "trial_index": 202, "time_elapsed": 1223659, "internal_node_id": "0.0-148.0"}}, {"uniqueid": "MTK1005:3X1FV8S5JYYHK9XDQXCW2GXB351GVC", "current_trial": 203, "dateTime": 1513038690601, "trialdata": {"rt": -1, "stimulus": "<p id=\"stim\">FILM</p>", "key_press": -1, "type": "PRES_VIS", "word": "film", "wordID": 564, "conditions": [12, 800, "v", 12000], "trial": 5, "serialpos": 6, "trial_type": "single-stim", "trial_index": 203, "time_elapsed": 1225617, "internal_node_id": "0.0-149.0"}}, {"uniqueid": "MTK1005:3X1FV8S5JYYHK9XDQXCW2GXB351GVC", "current_trial": 204, "dateTime": 1513038692499, "trialdata": {"rt": -1, "stimulus": "<p id=\"stim\">ONION</p>", "key_press": -1, "type": "PRES_VIS", "word": "onion", "wordID": 976, "conditions": [12, 800, "v", 12000], "trial": 5, "serialpos": 7, "trial_type": "single-stim", "trial_index": 204, "time_elapsed": 1227515, "internal_node_id": "0.0-150.0"}}, {"uniqueid": "MTK1005:3X1FV8S5JYYHK9XDQXCW2GXB351GVC", "current_trial": 205, "dateTime": 1513038694272, "trialdata": {"rt": -1, "stimulus": "<p id=\"stim\">STATUE</p>", "key_press": -1, "type": "PRES_VIS", "word": "statue", "wordID": 1373, "conditions": [12, 800, "v", 12000], "trial": 5, "serialpos": 8, "trial_type": "single-stim", "trial_index": 205, "time_elapsed": 1229288, "internal_node_id": "0.0-151.0"}}, {"uniqueid": "MTK1005:3X1FV8S5JYYHK9XDQXCW2GXB351GVC", "current_trial": 206, "dateTime": 1513038696245, "trialdata": {"rt": -1, "stimulus": "<p id=\"stim\">SERVANT</p>", "key_press": -1, "type": "PRES_VIS", "word": "servant", "wordID": 1270, "conditions": [12, 800, "v", 12000], "trial": 5, "serialpos": 9, "trial_type": "single-stim", "trial_index": 206, "time_elapsed": 1231261, "internal_node_id": "0.0-152.0"}}, {"uniqueid": "MTK1005:3X1FV8S5JYYHK9XDQXCW2GXB351GVC", "current_trial": 207, "dateTime": 1513038698035, "trialdata": {"rt": -1, "stimulus": "<p id=\"stim\">STALLION</p>", "key_press": -1, "type": "PRES_VIS", "word": "stallion", "wordID": 1368, "conditions": [12, 800, "v", 12000], "trial": 5, "serialpos": 10, "trial_type": "single-stim", "trial_index": 207, "time_elapsed": 1233051, "internal_node_id": "0.0-153.0"}}, {"uniqueid": "MTK1005:3X1FV8S5JYYHK9XDQXCW2GXB351GVC", "current_trial": 208, "dateTime": 1513038699752, "trialdata": {"rt": -1, "stimulus": "<p id=\"stim\">ROOSTER</p>", "key_press": -1, "type": "PRES_VIS", "word": "rooster", "wordID": 1208, "conditions": [12, 800, "v", 12000], "trial": 5, "serialpos": 11, "trial_type": "single-stim", "trial_index": 208, "time_elapsed": 1234768, "internal_node_id": "0.0-154.0"}}, {"uniqueid": "MTK1005:3X1FV8S5JYYHK9XDQXCW2GXB351GVC", "current_trial": 209, "dateTime": 1513038702038, "trialdata": {"rt": -1, "stimulus": "", "key_press": -1, "type": "PRE_RECALL_DELAY", "trial_type": "single-stim", "trial_index": 209, "time_elapsed": 1237054, "internal_node_id": "0.0-155.0-0.0"}}, {"uniqueid": "MTK1005:3X1FV8S5JYYHK9XDQXCW2GXB351GVC", "current_trial": 210, "dateTime": 1513038702538, "trialdata": {"rt": -1000, "stimulus": "/static/audio/400Hz.wav", "key_press": -1, "type": "PRE_RECALL_ALERT", "trial_type": "single-audio", "trial_index": 210, "time_elapsed": 1237554, "internal_node_id": "0.0-156.0"}}, {"uniqueid": "MTK1005:3X1FV8S5JYYHK9XDQXCW2GXB351GVC", "current_trial": 211, "dateTime": 1513038762551, "trialdata": {"rt": [3652, 5691, 8691, 12139, 18731, 19010, 22250, 29994, 36114], "recwords": ["stallion", "rooster", "servant", "statue", "orange", "", "shoulder", "actor", "onion"], "type": "FREE_RECALL", "conditions": [12, 800, "v", 12000], "trial": 5, "trial_type": "free-recall", "trial_index": 211, "time_elapsed": 1297562, "internal_node_id": "0.0-157.0-0.0"}}, {"uniqueid": "MTK1005:3X1FV8S5JYYHK9XDQXCW2GXB351GVC", "current_trial": 212, "dateTime": 1513038767458, "trialdata": {"rt": 2907, "key_press": 13, "type": "INSTRUCTIONS", "trial_type": "text", "trial_index": 212, "time_elapsed": 1302474, "internal_node_id": "0.0-158.0"}}, {"uniqueid": "MTK1005:3X1FV8S5JYYHK9XDQXCW2GXB351GVC", "current_trial": 213, "dateTime": 1513038793460, "trialdata": {"rt": [3206, 5733, 11405, 13981, 19148], "responses": ["8", "12", "13", "14", "19"], "num1": [2, 1, 8, 1, 8, 6], "num2": [2, 9, 3, 9, 5, 7], "num3": [4, 2, 2, 4, 6, 4], "type": "DISTRACTOR", "conditions": [12, 1600, "a", 24000], "trial": 6, "trial_type": "math-distractor", "trial_index": 213, "time_elapsed": 1328476, "internal_node_id": "0.0-159.0"}}, {"uniqueid": "MTK1005:3X1FV8S5JYYHK9XDQXCW2GXB351GVC", "current_trial": 214, "dateTime": 1513038796461, "trialdata": {"rt": -1, "stimulus": "<p id=\"stim\">10</p>", "key_press": -1, "trial_type": "single-stim", "trial_index": 214, "time_elapsed": 1331477, "internal_node_id": "0.0-160.0-0.0"}}, {"uniqueid": "MTK1005:3X1FV8S5JYYHK9XDQXCW2GXB351GVC", "current_trial": 215, "dateTime": 1513038797462, "trialdata": {"rt": -1, "stimulus": "<p id=\"stim\">9</p>", "key_press": -1, "trial_type": "single-stim", "trial_index": 215, "time_elapsed": 1332478, "internal_node_id": "0.0-160.0-1.0"}}, {"uniqueid": "MTK1005:3X1FV8S5JYYHK9XDQXCW2GXB351GVC", "current_trial": 216, "dateTime": 1513038798462, "trialdata": {"rt": -1, "stimulus": "<p id=\"stim\">8</p>", "key_press": -1, "trial_type": "single-stim", "trial_index": 216, "time_elapsed": 1333478, "internal_node_id": "0.0-160.0-2.0"}}, {"uniqueid": "MTK1005:3X1FV8S5JYYHK9XDQXCW2GXB351GVC", "current_trial": 217, "dateTime": 1513038799463, "trialdata": {"rt": -1, "stimulus": "<p id=\"stim\">7</p>", "key_press": -1, "trial_type": "single-stim", "trial_index": 217, "time_elapsed": 1334479, "internal_node_id": "0.0-160.0-3.0"}}, {"uniqueid": "MTK1005:3X1FV8S5JYYHK9XDQXCW2GXB351GVC", "current_trial": 218, "dateTime": 1513038800463, "trialdata": {"rt": -1, "stimulus": "<p id=\"stim\">6</p>", "key_press": -1, "trial_type": "single-stim", "trial_index": 218, "time_elapsed": 1335479, "internal_node_id": "0.0-160.0-4.0"}}, {"uniqueid": "MTK1005:3X1FV8S5JYYHK9XDQXCW2GXB351GVC", "current_trial": 219, "dateTime": 1513038801464, "trialdata": {"rt": -1, "stimulus": "<p id=\"stim\">5</p>", "key_press": -1, "trial_type": "single-stim", "trial_index": 219, "time_elapsed": 1336480, "internal_node_id": "0.0-160.0-5.0"}}, {"uniqueid": "MTK1005:3X1FV8S5JYYHK9XDQXCW2GXB351GVC", "current_trial": 220, "dateTime": 1513038802464, "trialdata": {"rt": -1, "stimulus": "<p id=\"stim\">4</p>", "key_press": -1, "trial_type": "single-stim", "trial_index": 220, "time_elapsed": 1337480, "internal_node_id": "0.0-160.0-6.0"}}, {"uniqueid": "MTK1005:3X1FV8S5JYYHK9XDQXCW2GXB351GVC", "current_trial": 221, "dateTime": 1513038803465, "trialdata": {"rt": -1, "stimulus": "<p id=\"stim\">3</p>", "key_press": -1, "trial_type": "single-stim", "trial_index": 221, "time_elapsed": 1338481, "internal_node_id": "0.0-160.0-7.0"}}, {"uniqueid": "MTK1005:3X1FV8S5JYYHK9XDQXCW2GXB351GVC", "current_trial": 222, "dateTime": 1513038804466, "trialdata": {"rt": -1, "stimulus": "<p id=\"stim\">2</p>", "key_press": -1, "trial_type": "single-stim", "trial_index": 222, "time_elapsed": 1339482, "internal_node_id": "0.0-160.0-8.0"}}, {"uniqueid": "MTK1005:3X1FV8S5JYYHK9XDQXCW2GXB351GVC", "current_trial": 223, "dateTime": 1513038805466, "trialdata": {"rt": -1, "stimulus": "<p id=\"stim\">1</p>", "key_press": -1, "trial_type": "single-stim", "trial_index": 223, "time_elapsed": 1340482, "internal_node_id": "0.0-160.0-9.0"}}, {"uniqueid": "MTK1005:3X1FV8S5JYYHK9XDQXCW2GXB351GVC", "current_trial": 224, "dateTime": 1513038806966, "trialdata": {"rt": -1, "stimulus": "<p id=\"stim\">+</p>", "key_press": -1, "type": "FIXATION", "trial_type": "single-stim", "trial_index": 224, "time_elapsed": 1341982, "internal_node_id": "0.0-161.0-0.0"}}, {"uniqueid": "MTK1005:3X1FV8S5JYYHK9XDQXCW2GXB351GVC", "current_trial": 225, "dateTime": 1513038809421, "trialdata": {"rt": -1000, "stimulus": "/static/audio/wordpool/FIREPLACE.wav", "key_press": -1, "type": "PRES_AUD", "word": "fireplace", "wordID": 569, "conditions": [12, 1600, "a", 24000], "trial": 6, "serialpos": 0, "trial_type": "single-audio", "trial_index": 225, "time_elapsed": 1344437, "internal_node_id": "0.0-162.0"}}, {"uniqueid": "MTK1005:3X1FV8S5JYYHK9XDQXCW2GXB351GVC", "current_trial": 226, "dateTime": 1513038811893, "trialdata": {"rt": -1000, "stimulus": "/static/audio/wordpool/CRIB.wav", "key_press": -1, "type": "PRES_AUD", "word": "crib", "wordID": 406, "conditions": [12, 1600, "a", 24000], "trial": 6, "serialpos": 1, "trial_type": "single-audio", "trial_index": 226, "time_elapsed": 1346909, "internal_node_id": "0.0-163.0"}}, {"uniqueid": "MTK1005:3X1FV8S5JYYHK9XDQXCW2GXB351GVC", "current_trial": 227, "dateTime": 1513038814538, "trialdata": {"rt": -1000, "stimulus": "/static/audio/wordpool/FRUIT.wav", "key_press": -1, "type": "PRES_AUD", "word": "fruit", "wordID": 609, "conditions": [12, 1600, "a", 24000], "trial": 6, "serialpos": 2, "trial_type": "single-audio", "trial_index": 227, "time_elapsed": 1349554, "internal_node_id": "0.0-164.0"}}, {"uniqueid": "MTK1005:3X1FV8S5JYYHK9XDQXCW2GXB351GVC", "current_trial": 228, "dateTime": 1513038817044, "trialdata": {"rt": -1000, "stimulus": "/static/audio/wordpool/SWAMP.wav", "key_press": -1, "type": "PRES_AUD", "word": "swamp", "wordID": 1415, "conditions": [12, 1600, "a", 24000], "trial": 6, "serialpos": 3, "trial_type": "single-audio", "trial_index": 228, "time_elapsed": 1352060, "internal_node_id": "0.0-165.0"}}, {"uniqueid": "MTK1005:3X1FV8S5JYYHK9XDQXCW2GXB351GVC", "current_trial": 229, "dateTime": 1513038819637, "trialdata": {"rt": -1000, "stimulus": "/static/audio/wordpool/BEAKER.wav", "key_press": -1, "type": "PRES_AUD", "word": "beaker", "wordID": 103, "conditions": [12, 1600, "a", 24000], "trial": 6, "serialpos": 4, "trial_type": "single-audio", "trial_index": 229, "time_elapsed": 1354653, "internal_node_id": "0.0-166.0"}}, {"uniqueid": "MTK1005:3X1FV8S5JYYHK9XDQXCW2GXB351GVC", "current_trial": 230, "dateTime": 1513038822135, "trialdata": {"rt": -1000, "stimulus": "/static/audio/wordpool/FLASK.wav", "key_press": -1, "type": "PRES_AUD", "word": "flask", "wordID": 575, "conditions": [12, 1600, "a", 24000], "trial": 6, "serialpos": 5, "trial_type": "single-audio", "trial_index": 230, "time_elapsed": 1357151, "internal_node_id": "0.0-167.0"}}, {"uniqueid": "MTK1005:3X1FV8S5JYYHK9XDQXCW2GXB351GVC", "current_trial": 231, "dateTime": 1513038824546, "trialdata": {"rt": -1000, "stimulus": "/static/audio/wordpool/ZIPPER.wav", "key_press": -1, "type": "PRES_AUD", "word": "zipper", "wordID": 1635, "conditions": [12, 1600, "a", 24000], "trial": 6, "serialpos": 6, "trial_type": "single-audio", "trial_index": 231, "time_elapsed": 1359562, "internal_node_id": "0.0-168.0"}}, {"uniqueid": "MTK1005:3X1FV8S5JYYHK9XDQXCW2GXB351GVC", "current_trial": 232, "dateTime": 1513038827143, "trialdata": {"rt": -1000, "stimulus": "/static/audio/wordpool/MATTRESS.wav", "key_press": -1, "type": "PRES_AUD", "word": "mattress", "wordID": 878, "conditions": [12, 1600, "a", 24000], "trial": 6, "serialpos": 7, "trial_type": "single-audio", "trial_index": 232, "time_elapsed": 1362159, "internal_node_id": "0.0-169.0"}}, {"uniqueid": "MTK1005:3X1FV8S5JYYHK9XDQXCW2GXB351GVC", "current_trial": 233, "dateTime": 1513038829699, "trialdata": {"rt": -1000, "stimulus": "/static/audio/wordpool/CABIN.wav", "key_press": -1, "type": "PRES_AUD", "word": "cabin", "wordID": 210, "conditions": [12, 1600, "a", 24000], "trial": 6, "serialpos": 8, "trial_type": "single-audio", "trial_index": 233, "time_elapsed": 1364715, "internal_node_id": "0.0-170.0"}}, {"uniqueid": "MTK1005:3X1FV8S5JYYHK9XDQXCW2GXB351GVC", "current_trial": 234, "dateTime": 1513038832245, "trialdata": {"rt": -1000, "stimulus": "/static/audio/wordpool/PISTOL.wav", "key_press": -1, "type": "PRES_AUD", "word": "pistol", "wordID": 1074, "conditions": [12, 1600, "a", 24000], "trial": 6, "serialpos": 9, "trial_type": "single-audio", "trial_index": 234, "time_elapsed": 1367261, "internal_node_id": "0.0-171.0"}}, {"uniqueid": "MTK1005:3X1FV8S5JYYHK9XDQXCW2GXB351GVC", "current_trial": 235, "dateTime": 1513038834959, "trialdata": {"rt": -1000, "stimulus": "/static/audio/wordpool/CIGAR.wav", "key_press": -1, "type": "PRES_AUD", "word": "cigar", "wordID": 307, "conditions": [12, 1600, "a", 24000], "trial": 6, "serialpos": 10, "trial_type": "single-audio", "trial_index": 235, "time_elapsed": 1369975, "internal_node_id": "0.0-172.0"}}, {"uniqueid": "MTK1005:3X1FV8S5JYYHK9XDQXCW2GXB351GVC", "current_trial": 236, "dateTime": 1513038837524, "trialdata": {"rt": -1000, "stimulus": "/static/audio/wordpool/FRAGRANCE.wav", "key_press": -1, "type": "PRES_AUD", "word": "fragrance", "wordID": 598, "conditions": [12, 1600, "a", 24000], "trial": 6, "serialpos": 11, "trial_type": "single-audio", "trial_index": 236, "time_elapsed": 1372540, "internal_node_id": "0.0-173.0"}}, {"uniqueid": "MTK1005:3X1FV8S5JYYHK9XDQXCW2GXB351GVC", "current_trial": 237, "dateTime": 1513038838769, "trialdata": {"rt": -1, "stimulus": "", "key_press": -1, "type": "PRE_RECALL_DELAY", "trial_type": "single-stim", "trial_index": 237, "time_elapsed": 1373785, "internal_node_id": "0.0-174.0-0.0"}}, {"uniqueid": "MTK1005:3X1FV8S5JYYHK9XDQXCW2GXB351GVC", "current_trial": 238, "dateTime": 1513038839270, "trialdata": {"rt": -1000, "stimulus": "/static/audio/400Hz.wav", "key_press": -1, "type": "PRE_RECALL_ALERT", "trial_type": "single-audio", "trial_index": 238, "time_elapsed": 1374286, "internal_node_id": "0.0-175.0"}}, {"uniqueid": "MTK1005:3X1FV8S5JYYHK9XDQXCW2GXB351GVC", "current_trial": 239, "dateTime": 1513038899285, "trialdata": {"rt": [4718, 7422, 10590, 12725, 23564, 25732], "recwords": ["frgrance", "cigar", "pistol", "cabin", "zebra", "fruit"], "type": "FREE_RECALL", "conditions": [12, 1600, "a", 24000], "trial": 6, "trial_type": "free-recall", "trial_index": 239, "time_elapsed": 1434296, "internal_node_id": "0.0-176.0-0.0"}}, {"uniqueid": "MTK1005:3X1FV8S5JYYHK9XDQXCW2GXB351GVC", "current_trial": 240, "dateTime": 1513038903800, "trialdata": {"rt": 2513, "key_press": 13, "type": "INSTRUCTIONS", "trial_type": "text", "trial_index": 240, "time_elapsed": 1438816, "internal_node_id": "0.0-177.0"}}, {"uniqueid": "MTK1005:3X1FV8S5JYYHK9XDQXCW2GXB351GVC", "current_trial": 241, "dateTime": 1513038929801, "trialdata": {"rt": [3510, 8190, 13030, 18261, 22805], "responses": ["10", "16", "12", "20", "11"], "num1": [4, 2, 3, 8, 4, 3], "num2": [4, 6, 3, 3, 2, 2], "num3": [2, 8, 6, 9, 4, 7], "type": "DISTRACTOR", "conditions": [24, 800, "v", 24000], "trial": 7, "trial_type": "math-distractor", "trial_index": 241, "time_elapsed": 1464817, "internal_node_id": "0.0-178.0"}}, {"uniqueid": "MTK1005:3X1FV8S5JYYHK9XDQXCW2GXB351GVC", "current_trial": 242, "dateTime": 1513038932802, "trialdata": {"rt": -1, "stimulus": "<p id=\"stim\">10</p>", "key_press": -1, "trial_type": "single-stim", "trial_index": 242, "time_elapsed": 1467818, "internal_node_id": "0.0-179.0-0.0"}}, {"uniqueid": "MTK1005:3X1FV8S5JYYHK9XDQXCW2GXB351GVC", "current_trial": 243, "dateTime": 1513038933802, "trialdata": {"rt": -1, "stimulus": "<p id=\"stim\">9</p>", "key_press": -1, "trial_type": "single-stim", "trial_index": 243, "time_elapsed": 1468818, "internal_node_id": "0.0-179.0-1.0"}}, {"uniqueid": "MTK1005:3X1FV8S5JYYHK9XDQXCW2GXB351GVC", "current_trial": 244, "dateTime": 1513038934802, "trialdata": {"rt": -1, "stimulus": "<p id=\"stim\">8</p>", "key_press": -1, "trial_type": "single-stim", "trial_index": 244, "time_elapsed": 1469818, "internal_node_id": "0.0-179.0-2.0"}}, {"uniqueid": "MTK1005:3X1FV8S5JYYHK9XDQXCW2GXB351GVC", "current_trial": 245, "dateTime": 1513038935802, "trialdata": {"rt": -1, "stimulus": "<p id=\"stim\">7</p>", "key_press": -1, "trial_type": "single-stim", "trial_index": 245, "time_elapsed": 1470818, "internal_node_id": "0.0-179.0-3.0"}}, {"uniqueid": "MTK1005:3X1FV8S5JYYHK9XDQXCW2GXB351GVC", "current_trial": 246, "dateTime": 1513038936802, "trialdata": {"rt": -1, "stimulus": "<p id=\"stim\">6</p>", "key_press": -1, "trial_type": "single-stim", "trial_index": 246, "time_elapsed": 1471818, "internal_node_id": "0.0-179.0-4.0"}}, {"uniqueid": "MTK1005:3X1FV8S5JYYHK9XDQXCW2GXB351GVC", "current_trial": 247, "dateTime": 1513038937802, "trialdata": {"rt": -1, "stimulus": "<p id=\"stim\">5</p>", "key_press": -1, "trial_type": "single-stim", "trial_index": 247, "time_elapsed": 1472818, "internal_node_id": "0.0-179.0-5.0"}}, {"uniqueid": "MTK1005:3X1FV8S5JYYHK9XDQXCW2GXB351GVC", "current_trial": 248, "dateTime": 1513038938802, "trialdata": {"rt": -1, "stimulus": "<p id=\"stim\">4</p>", "key_press": -1, "trial_type": "single-stim", "trial_index": 248, "time_elapsed": 1473818, "internal_node_id": "0.0-179.0-6.0"}}, {"uniqueid": "MTK1005:3X1FV8S5JYYHK9XDQXCW2GXB351GVC", "current_trial": 249, "dateTime": 1513038939802, "trialdata": {"rt": -1, "stimulus": "<p id=\"stim\">3</p>", "key_press": -1, "trial_type": "single-stim", "trial_index": 249, "time_elapsed": 1474818, "internal_node_id": "0.0-179.0-7.0"}}, {"uniqueid": "MTK1005:3X1FV8S5JYYHK9XDQXCW2GXB351GVC", "current_trial": 250, "dateTime": 1513038940802, "trialdata": {"rt": -1, "stimulus": "<p id=\"stim\">2</p>", "key_press": -1, "trial_type": "single-stim", "trial_index": 250, "time_elapsed": 1475818, "internal_node_id": "0.0-179.0-8.0"}}, {"uniqueid": "MTK1005:3X1FV8S5JYYHK9XDQXCW2GXB351GVC", "current_trial": 251, "dateTime": 1513038941802, "trialdata": {"rt": -1, "stimulus": "<p id=\"stim\">1</p>", "key_press": -1, "trial_type": "single-stim", "trial_index": 251, "time_elapsed": 1476818, "internal_node_id": "0.0-179.0-9.0"}}, {"uniqueid": "MTK1005:3X1FV8S5JYYHK9XDQXCW2GXB351GVC", "current_trial": 252, "dateTime": 1513038943303, "trialdata": {"rt": -1, "stimulus": "<p id=\"stim\">+</p>", "key_press": -1, "type": "FIXATION", "trial_type": "single-stim", "trial_index": 252, "time_elapsed": 1478319, "internal_node_id": "0.0-180.0-0.0"}}, {"uniqueid": "MTK1005:3X1FV8S5JYYHK9XDQXCW2GXB351GVC", "current_trial": 253, "dateTime": 1513038944104, "trialdata": {"rt": -1, "stimulus": "<p id=\"stim\">SISTER</p>", "key_press": -1, "type": "PRES_VIS", "word": "sister", "wordID": 1311, "conditions": [24, 800, "v", 24000], "trial": 7, "serialpos": 0, "trial_type": "single-stim", "trial_index": 253, "time_elapsed": 1479120, "internal_node_id": "0.0-181.0"}}, {"uniqueid": "MTK1005:3X1FV8S5JYYHK9XDQXCW2GXB351GVC", "current_trial": 254, "dateTime": 1513038945962, "trialdata": {"rt": -1, "stimulus": "<p id=\"stim\">STUDENT</p>", "key_press": -1, "type": "PRES_VIS", "word": "student", "wordID": 1394, "conditions": [24, 800, "v", 24000], "trial": 7, "serialpos": 1, "trial_type": "single-stim", "trial_index": 254, "time_elapsed": 1480978, "internal_node_id": "0.0-182.0"}}, {"uniqueid": "MTK1005:3X1FV8S5JYYHK9XDQXCW2GXB351GVC", "current_trial": 255, "dateTime": 1513038947884, "trialdata": {"rt": -1, "stimulus": "<p id=\"stim\">THIEF</p>", "key_press": -1, "type": "PRES_VIS", "word": "thief", "wordID": 1455, "conditions": [24, 800, "v", 24000], "trial": 7, "serialpos": 2, "trial_type": "single-stim", "trial_index": 255, "time_elapsed": 1482900, "internal_node_id": "0.0-183.0"}}, {"uniqueid": "MTK1005:3X1FV8S5JYYHK9XDQXCW2GXB351GVC", "current_trial": 256, "dateTime": 1513038949625, "trialdata": {"rt": -1, "stimulus": "<p id=\"stim\">BRACES</p>", "key_press": -1, "type": "PRES_VIS", "word": "braces", "wordID": 163, "conditions": [24, 800, "v", 24000], "trial": 7, "serialpos": 3, "trial_type": "single-stim", "trial_index": 256, "time_elapsed": 1484641, "internal_node_id": "0.0-184.0"}}, {"uniqueid": "MTK1005:3X1FV8S5JYYHK9XDQXCW2GXB351GVC", "current_trial": 257, "dateTime": 1513038951351, "trialdata": {"rt": -1, "stimulus": "<p id=\"stim\">GRAVE</p>", "key_press": -1, "type": "PRES_VIS", "word": "grave", "wordID": 657, "conditions": [24, 800, "v", 24000], "trial": 7, "serialpos": 4, "trial_type": "single-stim", "trial_index": 257, "time_elapsed": 1486367, "internal_node_id": "0.0-185.0"}}, {"uniqueid": "MTK1005:3X1FV8S5JYYHK9XDQXCW2GXB351GVC", "current_trial": 258, "dateTime": 1513038953187, "trialdata": {"rt": -1, "stimulus": "<p id=\"stim\">CRATER</p>", "key_press": -1, "type": "PRES_VIS", "word": "crater", "wordID": 399, "conditions": [24, 800, "v", 24000], "trial": 7, "serialpos": 5, "trial_type": "single-stim", "trial_index": 258, "time_elapsed": 1488203, "internal_node_id": "0.0-186.0"}}, {"uniqueid": "MTK1005:3X1FV8S5JYYHK9XDQXCW2GXB351GVC", "current_trial": 259, "dateTime": 1513038955125, "trialdata": {"rt": -1, "stimulus": "<p id=\"stim\">GARLIC</p>", "key_press": -1, "type": "PRES_VIS", "word": "garlic", "wordID": 623, "conditions": [24, 800, "v", 24000], "trial": 7, "serialpos": 6, "trial_type": "single-stim", "trial_index": 259, "time_elapsed": 1490141, "internal_node_id": "0.0-187.0"}}, {"uniqueid": "MTK1005:3X1FV8S5JYYHK9XDQXCW2GXB351GVC", "current_trial": 260, "dateTime": 1513038956809, "trialdata": {"rt": -1, "stimulus": "<p id=\"stim\">INFANT</p>", "key_press": -1, "type": "PRES_VIS", "word": "infant", "wordID": 736, "conditions": [24, 800, "v", 24000], "trial": 7, "serialpos": 7, "trial_type": "single-stim", "trial_index": 260, "time_elapsed": 1491825, "internal_node_id": "0.0-188.0"}}, {"uniqueid": "MTK1005:3X1FV8S5JYYHK9XDQXCW2GXB351GVC", "current_trial": 261, "dateTime": 1513038958658, "trialdata": {"rt": -1, "stimulus": "<p id=\"stim\">CHILD</p>", "key_press": -1, "type": "PRES_VIS", "word": "child", "wordID": 298, "conditions": [24, 800, "v", 24000], "trial": 7, "serialpos": 8, "trial_type": "single-stim", "trial_index": 261, "time_elapsed": 1493674, "internal_node_id": "0.0-189.0"}}, {"uniqueid": "MTK1005:3X1FV8S5JYYHK9XDQXCW2GXB351GVC", "current_trial": 262, "dateTime": 1513038960634, "trialdata": {"rt": -1, "stimulus": "<p id=\"stim\">MARSH</p>", "key_press": -1, "type": "PRES_VIS", "word": "marsh", "wordID": 873, "conditions": [24, 800, "v", 24000], "trial": 7, "serialpos": 9, "trial_type": "single-stim", "trial_index": 262, "time_elapsed": 1495650, "internal_node_id": "0.0-190.0"}}, {"uniqueid": "MTK1005:3X1FV8S5JYYHK9XDQXCW2GXB351GVC", "current_trial": 263, "dateTime": 1513038962558, "trialdata": {"rt": -1, "stimulus": "<p id=\"stim\">CRAB</p>", "key_press": -1, "type": "PRES_VIS", "word": "crab", "wordID": 396, "conditions": [24, 800, "v", 24000], "trial": 7, "serialpos": 10, "trial_type": "single-stim", "trial_index": 263, "time_elapsed": 1497574, "internal_node_id": "0.0-191.0"}}, {"uniqueid": "MTK1005:3X1FV8S5JYYHK9XDQXCW2GXB351GVC", "current_trial": 264, "dateTime": 1513038964230, "trialdata": {"rt": -1, "stimulus": "<p id=\"stim\">PEPPER</p>", "key_press": -1, "type": "PRES_VIS", "word": "pepper", "wordID": 1046, "conditions": [24, 800, "v", 24000], "trial": 7, "serialpos": 11, "trial_type": "single-stim", "trial_index": 264, "time_elapsed": 1499246, "internal_node_id": "0.0-192.0"}}, {"uniqueid": "MTK1005:3X1FV8S5JYYHK9XDQXCW2GXB351GVC", "current_trial": 265, "dateTime": 1513038965897, "trialdata": {"rt": -1, "stimulus": "<p id=\"stim\">TOMBSTONE</p>", "key_press": -1, "type": "PRES_VIS", "word": "tombstone", "wordID": 1477, "conditions": [24, 800, "v", 24000], "trial": 7, "serialpos": 12, "trial_type": "single-stim", "trial_index": 265, "time_elapsed": 1500913, "internal_node_id": "0.0-193.0"}}, {"uniqueid": "MTK1005:3X1FV8S5JYYHK9XDQXCW2GXB351GVC", "current_trial": 266, "dateTime": 1513038967855, "trialdata": {"rt": -1, "stimulus": "<p id=\"stim\">EGYPT</p>", "key_press": -1, "type": "PRES_VIS", "word": "egypt", "wordID": 518, "conditions": [24, 800, "v", 24000], "trial": 7, "serialpos": 13, "trial_type": "single-stim", "trial_index": 266, "time_elapsed": 1502871, "internal_node_id": "0.0-194.0"}}, {"uniqueid": "MTK1005:3X1FV8S5JYYHK9XDQXCW2GXB351GVC", "current_trial": 267, "dateTime": 1513038969743, "trialdata": {"rt": -1, "stimulus": "<p id=\"stim\">PORK</p>", "key_press": -1, "type": "PRES_VIS", "word": "pork", "wordID": 1107, "conditions": [24, 800, "v", 24000], "trial": 7, "serialpos": 14, "trial_type": "single-stim", "trial_index": 267, "time_elapsed": 1504759, "internal_node_id": "0.0-195.0"}}, {"uniqueid": "MTK1005:3X1FV8S5JYYHK9XDQXCW2GXB351GVC", "current_trial": 268, "dateTime": 1513038971346, "trialdata": {"rt": -1, "stimulus": "<p id=\"stim\">PEACH</p>", "key_press": -1, "type": "PRES_VIS", "word": "peach", "wordID": 1030, "conditions": [24, 800, "v", 24000], "trial": 7, "serialpos": 15, "trial_type": "single-stim", "trial_index": 268, "time_elapsed": 1506362, "internal_node_id": "0.0-196.0"}}, {"uniqueid": "MTK1005:3X1FV8S5JYYHK9XDQXCW2GXB351GVC", "current_trial": 269, "dateTime": 1513038973294, "trialdata": {"rt": -1, "stimulus": "<p id=\"stim\">CASKET</p>", "key_press": -1, "type": "PRES_VIS", "word": "casket", "wordID": 254, "conditions": [24, 800, "v", 24000], "trial": 7, "serialpos": 16, "trial_type": "single-stim", "trial_index": 269, "time_elapsed": 1508310, "internal_node_id": "0.0-197.0"}}, {"uniqueid": "MTK1005:3X1FV8S5JYYHK9XDQXCW2GXB351GVC", "current_trial": 270, "dateTime": 1513038975027, "trialdata": {"rt": -1, "stimulus": "<p id=\"stim\">LONDON</p>", "key_press": -1, "type": "PRES_VIS", "word": "london", "wordID": 842, "conditions": [24, 800, "v", 24000], "trial": 7, "serialpos": 17, "trial_type": "single-stim", "trial_index": 270, "time_elapsed": 1510043, "internal_node_id": "0.0-198.0"}}, {"uniqueid": "MTK1005:3X1FV8S5JYYHK9XDQXCW2GXB351GVC", "current_trial": 271, "dateTime": 1513038976688, "trialdata": {"rt": -1, "stimulus": "<p id=\"stim\">NEUTRON</p>", "key_press": -1, "type": "PRES_VIS", "word": "neutron", "wordID": 946, "conditions": [24, 800, "v", 24000], "trial": 7, "serialpos": 18, "trial_type": "single-stim", "trial_index": 271, "time_elapsed": 1511704, "internal_node_id": "0.0-199.0"}}, {"uniqueid": "MTK1005:3X1FV8S5JYYHK9XDQXCW2GXB351GVC", "current_trial": 272, "dateTime": 1513038978513, "trialdata