{"assignmentId": "3PS7W85Z809NS76G7W679HN3765T90", "workerId": "MTK2317", "questiondata": {"origin": "United States", "strat-rehearsal": "90", "marital": "Single", "education": "Associate degree", "ethnicity": "Not Hispanic", "color_depth": 24, "distracted": "No", "wrote-notes": "No", "strat-other": "", "screen_width": 1366, "avail_screen_width": 1366, "avail_screen_height": 728, "strat-image": "85", "language": "English", "gender": "Female", "age": "39", "gender_other": "", "race": ["Black"], "strat-categorize": "85", "pixel_depth": 24, "strat-spatial": "25", "strat-story": "50", "race_other": "", "screen_height": 768}, "bonus": 0, "hitId": "3T2HW4QDUVE4J66BV86FVNRF0OU9C0", "counterbalance": 2501, "useragent": "Mozilla/5.0 (Windows NT 10.0; Win64; x64) AppleWebKit/537.36 (KHTML, like Gecko) Chrome/63.0.3239.132 Safari/537.36", "eventdata": [{"eventtype": "initialized", "interval": 0, "value": null, "timestamp": 1516987480467}, {"eventtype": "window_resize", "interval": 0, "value": [1366, 721], "timestamp": 1516987480467}], "data": [{"current_trial": 0, "trialdata": {"rt": 2439, "trial_type": "text", "internal_node_id": "0.0-0.0", "time_elapsed": 2442, "key_press": 13, "type": "INSTRUCTIONS", "trial_index": 0}, "uniqueid": "MTK2317:3PS7W85Z809NS76G7W679HN3765T90", "dateTime": 1516987483527}, {"current_trial": 1, "trialdata": {"rt": 538954, "trial_type": "text", "internal_node_id": "0.0-1.0", "time_elapsed": 541399, "key_press": 13, "type": "INSTRUCTIONS", "trial_index": 1}, "uniqueid": "MTK2317:3PS7W85Z809NS76G7W679HN3765T90", "dateTime": 1516988022482}, {"current_trial": 2, "trialdata": {"rt": [10981], "trial_type": "audio-test", "responses": ["ocean"], "internal_node_id": "0.0-2.0", "time_elapsed": 552387, "type": "AUDIO_TEST", "trial_index": 2}, "uniqueid": "MTK2317:3PS7W85Z809NS76G7W679HN3765T90", "dateTime": 1516988033470}, {"current_trial": 3, "trialdata": {"rt": [8267], "trial_type": "audio-test", "responses": ["crystal"], "internal_node_id": "0.0-3.0", "time_elapsed": 560659, "type": "AUDIO_TEST", "trial_index": 3}, "uniqueid": "MTK2317:3PS7W85Z809NS76G7W679HN3765T90", "dateTime": 1516988041742}, {"current_trial": 4, "trialdata": {"rt": [6296], "trial_type": "audio-test", "responses": ["spice"], "internal_node_id": "0.0-4.0", "time_elapsed": 566959, "type": "AUDIO_TEST", "trial_index": 4}, "uniqueid": "MTK2317:3PS7W85Z809NS76G7W679HN3765T90", "dateTime": 1516988048042}, {"current_trial": 5, "trialdata": {"rt": 25208, "trial_type": "survey-text", "responses": "{\"Q0\":\"11:30pm\",\"Q1\":\"9:00am\",\"Q2\":\"5\"}", "internal_node_id": "0.0-5.0", "time_elapsed": 592921, "type": "SLEEP_SURVEY", "trial_index": 5}, "uniqueid": "MTK2317:3PS7W85Z809NS76G7W679HN3765T90", "dateTime": 1516988074004}, {"current_trial": 6, "trialdata": {"rt": 29990, "trial_type": "text", "internal_node_id": "0.0-6.0", "time_elapsed": 623913, "key_press": 13, "type": "INSTRUCTIONS", "trial_index": 6}, "uniqueid": "MTK2317:3PS7W85Z809NS76G7W679HN3765T90", "dateTime": 1516988104996}, {"current_trial": 7, "trialdata": {"rt": 16049, "trial_type": "text", "internal_node_id": "0.0-7.0", "time_elapsed": 640464, "key_press": 13, "type": "INSTRUCTIONS", "trial_index": 7}, "uniqueid": "MTK2317:3PS7W85Z809NS76G7W679HN3765T90", "dateTime": 1516988121547}, {"current_trial": 8, "trialdata": {"rt": 4956, "trial_type": "text", "internal_node_id": "0.0-8.0", "time_elapsed": 645921, "key_press": 13, "type": "INSTRUCTIONS", "trial_index": 8}, "uniqueid": "MTK2317:3PS7W85Z809NS76G7W679HN3765T90", "dateTime": 1516988127004}, {"current_trial": 9, "trialdata": {"rt": [4712, 8723, 11041, 13620, 16827], "trial_type": "math-distractor", "key_times": [3954, 4157, 4712, 8350, 8505, 8723, 10693, 10831, 11041, 13295, 13432, 13620, 16504, 16639, 16827], "responses": ["17", "16", "15", "11", "16"], "num2": [2, 4, 3, 4, 3, 5], "num3": [9, 3, 5, 5, 5, 7], "conditions": [18, 1200, "v", 18000], "internal_node_id": "0.0-9.0", "key_presses": [97, 103, 13, 97, 102, 13, 97, 101, 13, 97, 97, 13, 97, 102, 13], "trial": 0, "time_elapsed": 664933, "type": "DISTRACTOR", "trial_index": 9, "num1": [6, 9, 7, 2, 8, 2]}, "uniqueid": "MTK2317:3PS7W85Z809NS76G7W679HN3765T90", "dateTime": 1516988146016}, {"current_trial": 10, "trialdata": {"rt": -1, "trial_type": "single-stim", "stimulus": "<p id=\"stim\">10</p>", "internal_node_id": "0.0-10.0-0.0", "time_elapsed": 667938, "key_press": -1, "trial_index": 10}, "uniqueid": "MTK2317:3PS7W85Z809NS76G7W679HN3765T90", "dateTime": 1516988149021}, {"current_trial": 11, "trialdata": {"rt": -1, "trial_type": "single-stim", "stimulus": "<p id=\"stim\">9</p>", "internal_node_id": "0.0-10.0-1.0", "time_elapsed": 668941, "key_press": -1, "trial_index": 11}, "uniqueid": "MTK2317:3PS7W85Z809NS76G7W679HN3765T90", "dateTime": 1516988150024}, {"current_trial": 12, "trialdata": {"rt": -1, "trial_type": "single-stim", "stimulus": "<p id=\"stim\">8</p>", "internal_node_id": "0.0-10.0-2.0", "time_elapsed": 669943, "key_press": -1, "trial_index": 12}, "uniqueid": "MTK2317:3PS7W85Z809NS76G7W679HN3765T90", "dateTime": 1516988151026}, {"current_trial": 13, "trialdata": {"rt": 85, "trial_type": "single-stim", "stimulus": "<p id=\"stim\">7</p>", "internal_node_id": "0.0-10.0-3.0", "time_elapsed": 670946, "key_press": 13, "trial_index": 13}, "uniqueid": "MTK2317:3PS7W85Z809NS76G7W679HN3765T90", "dateTime": 1516988152029}, {"current_trial": 14, "trialdata": {"rt": -1, "trial_type": "single-stim", "stimulus": "<p id=\"stim\">6</p>", "internal_node_id": "0.0-10.0-4.0", "time_elapsed": 671949, "key_press": -1, "trial_index": 14}, "uniqueid": "MTK2317:3PS7W85Z809NS76G7W679HN3765T90", "dateTime": 1516988153032}, {"current_trial": 15, "trialdata": {"rt": -1, "trial_type": "single-stim", "stimulus": "<p id=\"stim\">5</p>", "internal_node_id": "0.0-10.0-5.0", "time_elapsed": 672950, "key_press": -1, "trial_index": 15}, "uniqueid": "MTK2317:3PS7W85Z809NS76G7W679HN3765T90", "dateTime": 1516988154034}, {"current_trial": 16, "trialdata": {"rt": -1, "trial_type": "single-stim", "stimulus": "<p id=\"stim\">4</p>", "internal_node_id": "0.0-10.0-6.0", "time_elapsed": 673953, "key_press": -1, "trial_index": 16}, "uniqueid": "MTK2317:3PS7W85Z809NS76G7W679HN3765T90", "dateTime": 1516988155036}, {"current_trial": 17, "trialdata": {"rt": -1, "trial_type": "single-stim", "stimulus": "<p id=\"stim\">3</p>", "internal_node_id": "0.0-10.0-7.0", "time_elapsed": 674957, "key_press": -1, "trial_index": 17}, "uniqueid": "MTK2317:3PS7W85Z809NS76G7W679HN3765T90", "dateTime": 1516988156040}, {"current_trial": 18, "trialdata": {"rt": -1, "trial_type": "single-stim", "stimulus": "<p id=\"stim\">2</p>", "internal_node_id": "0.0-10.0-8.0", "time_elapsed": 675958, "key_press": -1, "trial_index": 18}, "uniqueid": "MTK2317:3PS7W85Z809NS76G7W679HN3765T90", "dateTime": 1516988157041}, {"current_trial": 19, "trialdata": {"rt": -1, "trial_type": "single-stim", "stimulus": "<p id=\"stim\">1</p>", "internal_node_id": "0.0-10.0-9.0", "time_elapsed": 676960, "key_press": -1, "trial_index": 19}, "uniqueid": "MTK2317:3PS7W85Z809NS76G7W679HN3765T90", "dateTime": 1516988158043}, {"current_trial": 20, "trialdata": {"rt": -1, "trial_type": "single-stim", "stimulus": "<p id=\"stim\">+</p>", "internal_node_id": "0.0-11.0-0.0", "time_elapsed": 678462, "key_press": -1, "type": "FIXATION", "trial_index": 20}, "uniqueid": "MTK2317:3PS7W85Z809NS76G7W679HN3765T90", "dateTime": 1516988159545}, {"current_trial": 21, "trialdata": {"rt": -1, "trial_type": "single-stim", "word": "napkin", "stimulus": "<p id=\"stim\">NAPKIN</p>", "conditions": [18, 1200, "v", 18000], "internal_node_id": "0.0-12.0", "trial": 0, "time_elapsed": 679664, "serialpos": 0, "key_press": -1, "wordID": 936, "type": "PRES_VIS", "trial_index": 21}, "uniqueid": "MTK2317:3PS7W85Z809NS76G7W679HN3765T90", "dateTime": 1516988160748}, {"current_trial": 22, "trialdata": {"rt": -1, "trial_type": "single-stim", "word": "diver", "stimulus": "<p id=\"stim\">DIVER</p>", "conditions": [18, 1200, "v", 18000], "internal_node_id": "0.0-13.0", "trial": 0, "time_elapsed": 681900, "serialpos": 1, "key_press": -1, "wordID": 475, "type": "PRES_VIS", "trial_index": 22}, "uniqueid": "MTK2317:3PS7W85Z809NS76G7W679HN3765T90", "dateTime": 1516988162983}, {"current_trial": 23, "trialdata": {"rt": -1, "trial_type": "single-stim", "word": "brook", "stimulus": "<p id=\"stim\">BROOK</p>", "conditions": [18, 1200, "v", 18000], "internal_node_id": "0.0-14.0", "trial": 0, "time_elapsed": 684011, "serialpos": 2, "key_press": -1, "wordID": 176, "type": "PRES_VIS", "trial_index": 23}, "uniqueid": "MTK2317:3PS7W85Z809NS76G7W679HN3765T90", "dateTime": 1516988165094}, {"current_trial": 24, "trialdata": {"rt": -1, "trial_type": "single-stim", "word": "hatchet", "stimulus": "<p id=\"stim\">HATCHET</p>", "conditions": [18, 1200, "v", 18000], "internal_node_id": "0.0-15.0", "trial": 0, "time_elapsed": 686124, "serialpos": 3, "key_press": -1, "wordID": 690, "type": "PRES_VIS", "trial_index": 24}, "uniqueid": "MTK2317:3PS7W85Z809NS76G7W679HN3765T90", "dateTime": 1516988167207}, {"current_trial": 25, "trialdata": {"rt": -1, "trial_type": "single-stim", "word": "child", "stimulus": "<p id=\"stim\">CHILD</p>", "conditions": [18, 1200, "v", 18000], "internal_node_id": "0.0-16.0", "trial": 0, "time_elapsed": 688150, "serialpos": 4, "key_press": -1, "wordID": 298, "type": "PRES_VIS", "trial_index": 25}, "uniqueid": "MTK2317:3PS7W85Z809NS76G7W679HN3765T90", "dateTime": 1516988169233}, {"current_trial": 26, "trialdata": {"rt": -1, "trial_type": "single-stim", "word": "blender", "stimulus": "<p id=\"stim\">BLENDER</p>", "conditions": [18, 1200, "v", 18000], "internal_node_id": "0.0-17.0", "trial": 0, "time_elapsed": 690366, "serialpos": 5, "key_press": -1, "wordID": 135, "type": "PRES_VIS", "trial_index": 26}, "uniqueid": "MTK2317:3PS7W85Z809NS76G7W679HN3765T90", "dateTime": 1516988171449}, {"current_trial": 27, "trialdata": {"rt": -1, "trial_type": "single-stim", "word": "outlaw", "stimulus": "<p id=\"stim\">OUTLAW</p>", "conditions": [18, 1200, "v", 18000], "internal_node_id": "0.0-18.0", "trial": 0, "time_elapsed": 692617, "serialpos": 6, "key_press": -1, "wordID": 988, "type": "PRES_VIS", "trial_index": 27}, "uniqueid": "MTK2317:3PS7W85Z809NS76G7W679HN3765T90", "dateTime": 1516988173701}, {"current_trial": 28, "trialdata": {"rt": -1, "trial_type": "single-stim", "word": "gazelle", "stimulus": "<p id=\"stim\">GAZELLE</p>", "conditions": [18, 1200, "v", 18000], "internal_node_id": "0.0-19.0", "trial": 0, "time_elapsed": 694929, "serialpos": 7, "key_press": -1, "wordID": 627, "type": "PRES_VIS", "trial_index": 28}, "uniqueid": "MTK2317:3PS7W85Z809NS76G7W679HN3765T90", "dateTime": 1516988176013}, {"current_trial": 29, "trialdata": {"rt": -1, "trial_type": "single-stim", "word": "flask", "stimulus": "<p id=\"stim\">FLASK</p>", "conditions": [18, 1200, "v", 18000], "internal_node_id": "0.0-20.0", "trial": 0, "time_elapsed": 697198, "serialpos": 8, "key_press": -1, "wordID": 575, "type": "PRES_VIS", "trial_index": 29}, "uniqueid": "MTK2317:3PS7W85Z809NS76G7W679HN3765T90", "dateTime": 1516988178282}, {"current_trial": 30, "trialdata": {"rt": -1, "trial_type": "single-stim", "word": "plaid", "stimulus": "<p id=\"stim\">PLAID</p>", "conditions": [18, 1200, "v", 18000], "internal_node_id": "0.0-21.0", "trial": 0, "time_elapsed": 699326, "serialpos": 9, "key_press": -1, "wordID": 1079, "type": "PRES_VIS", "trial_index": 30}, "uniqueid": "MTK2317:3PS7W85Z809NS76G7W679HN3765T90", "dateTime": 1516988180409}, {"current_trial": 31, "trialdata": {"rt": -1, "trial_type": "single-stim", "word": "flag", "stimulus": "<p id=\"stim\">FLAG</p>", "conditions": [18, 1200, "v", 18000], "internal_node_id": "0.0-22.0", "trial": 0, "time_elapsed": 701716, "serialpos": 10, "key_press": -1, "wordID": 572, "type": "PRES_VIS", "trial_index": 31}, "uniqueid": "MTK2317:3PS7W85Z809NS76G7W679HN3765T90", "dateTime": 1516988182800}, {"current_trial": 32, "trialdata": {"rt": -1, "trial_type": "single-stim", "word": "pork", "stimulus": "<p id=\"stim\">PORK</p>", "conditions": [18, 1200, "v", 18000], "internal_node_id": "0.0-23.0", "trial": 0, "time_elapsed": 703948, "serialpos": 11, "key_press": -1, "wordID": 1107, "type": "PRES_VIS", "trial_index": 32}, "uniqueid": "MTK2317:3PS7W85Z809NS76G7W679HN3765T90", "dateTime": 1516988185031}, {"current_trial": 33, "trialdata": {"rt": -1, "trial_type": "single-stim", "word": "perch", "stimulus": "<p id=\"stim\">PERCH</p>", "conditions": [18, 1200, "v", 18000], "internal_node_id": "0.0-24.0", "trial": 0, "time_elapsed": 706006, "serialpos": 12, "key_press": -1, "wordID": 1047, "type": "PRES_VIS", "trial_index": 33}, "uniqueid": "MTK2317:3PS7W85Z809NS76G7W679HN3765T90", "dateTime": 1516988187090}, {"current_trial": 34, "trialdata": {"rt": -1, "trial_type": "single-stim", "word": "wagon", "stimulus": "<p id=\"stim\">WAGON</p>", "conditions": [18, 1200, "v", 18000], "internal_node_id": "0.0-25.0", "trial": 0, "time_elapsed": 708075, "serialpos": 13, "key_press": -1, "wordID": 1577, "type": "PRES_VIS", "trial_index": 34}, "uniqueid": "MTK2317:3PS7W85Z809NS76G7W679HN3765T90", "dateTime": 1516988189158}, {"current_trial": 35, "trialdata": {"rt": -1, "trial_type": "single-stim", "word": "camel", "stimulus": "<p id=\"stim\">CAMEL</p>", "conditions": [18, 1200, "v", 18000], "internal_node_id": "0.0-26.0", "trial": 0, "time_elapsed": 710349, "serialpos": 14, "key_press": -1, "wordID": 222, "type": "PRES_VIS", "trial_index": 35}, "uniqueid": "MTK2317:3PS7W85Z809NS76G7W679HN3765T90", "dateTime": 1516988191432}, {"current_trial": 36, "trialdata": {"rt": -1, "trial_type": "single-stim", "word": "pliers", "stimulus": "<p id=\"stim\">PLIERS</p>", "conditions": [18, 1200, "v", 18000], "internal_node_id": "0.0-27.0", "trial": 0, "time_elapsed": 712532, "serialpos": 15, "key_press": -1, "wordID": 1088, "type": "PRES_VIS", "trial_index": 36}, "uniqueid": "MTK2317:3PS7W85Z809NS76G7W679HN3765T90", "dateTime": 1516988193616}, {"current_trial": 37, "trialdata": {"rt": -1, "trial_type": "single-stim", "word": "breast", "stimulus": "<p id=\"stim\">BREAST</p>", "conditions": [18, 1200, "v", 18000], "internal_node_id": "0.0-28.0", "trial": 0, "time_elapsed": 714707, "serialpos": 16, "key_press": -1, "wordID": 170, "type": "PRES_VIS", "trial_index": 37}, "uniqueid": "MTK2317:3PS7W85Z809NS76G7W679HN3765T90", "dateTime": 1516988195790}, {"current_trial": 38, "trialdata": {"rt": -1, "trial_type": "single-stim", "word": "shelter", "stimulus": "<p id=\"stim\">SHELTER</p>", "conditions": [18, 1200, "v", 18000], "internal_node_id": "0.0-29.0", "trial": 0, "time_elapsed": 716875, "serialpos": 17, "key_press": -1, "wordID": 1281, "type": "PRES_VIS", "trial_index": 38}, "uniqueid": "MTK2317:3PS7W85Z809NS76G7W679HN3765T90", "dateTime": 1516988197958}, {"current_trial": 39, "trialdata": {"rt": -1, "trial_type": "single-stim", "stimulus": "", "internal_node_id": "0.0-30.0-0.0", "time_elapsed": 719184, "key_press": -1, "type": "PRE_RECALL_DELAY", "trial_index": 39}, "uniqueid": "MTK2317:3PS7W85Z809NS76G7W679HN3765T90", "dateTime": 1516988200267}, {"current_trial": 40, "trialdata": {"rt": -1000, "trial_type": "single-audio", "stimulus": "/static/audio/400Hz.wav", "internal_node_id": "0.0-31.0", "time_elapsed": 719688, "key_press": -1, "type": "PRE_RECALL_ALERT", "trial_index": 40}, "uniqueid": "MTK2317:3PS7W85Z809NS76G7W679HN3765T90", "dateTime": 1516988200771}, {"current_trial": 41, "trialdata": {"rt": [1847, 3432, 4628, 6090, 9269, 12290, 13877, 16554, 19621, 23435, 33547, 37118, 40429], "recwords": ["napkin", "diver", "brook", "flag", "breat", "naplin", "flask", "napkin", "perch", "hatchett", "dive", "driver", "brook"], "key_times": [718, 814, 1008, 1233, 1458, 1631, 1847, 2401, 2820, 2955, 3108, 3230, 3432, 3701, 3899, 3981, 4118, 4318, 4628, 5456, 5597, 5699, 5934, 6090, 6880, 7112, 7276, 7572, 8284, 8461, 8650, 8784, 9072, 9269, 10882, 10984, 11262, 11811, 11981, 12122, 12290, 12966, 13155, 13273, 13430, 13588, 13877, 15525, 15751, 15836, 16082, 16248, 16398, 16554, 18672, 18779, 18902, 19270, 19406, 19621, 22120, 22240, 22414, 22675, 22789, 22949, 23168, 23305, 23435, 27729, 27852, 27994, 28504, 28829, 28945, 32068, 32376, 32681, 33172, 33218, 33375, 33547, 36267, 36417, 36571, 36671, 36838, 36978, 37118, 38048, 38229, 38237, 38435, 38597, 38964, 39125, 39280, 39401, 39512, 39663, 39824, 40101, 40429], "trial_type": "free-recall", "conditions": [18, 1200, "v", 18000], "internal_node_id": "0.0-32.0-0.0", "key_presses": [78, 65, 80, 75, 73, 78, 13, 68, 73, 86, 69, 82, 13, 66, 82, 79, 79, 75, 13, 70, 76, 65, 71, 13, 66, 82, 65, 83, 8, 8, 69, 65, 84, 13, 78, 65, 80, 76, 73, 78, 13, 70, 76, 65, 83, 75, 13, 78, 65, 80, 75, 73, 78, 13, 80, 69, 82, 67, 72, 13, 72, 65, 84, 67, 72, 69, 84, 84, 13, 67, 72, 73, 8, 8, 8, 68, 73, 69, 8, 86, 69, 13, 68, 82, 73, 86, 69, 82, 13, 66, 84, 82, 79, 79, 8, 8, 8, 8, 82, 79, 79, 75, 13], "trial": 0, "time_elapsed": 779693, "type": "FREE_RECALL", "trial_index": 41}, "uniqueid": "MTK2317:3PS7W85Z809NS76G7W679HN3765T90", "dateTime": 1516988260788}, {"current_trial": 42, "trialdata": {"rt": 3518, "trial_type": "text", "internal_node_id": "0.0-33.0", "time_elapsed": 785225, "key_press": 13, "type": "INSTRUCTIONS", "trial_index": 42}, "uniqueid": "MTK2317:3PS7W85Z809NS76G7W679HN3765T90", "dateTime": 1516988266308}, {"current_trial": 43, "trialdata": {"rt": [5050, 11279, 13494, 15395], "trial_type": "math-distractor", "key_times": [4344, 4516, 5050, 10640, 10790, 11279, 13284, 13494, 15039, 15186, 15395, 17757, 17881], "responses": ["21", "19", "8", "19"], "num2": [7, 5, 5, 4, 3], "num3": [5, 6, 1, 9, 4], "conditions": [18, 1200, "v", 18000], "internal_node_id": "0.0-34.0", "key_presses": [98, 97, 13, 97, 105, 13, 104, 13, 97, 105, 13, 97, 102], "trial": 1, "time_elapsed": 805234, "type": "DISTRACTOR", "trial_index": 43, "num1": [9, 8, 2, 6, 9]}, "uniqueid": "MTK2317:3PS7W85Z809NS76G7W679HN3765T90", "dateTime": 1516988286317}, {"current_trial": 44, "trialdata": {"rt": -1, "trial_type": "single-stim", "stimulus": "<p id=\"stim\">10</p>", "internal_node_id": "0.0-35.0-0.0", "time_elapsed": 808239, "key_press": -1, "trial_index": 44}, "uniqueid": "MTK2317:3PS7W85Z809NS76G7W679HN3765T90", "dateTime": 1516988289322}, {"current_trial": 45, "trialdata": {"rt": -1, "trial_type": "single-stim", "stimulus": "<p id=\"stim\">9</p>", "internal_node_id": "0.0-35.0-1.0", "time_elapsed": 809241, "key_press": -1, "trial_index": 45}, "uniqueid": "MTK2317:3PS7W85Z809NS76G7W679HN3765T90", "dateTime": 1516988290325}, {"current_trial": 46, "trialdata": {"rt": -1, "trial_type": "single-stim", "stimulus": "<p id=\"stim\">8</p>", "internal_node_id": "0.0-35.0-2.0", "time_elapsed": 810244, "key_press": -1, "trial_index": 46}, "uniqueid": "MTK2317:3PS7W85Z809NS76G7W679HN3765T90", "dateTime": 1516988291327}, {"current_trial": 47, "trialdata": {"rt": -1, "trial_type": "single-stim", "stimulus": "<p id=\"stim\">7</p>", "internal_node_id": "0.0-35.0-3.0", "time_elapsed": 811247, "key_press": -1, "trial_index": 47}, "uniqueid": "MTK2317:3PS7W85Z809NS76G7W679HN3765T90", "dateTime": 1516988292330}, {"current_trial": 48, "trialdata": {"rt": -1, "trial_type": "single-stim", "stimulus": "<p id=\"stim\">6</p>", "internal_node_id": "0.0-35.0-4.0", "time_elapsed": 812248, "key_press": -1, "trial_index": 48}, "uniqueid": "MTK2317:3PS7W85Z809NS76G7W679HN3765T90", "dateTime": 1516988293332}, {"current_trial": 49, "trialdata": {"rt": -1, "trial_type": "single-stim", "stimulus": "<p id=\"stim\">5</p>", "internal_node_id": "0.0-35.0-5.0", "time_elapsed": 813250, "key_press": -1, "trial_index": 49}, "uniqueid": "MTK2317:3PS7W85Z809NS76G7W679HN3765T90", "dateTime": 1516988294334}, {"current_trial": 50, "trialdata": {"rt": -1, "trial_type": "single-stim", "stimulus": "<p id=\"stim\">4</p>", "internal_node_id": "0.0-35.0-6.0", "time_elapsed": 814252, "key_press": -1, "trial_index": 50}, "uniqueid": "MTK2317:3PS7W85Z809NS76G7W679HN3765T90", "dateTime": 1516988295336}, {"current_trial": 51, "trialdata": {"rt": -1, "trial_type": "single-stim", "stimulus": "<p id=\"stim\">3</p>", "internal_node_id": "0.0-35.0-7.0", "time_elapsed": 815255, "key_press": -1, "trial_index": 51}, "uniqueid": "MTK2317:3PS7W85Z809NS76G7W679HN3765T90", "dateTime": 1516988296338}, {"current_trial": 52, "trialdata": {"rt": -1, "trial_type": "single-stim", "stimulus": "<p id=\"stim\">2</p>", "internal_node_id": "0.0-35.0-8.0", "time_elapsed": 816257, "key_press": -1, "trial_index": 52}, "uniqueid": "MTK2317:3PS7W85Z809NS76G7W679HN3765T90", "dateTime": 1516988297340}, {"current_trial": 53, "trialdata": {"rt": -1, "trial_type": "single-stim", "stimulus": "<p id=\"stim\">1</p>", "internal_node_id": "0.0-35.0-9.0", "time_elapsed": 817258, "key_press": -1, "trial_index": 53}, "uniqueid": "MTK2317:3PS7W85Z809NS76G7W679HN3765T90", "dateTime": 1516988298342}, {"current_trial": 54, "trialdata": {"rt": -1, "trial_type": "single-stim", "stimulus": "<p id=\"stim\">+</p>", "internal_node_id": "0.0-36.0-0.0", "time_elapsed": 818761, "key_press": -1, "type": "FIXATION", "trial_index": 54}, "uniqueid": "MTK2317:3PS7W85Z809NS76G7W679HN3765T90", "dateTime": 1516988299845}, {"current_trial": 55, "trialdata": {"rt": -1, "trial_type": "single-stim", "word": "badge", "stimulus": "<p id=\"stim\">BADGE</p>", "conditions": [18, 1200, "v", 18000], "internal_node_id": "0.0-37.0", "trial": 1, "time_elapsed": 819964, "serialpos": 0, "key_press": -1, "wordID": 67, "type": "PRES_VIS", "trial_index": 55}, "uniqueid": "MTK2317:3PS7W85Z809NS76G7W679HN3765T90", "dateTime": 1516988301047}, {"current_trial": 56, "trialdata": {"rt": -1, "trial_type": "single-stim", "word": "couch", "stimulus": "<p id=\"stim\">COUCH</p>", "conditions": [18, 1200, "v", 18000], "internal_node_id": "0.0-38.0", "trial": 1, "time_elapsed": 822364, "serialpos": 1, "key_press": -1, "wordID": 385, "type": "PRES_VIS", "trial_index": 56}, "uniqueid": "MTK2317:3PS7W85Z809NS76G7W679HN3765T90", "dateTime": 1516988303447}, {"current_trial": 57, "trialdata": {"rt": -1, "trial_type": "single-stim", "word": "scribble", "stimulus": "<p id=\"stim\">SCRIBBLE</p>", "conditions": [18, 1200, "v", 18000], "internal_node_id": "0.0-39.0", "trial": 1, "time_elapsed": 824442, "serialpos": 2, "key_press": -1, "wordID": 1255, "type": "PRES_VIS", "trial_index": 57}, "uniqueid": "MTK2317:3PS7W85Z809NS76G7W679HN3765T90", "dateTime": 1516988305525}, {"current_trial": 58, "trialdata": {"rt": -1, "trial_type": "single-stim", "word": "snack", "stimulus": "<p id=\"stim\">SNACK</p>", "conditions": [18, 1200, "v", 18000], "internal_node_id": "0.0-40.0", "trial": 1, "time_elapsed": 826650, "serialpos": 3, "key_press": -1, "wordID": 1330, "type": "PRES_VIS", "trial_index": 58}, "uniqueid": "MTK2317:3PS7W85Z809NS76G7W679HN3765T90", "dateTime": 1516988307733}, {"current_trial": 59, "trialdata": {"rt": -1, "trial_type": "single-stim", "word": "wife", "stimulus": "<p id=\"stim\">WIFE</p>", "conditions": [18, 1200, "v", 18000], "internal_node_id": "0.0-41.0", "trial": 1, "time_elapsed": 829018, "serialpos": 4, "key_press": -1, "wordID": 1608, "type": "PRES_VIS", "trial_index": 59}, "uniqueid": "MTK2317:3PS7W85Z809NS76G7W679HN3765T90", "dateTime": 1516988310102}, {"current_trial": 60, "trialdata": {"rt": -1, "trial_type": "single-stim", "word": "radish", "stimulus": "<p id=\"stim\">RADISH</p>", "conditions": [18, 1200, "v", 18000], "internal_node_id": "0.0-42.0", "trial": 1, "time_elapsed": 831192, "serialpos": 5, "key_press": -1, "wordID": 1157, "type": "PRES_VIS", "trial_index": 60}, "uniqueid": "MTK2317:3PS7W85Z809NS76G7W679HN3765T90", "dateTime": 1516988312275}, {"current_trial": 61, "trialdata": {"rt": -1, "trial_type": "single-stim", "word": "dustpan", "stimulus": "<p id=\"stim\">DUSTPAN</p>", "conditions": [18, 1200, "v", 18000], "internal_node_id": "0.0-43.0", "trial": 1, "time_elapsed": 833212, "serialpos": 6, "key_press": -1, "wordID": 508, "type": "PRES_VIS", "trial_index": 61}, "uniqueid": "MTK2317:3PS7W85Z809NS76G7W679HN3765T90", "dateTime": 1516988314295}, {"current_trial": 62, "trialdata": {"rt": -1, "trial_type": "single-stim", "word": "banjo", "stimulus": "<p id=\"stim\">BANJO</p>", "conditions": [18, 1200, "v", 18000], "internal_node_id": "0.0-44.0", "trial": 1, "time_elapsed": 835320, "serialpos": 7, "key_press": -1, "wordID": 81, "type": "PRES_VIS", "trial_index": 62}, "uniqueid": "MTK2317:3PS7W85Z809NS76G7W679HN3765T90", "dateTime": 1516988316404}, {"current_trial": 63, "trialdata": {"rt": -1, "trial_type": "single-stim", "word": "ground", "stimulus": "<p id=\"stim\">GROUND</p>", "conditions": [18, 1200, "v", 18000], "internal_node_id": "0.0-45.0", "trial": 1, "time_elapsed": 837402, "serialpos": 8, "key_press": -1, "wordID": 665, "type": "PRES_VIS", "trial_index": 63}, "uniqueid": "MTK2317:3PS7W85Z809NS76G7W679HN3765T90", "dateTime": 1516988318485}, {"current_trial": 64, "trialdata": {"rt": -1, "trial_type": "single-stim", "word": "cross", "stimulus": "<p id=\"stim\">CROSS</p>", "conditions": [18, 1200, "v", 18000], "internal_node_id": "0.0-46.0", "trial": 1, "time_elapsed": 839755, "serialpos": 9, "key_press": -1, "wordID": 412, "type": "PRES_VIS", "trial_index": 64}, "uniqueid": "MTK2317:3PS7W85Z809NS76G7W679HN3765T90", "dateTime": 1516988320838}, {"current_trial": 65, "trialdata": {"rt": -1, "trial_type": "single-stim", "word": "frame", "stimulus": "<p id=\"stim\">FRAME</p>", "conditions": [18, 1200, "v", 18000], "internal_node_id": "0.0-47.0", "trial": 1, "time_elapsed": 841991, "serialpos": 10, "key_press": -1, "wordID": 599, "type": "PRES_VIS", "trial_index": 65}, "uniqueid": "MTK2317:3PS7W85Z809NS76G7W679HN3765T90", "dateTime": 1516988323075}, {"current_trial": 66, "trialdata": {"rt": -1, "trial_type": "single-stim", "word": "ozone", "stimulus": "<p id=\"stim\">OZONE</p>", "conditions": [18, 1200, "v", 18000], "internal_node_id": "0.0-48.0", "trial": 1, "time_elapsed": 844370, "serialpos": 11, "key_press": -1, "wordID": 995, "type": "PRES_VIS", "trial_index": 66}, "uniqueid": "MTK2317:3PS7W85Z809NS76G7W679HN3765T90", "dateTime": 1516988325453}, {"current_trial": 67, "trialdata": {"rt": -1, "trial_type": "single-stim", "word": "report", "stimulus": "<p id=\"stim\">REPORT</p>", "conditions": [18, 1200, "v", 18000], "internal_node_id": "0.0-49.0", "trial": 1, "time_elapsed": 846450, "serialpos": 12, "key_press": -1, "wordID": 1183, "type": "PRES_VIS", "trial_index": 67}, "uniqueid": "MTK2317:3PS7W85Z809NS76G7W679HN3765T90", "dateTime": 1516988327533}, {"current_trial": 68, "trialdata": {"rt": -1, "trial_type": "single-stim", "word": "bank", "stimulus": "<p id=\"stim\">BANK</p>", "conditions": [18, 1200, "v", 18000], "internal_node_id": "0.0-50.0", "trial": 1, "time_elapsed": 848490, "serialpos": 13, "key_press": -1, "wordID": 82, "type": "PRES_VIS", "trial_index": 68}, "uniqueid": "MTK2317:3PS7W85Z809NS76G7W679HN3765T90", "dateTime": 1516988329573}, {"current_trial": 69, "trialdata": {"rt": -1, "trial_type": "single-stim", "word": "balloon", "stimulus": "<p id=\"stim\">BALLOON</p>", "conditions": [18, 1200, "v", 18000], "internal_node_id": "0.0-51.0", "trial": 1, "time_elapsed": 850692, "serialpos": 14, "key_press": -1, "wordID": 74, "type": "PRES_VIS", "trial_index": 69}, "uniqueid": "MTK2317:3PS7W85Z809NS76G7W679HN3765T90", "dateTime": 1516988331775}, {"current_trial": 70, "trialdata": {"rt": -1, "trial_type": "single-stim", "word": "sphinx", "stimulus": "<p id=\"stim\">SPHINX</p>", "conditions": [18, 1200, "v", 18000], "internal_node_id": "0.0-52.0", "trial": 1, "time_elapsed": 852915, "serialpos": 15, "key_press": -1, "wordID": 1348, "type": "PRES_VIS", "trial_index": 70}, "uniqueid": "MTK2317:3PS7W85Z809NS76G7W679HN3765T90", "dateTime": 1516988333998}, {"current_trial": 71, "trialdata": {"rt": -1, "trial_type": "single-stim", "word": "banquet", "stimulus": "<p id=\"stim\">BANQUET</p>", "conditions": [18, 1200, "v", 18000], "internal_node_id": "0.0-53.0", "trial": 1, "time_elapsed": 855229, "serialpos": 16, "key_press": -1, "wordID": 85, "type": "PRES_VIS", "trial_index": 71}, "uniqueid": "MTK2317:3PS7W85Z809NS76G7W679HN3765T90", "dateTime": 1516988336312}, {"current_trial": 72, "trialdata": {"rt": -1, "trial_type": "single-stim", "word": "globe", "stimulus": "<p id=\"stim\">GLOBE</p>", "conditions": [18, 1200, "v", 18000], "internal_node_id": "0.0-54.0", "trial": 1, "time_elapsed": 857242, "serialpos": 17, "key_press": -1, "wordID": 640, "type": "PRES_VIS", "trial_index": 72}, "uniqueid": "MTK2317:3PS7W85Z809NS76G7W679HN3765T90", "dateTime": 1516988338326}, {"current_trial": 73, "trialdata": {"rt": -1, "trial_type": "single-stim", "stimulus": "", "internal_node_id": "0.0-55.0-0.0", "time_elapsed": 859604, "key_press": -1, "type": "PRE_RECALL_DELAY", "trial_index": 73}, "uniqueid": "MTK2317:3PS7W85Z809NS76G7W679HN3765T90", "dateTime": 1516988340687}, {"current_trial": 74, "trialdata": {"rt": -1000, "trial_type": "single-audio", "stimulus": "/static/audio/400Hz.wav", "internal_node_id": "0.0-56.0", "time_elapsed": 860107, "key_press": -1, "type": "PRE_RECALL_ALERT", "trial_index": 74}, "uniqueid": "MTK2317:3PS7W85Z809NS76G7W679HN3765T90", "dateTime": 1516988341190}, {"current_trial": 75, "trialdata": {"rt": [1716, 3311, 6952, 8098, 10485, 13385, 15189, 20196, 26754, 33109], "recwords": ["badge", "couch", "scribble", "snack", "couch", "bank", "dribble", "frame", "sphinx", "flad"], "key_times": [520, 626, 885, 1159, 1304, 1716, 2180, 2273, 2397, 2944, 3082, 3311, 3607, 3754, 3958, 4075, 4544, 4765, 4900, 5604, 5756, 6570, 6688, 6791, 6952, 7282, 7484, 7565, 7766, 7869, 8098, 9198, 9287, 9375, 10033, 10192, 10485, 12754, 12859, 12999, 13151, 13385, 14282, 14432, 14524, 14704, 14841, 14925, 15042, 15189, 19494, 19631, 19747, 19904, 20035, 20196, 22617, 23060, 24146, 24565, 24814, 25118, 25643, 25851, 25982, 26652, 26754, 32226, 32334, 32378, 32894, 33109, 59845], "trial_type": "free-recall", "conditions": [18, 1200, "v", 18000], "internal_node_id": "0.0-57.0-0.0", "key_presses": [66, 65, 68, 71, 69, 13, 67, 79, 85, 67, 72, 13, 83, 67, 82, 73, 66, 76, 69, 8, 8, 66, 76, 69, 13, 83, 78, 65, 67, 75, 13, 67, 79, 85, 67, 72, 13, 66, 65, 78, 75, 13, 68, 82, 73, 66, 66, 76, 69, 13, 70, 82, 65, 77, 69, 13, 83, 72, 8, 80, 72, 78, 8, 73, 78, 88, 13, 70, 76, 65, 68, 13, 68], "trial": 1, "time_elapsed": 920113, "type": "FREE_RECALL", "trial_index": 75}, "uniqueid": "MTK2317:3PS7W85Z809NS76G7W679HN3765T90", "dateTime": 1516988401200}, {"current_trial": 76, "trialdata": {"rt": 3289, "trial_type": "text", "internal_node_id": "0.0-58.0", "time_elapsed": 925407, "key_press": 13, "type": "INSTRUCTIONS", "trial_index": 76}, "uniqueid": "MTK2317:3PS7W85Z809NS76G7W679HN3765T90", "dateTime": 1516988406491}, {"current_trial": 77, "trialdata": {"rt": [3070, 4767, 8332, 11482, 15039, 19325, 23842], "trial_type": "math-distractor", "key_times": [2694, 2881, 3070, 4471, 4597, 4767, 8027, 8166, 8332, 11149, 11290, 11482, 14665, 14810, 15039, 19024, 19166, 19325, 23448, 23616, 23842], "responses": ["17", "14", "14", "19", "12", "21", "20"], "num2": [6, 5, 3, 8, 4, 5, 4, 3], "num3": [9, 4, 8, 7, 1, 9, 7, 9], "conditions": [24, 800, "v", 24000], "internal_node_id": "0.0-59.0", "key_presses": [97, 103, 13, 97, 100, 13, 97, 100, 13, 97, 105, 13, 97, 98, 13, 98, 97, 13, 98, 96, 13], "trial": 2, "time_elapsed": 950413, "type": "DISTRACTOR", "trial_index": 77, "num1": [2, 5, 3, 4, 8, 7, 9, 2]}, "uniqueid": "MTK2317:3PS7W85Z809NS76G7W679HN3765T90", "dateTime": 1516988431496}, {"current_trial": 78, "trialdata": {"rt": -1, "trial_type": "single-stim", "stimulus": "<p id=\"stim\">10</p>", "internal_node_id": "0.0-60.0-0.0", "time_elapsed": 953415, "key_press": -1, "trial_index": 78}, "uniqueid": "MTK2317:3PS7W85Z809NS76G7W679HN3765T90", "dateTime": 1516988434504}, {"current_trial": 79, "trialdata": {"rt": -1, "trial_type": "single-stim", "stimulus": "<p id=\"stim\">9</p>", "internal_node_id": "0.0-60.0-1.0", "time_elapsed": 954423, "key_press": -1, "trial_index": 79}, "uniqueid": "MTK2317:3PS7W85Z809NS76G7W679HN3765T90", "dateTime": 1516988435506}, {"current_trial": 80, "trialdata": {"rt": -1, "trial_type": "single-stim", "stimulus": "<p id=\"stim\">8</p>", "internal_node_id": "0.0-60.0-2.0", "time_elapsed": 955426, "key_press": -1, "trial_index": 80}, "uniqueid": "MTK2317:3PS7W85Z809NS76G7W679HN3765T90", "dateTime": 1516988436509}, {"current_trial": 81, "trialdata": {"rt": -1, "trial_type": "single-stim", "stimulus": "<p id=\"stim\">7</p>", "internal_node_id": "0.0-60.0-3.0", "time_elapsed": 956428, "key_press": -1, "trial_index": 81}, "uniqueid": "MTK2317:3PS7W85Z809NS76G7W679HN3765T90", "dateTime": 1516988437511}, {"current_trial": 82, "trialdata": {"rt": -1, "trial_type": "single-stim", "stimulus": "<p id=\"stim\">6</p>", "internal_node_id": "0.0-60.0-4.0", "time_elapsed": 957430, "key_press": -1, "trial_index": 82}, "uniqueid": "MTK2317:3PS7W85Z809NS76G7W679HN3765T90", "dateTime": 1516988438513}, {"current_trial": 83, "trialdata": {"rt": -1, "trial_type": "single-stim", "stimulus": "<p id=\"stim\">5</p>", "internal_node_id": "0.0-60.0-5.0", "time_elapsed": 958433, "key_press": -1, "trial_index": 83}, "uniqueid": "MTK2317:3PS7W85Z809NS76G7W679HN3765T90", "dateTime": 1516988439516}, {"current_trial": 84, "trialdata": {"rt": -1, "trial_type": "single-stim", "stimulus": "<p id=\"stim\">4</p>", "internal_node_id": "0.0-60.0-6.0", "time_elapsed": 959436, "key_press": -1, "trial_index": 84}, "uniqueid": "MTK2317:3PS7W85Z809NS76G7W679HN3765T90", "dateTime": 1516988440519}, {"current_trial": 85, "trialdata": {"rt": -1, "trial_type": "single-stim", "stimulus": "<p id=\"stim\">3</p>", "internal_node_id": "0.0-60.0-7.0", "time_elapsed": 960438, "key_press": -1, "trial_index": 85}, "uniqueid": "MTK2317:3PS7W85Z809NS76G7W679HN3765T90", "dateTime": 1516988441521}, {"current_trial": 86, "trialdata": {"rt": -1, "trial_type": "single-stim", "stimulus": "<p id=\"stim\">2</p>", "internal_node_id": "0.0-60.0-8.0", "time_elapsed": 961440, "key_press": -1, "trial_index": 86}, "uniqueid": "MTK2317:3PS7W85Z809NS76G7W679HN3765T90", "dateTime": 1516988442523}, {"current_trial": 87, "trialdata": {"rt": -1, "trial_type": "single-stim", "stimulus": "<p id=\"stim\">1</p>", "internal_node_id": "0.0-60.0-9.0", "time_elapsed": 962442, "key_press": -1, "trial_index": 87}, "uniqueid": "MTK2317:3PS7W85Z809NS76G7W679HN3765T90", "dateTime": 1516988443525}, {"current_trial": 88, "trialdata": {"rt": -1, "trial_type": "single-stim", "stimulus": "<p id=\"stim\">+</p>", "internal_node_id": "0.0-61.0-0.0", "time_elapsed": 963944, "key_press": -1, "type": "FIXATION", "trial_index": 88}, "uniqueid": "MTK2317:3PS7W85Z809NS76G7W679HN3765T90", "dateTime": 1516988445027}, {"current_trial": 89, "trialdata": {"rt": -1, "trial_type": "single-stim", "word": "razor", "stimulus": "<p id=\"stim\">RAZOR</p>", "conditions": [24, 800, "v", 24000], "internal_node_id": "0.0-62.0", "trial": 2, "time_elapsed": 964745, "serialpos": 0, "key_press": -1, "wordID": 1170, "type": "PRES_VIS", "trial_index": 89}, "uniqueid": "MTK2317:3PS7W85Z809NS76G7W679HN3765T90", "dateTime": 1516988445828}, {"current_trial": 90, "trialdata": {"rt": -1, "trial_type": "single-stim", "word": "piston", "stimulus": "<p id=\"stim\">PISTON</p>", "conditions": [24, 800, "v", 24000], "internal_node_id": "0.0-63.0", "trial": 2, "time_elapsed": 966594, "serialpos": 1, "key_press": -1, "wordID": 1075, "type": "PRES_VIS", "trial_index": 90}, "uniqueid": "MTK2317:3PS7W85Z809NS76G7W679HN3765T90", "dateTime": 1516988447677}, {"current_trial": 91, "trialdata": {"rt": -1, "trial_type": "single-stim", "word": "stream", "stimulus": "<p id=\"stim\">STREAM</p>", "conditions": [24, 800, "v", 24000], "internal_node_id": "0.0-64.0", "trial": 2, "time_elapsed": 968474, "serialpos": 2, "key_press": -1, "wordID": 1391, "type": "PRES_VIS", "trial_index": 91}, "uniqueid": "MTK2317:3PS7W85Z809NS76G7W679HN3765T90", "dateTime": 1516988449557}, {"current_trial": 92, "trialdata": {"rt": -1, "trial_type": "single-stim", "word": "knife", "stimulus": "<p id=\"stim\">KNIFE</p>", "conditions": [24, 800, "v", 24000], "internal_node_id": "0.0-65.0", "trial": 2, "time_elapsed": 970175, "serialpos": 3, "key_press": -1, "wordID": 784, "type": "PRES_VIS", "trial_index": 92}, "uniqueid": "MTK2317:3PS7W85Z809NS76G7W679HN3765T90", "dateTime": 1516988451258}, {"current_trial": 93, "trialdata": {"rt": -1, "trial_type": "single-stim", "word": "suspect", "stimulus": "<p id=\"stim\">SUSPECT</p>", "conditions": [24, 800, "v", 24000], "internal_node_id": "0.0-66.0", "trial": 2, "time_elapsed": 971965, "serialpos": 4, "key_press": -1, "wordID": 1414, "type": "PRES_VIS", "trial_index": 93}, "uniqueid": "MTK2317:3PS7W85Z809NS76G7W679HN3765T90", "dateTime": 1516988453048}, {"current_trial": 94, "trialdata": {"rt": -1, "trial_type": "single-stim", "word": "fox", "stimulus": "<p id=\"stim\">FOX</p>", "conditions": [24, 800, "v", 24000], "internal_node_id": "0.0-67.0", "trial": 2, "time_elapsed": 973683, "serialpos": 5, "key_press": -1, "wordID": 597, "type": "PRES_VIS", "trial_index": 94}, "uniqueid": "MTK2317:3PS7W85Z809NS76G7W679HN3765T90", "dateTime": 1516988454766}, {"current_trial": 95, "trialdata": {"rt": -1, "trial_type": "single-stim", "word": "snake", "stimulus": "<p id=\"stim\">SNAKE</p>", "conditions": [24, 800, "v", 24000], "internal_node_id": "0.0-68.0", "trial": 2, "time_elapsed": 975625, "serialpos": 6, "key_press": -1, "wordID": 1332, "type": "PRES_VIS", "trial_index": 95}, "uniqueid": "MTK2317:3PS7W85Z809NS76G7W679HN3765T90", "dateTime": 1516988456708}, {"current_trial": 96, "trialdata": {"rt": -1, "trial_type": "single-stim", "word": "laser", "stimulus": "<p id=\"stim\">LASER</p>", "conditions": [24, 800, "v", 24000], "internal_node_id": "0.0-69.0", "trial": 2, "time_elapsed": 977368, "serialpos": 7, "key_press": -1, "wordID": 800, "type": "PRES_VIS", "trial_index": 96}, "uniqueid": "MTK2317:3PS7W85Z809NS76G7W679HN3765T90", "dateTime": 1516988458452}, {"current_trial": 97, "trialdata": {"rt": -1, "trial_type": "single-stim", "word": "salmon", "stimulus": "<p id=\"stim\">SALMON</p>", "conditions": [24, 800, "v", 24000], "internal_node_id": "0.0-70.0", "trial": 2, "time_elapsed": 979037, "serialpos": 8, "key_press": -1, "wordID": 1226, "type": "PRES_VIS", "trial_index": 97}, "uniqueid": "MTK2317:3PS7W85Z809NS76G7W679HN3765T90", "dateTime": 1516988460120}, {"current_trial": 98, "trialdata": {"rt": -1, "trial_type": "single-stim", "word": "snail", "stimulus": "<p id=\"stim\">SNAIL</p>", "conditions": [24, 800, "v", 24000], "internal_node_id": "0.0-71.0", "trial": 2, "time_elapsed": 981028, "serialpos": 9, "key_press": -1, "wordID": 1331, "type": "PRES_VIS", "trial_index": 98}, "uniqueid": "MTK2317:3PS7W85Z809NS76G7W679HN3765T90", "dateTime": 1516988462111}, {"current_trial": 99, "trialdata": {"rt": -1, "trial_type": "single-stim", "word": "costume", "stimulus": "<p id=\"stim\">COSTUME</p>", "conditions": [24, 800, "v", 24000], "internal_node_id": "0.0-72.0", "trial": 2, "time_elapsed": 982982, "serialpos": 10, "key_press": -1, "wordID": 382, "type": "PRES_VIS", "trial_index": 99}, "uniqueid": "MTK2317:3PS7W85Z809NS76G7W679HN3765T90", "dateTime": 1516988464065}, {"current_trial": 100, "trialdata": {"rt": -1, "trial_type": "single-stim", "word": "scissors", "stimulus": "<p id=\"stim\">SCISSORS</p>", "conditions": [24, 800, "v", 24000], "internal_node_id": "0.0-73.0", "trial": 2, "time_elapsed": 984979, "serialpos": 11, "key_press": -1, "wordID": 1249, "type": "PRES_VIS", "trial_index": 100}, "uniqueid": "MTK2317:3PS7W85Z809NS76G7W679HN3765T90", "dateTime": 1516988466063}, {"current_trial": 101, "trialdata": {"rt": -1, "trial_type": "single-stim", "word": "luggage", "stimulus": "<p id=\"stim\">LUGGAGE</p>", "conditions": [24, 800, "v", 24000], "internal_node_id": "0.0-74.0", "trial": 2, "time_elapsed": 986953, "serialpos": 12, "key_press": -1, "wordID": 846, "type": "PRES_VIS", "trial_index": 101}, "uniqueid": "MTK2317:3PS7W85Z809NS76G7W679HN3765T90", "dateTime": 1516988468037}, {"current_trial": 102, "trialdata": {"rt": -1, "trial_type": "single-stim", "word": "statue", "stimulus": "<p id=\"stim\">STATUE</p>", "conditions": [24, 800, "v", 24000], "internal_node_id": "0.0-75.0", "trial": 2, "time_elapsed": 988777, "serialpos": 13, "key_press": -1, "wordID": 1373, "type": "PRES_VIS", "trial_index": 102}, "uniqueid": "MTK2317:3PS7W85Z809NS76G7W679HN3765T90", "dateTime": 1516988469860}, {"current_trial": 103, "trialdata": {"rt": -1, "trial_type": "single-stim", "word": "cook", "stimulus": "<p id=\"stim\">COOK</p>", "conditions": [24, 800, "v", 24000], "internal_node_id": "0.0-76.0", "trial": 2, "time_elapsed": 990474, "serialpos": 14, "key_press": -1, "wordID": 371, "type": "PRES_VIS", "trial_index": 103}, "uniqueid": "MTK2317:3PS7W85Z809NS76G7W679HN3765T90", "dateTime": 1516988471557}, {"current_trial": 104, "trialdata": {"rt": -1, "trial_type": "single-stim", "word": "salad", "stimulus": "<p id=\"stim\">SALAD</p>", "conditions": [24, 800, "v", 24000], "internal_node_id": "0.0-77.0", "trial": 2, "time_elapsed": 992297, "serialpos": 15, "key_press": -1, "wordID": 1223, "type": "PRES_VIS", "trial_index": 104}, "uniqueid": "MTK2317:3PS7W85Z809NS76G7W679HN3765T90", "dateTime": 1516988473380}, {"current_trial": 105, "trialdata": {"rt": -1, "trial_type": "single-stim", "word": "dolphin", "stimulus": "<p id=\"stim\">DOLPHIN</p>", "conditions": [24, 800, "v", 24000], "internal_node_id": "0.0-78.0", "trial": 2, "time_elapsed": 993951, "serialpos": 16, "key_press": -1, "wordID": 482, "type": "PRES_VIS", "trial_index": 105}, "uniqueid": "MTK2317:3PS7W85Z809NS76G7W679HN3765T90", "dateTime": 1516988475035}, {"current_trial": 106, "trialdata": {"rt": -1, "trial_type": "single-stim", "word": "doughnut", "stimulus": "<p id=\"stim\">DOUGHNUT</p>", "conditions": [24, 800, "v", 24000], "internal_node_id": "0.0-79.0", "trial": 2, "time_elapsed": 995583, "serialpos": 17, "key_press": -1, "wordID": 489, "type": "PRES_VIS", "trial_index": 106}, "uniqueid": "MTK2317:3PS7W85Z809NS76G7W679HN3765T90", "dateTime": 1516988476667}, {"current_trial": 107, "trialdata": {"rt": -1, "trial_type": "single-stim", "word": "dress", "stimulus": "<p id=\"stim\">DRESS</p>", "conditions": [24, 800, "v", 24000], "internal_node_id": "0.0-80.0", "trial": 2, "time_elapsed": 997271, "serialpos": 18, "key_press": -1, "wordID": 494, "type": "PRES_VIS", "trial_index": 107}, "uniqueid": "MTK2317:3PS7W85Z809NS76G7W679HN3765T90", "dateTime": 1516988478354}, {"current_trial": 108, "trialdata": {"rt": -1, "trial_type": "single-stim", "word": "tutu", "stimulus": "<p id=\"stim\">TUTU</p>", "conditions": [24, 800, "v", 24000], "internal_node_id": "0.0-81.0", "trial": 2, "time_elapsed": 999192, "serialpos": 19, "key_press": -1, "wordID": 1523, "type": "PRES_VIS", "trial_index": 108}, "uniqueid": "MTK2317:3PS7W85Z809NS76G7W679HN3765T90", "dateTime": 1516988480275}, {"current_trial": 109, "trialdata": {"rt": -1, "trial_type": "single-stim", "word": "convict", "stimulus": "<p id=\"stim\">CONVICT</p>", "conditions": [24, 800, "v", 24000], "internal_node_id": "0.0-82.0", "trial": 2, "time_elapsed": 1000813, "serialpos": 20, "key_press": -1, "wordID": 370, "type": "PRES_VIS", "trial_index": 109}, "uniqueid": "MTK2317:3PS7W85Z809NS76G7W679HN3765T90", "dateTime": 1516988481896}, {"current_trial": 110, "trialdata": {"rt": -1, "trial_type": "single-stim", "word": "suitcase", "stimulus": "<p id=\"stim\">SUITCASE</p>", "conditions": [24, 800, "v", 24000], "internal_node_id": "0.0-83.0", "trial": 2, "time_elapsed": 1002446, "serialpos": 21, "key_press": -1, "wordID": 1402, "type": "PRES_VIS", "trial_index": 110}, "uniqueid": "MTK2317:3PS7W85Z809NS76G7W679HN3765T90", "dateTime": 1516988483529}, {"current_trial": 111, "trialdata": {"rt": -1, "trial_type": "single-stim", "word": "plaza", "stimulus": "<p id=\"stim\">PLAZA</p>", "conditions": [24, 800, "v", 24000], "internal_node_id": "0.0-84.0", "trial": 2, "time_elapsed": 1004406, "serialpos": 22, "key_press": -1, "wordID": 1087, "type": "PRES_VIS", "trial_index": 111}, "uniqueid": "MTK2317:3PS7W85Z809NS76G7W679HN3765T90", "dateTime": 1516988485489}, {"current_trial": 112, "trialdata": {"rt": -1, "trial_type": "single-stim", "word": "scarf", "stimulus": "<p id=\"stim\">SCARF</p>", "conditions": [24, 800, "v", 24000], "internal_node_id": "0.0-85.0", "trial": 2, "time_elapsed": 1006254, "serialpos": 23, "key_press": -1, "wordID": 1245, "type": "PRES_VIS", "trial_index": 112}, "uniqueid": "MTK2317:3PS7W85Z809NS76G7W679HN3765T90", "dateTime": 1516988487337}, {"current_trial": 113, "trialdata": {"rt": -1, "trial_type": "single-stim", "stimulus": "", "internal_node_id": "0.0-86.0-0.0", "time_elapsed": 1008580, "key_press": -1, "type": "PRE_RECALL_DELAY", "trial_index": 113}, "uniqueid": "MTK2317:3PS7W85Z809NS76G7W679HN3765T90", "dateTime": 1516988489663}, {"current_trial": 114, "trialdata": {"rt": -1000, "trial_type": "single-audio", "stimulus": "/static/audio/400Hz.wav", "internal_node_id": "0.0-87.0", "time_elapsed": 1009082, "key_press": -1, "type": "PRE_RECALL_ALERT", "trial_index": 114}, "uniqueid": "MTK2317:3PS7W85Z809NS76G7W679HN3765T90", "dateTime": 1516988490165}, {"current_trial": 115, "trialdata": {"rt": [1586, 3364, 4985, 6478, 10096, 14614, 25159, 37119], "recwords": ["knife", "salmon", "scissors", "knife", "snack", "costume", "knife", "brush"], "key_times": [660, 867, 1032, 1167, 1327, 1586, 2003, 2164, 2169, 2536, 2998, 3164, 3364, 3603, 3774, 3891, 4253, 4405, 4468, 4580, 4793, 4985, 5472, 5601, 5735, 6167, 6327, 6478, 9346, 9453, 9515, 9697, 9818, 10096, 13553, 13678, 13770, 14094, 14210, 14394, 14488, 14614, 24427, 24597, 24741, 24925, 25088, 25159, 27822, 28199, 28764, 29139, 35891, 36212, 36614, 36767, 36878, 37119], "trial_type": "free-recall", "conditions": [24, 800, "v", 24000], "internal_node_id": "0.0-88.0-0.0", "key_presses": [75, 78, 73, 70, 69, 13, 83, 65, 76, 77, 79, 78, 13, 83, 67, 73, 83, 83, 79, 82, 83, 13, 75, 78, 73, 70, 69, 13, 83, 78, 65, 67, 75, 13, 67, 79, 83, 84, 85, 77, 69, 13, 75, 78, 73, 70, 69, 13, 83, 65, 8, 8, 66, 82, 85, 83, 72, 13], "trial": 2, "time_elapsed": 1069087, "type": "FREE_RECALL", "trial_index": 115}, "uniqueid": "MTK2317:3PS7W85Z809NS76G7W679HN3765T90", "dateTime": 1516988550175}, {"current_trial": 116, "trialdata": {"rt": 1686, "trial_type": "text", "internal_node_id": "0.0-89.0", "time_elapsed": 1072779, "key_press": 13, "type": "INSTRUCTIONS", "trial_index": 116}, "uniqueid": "MTK2317:3PS7W85Z809NS76G7W679HN3765T90", "dateTime": 1516988553862}, {"current_trial": 117, "trialdata": {"rt": [1957, 4494, 6315, 9251], "trial_type": "math-distractor", "key_times": [1627, 1776, 1957, 4104, 4309, 4494, 5973, 6139, 6315, 8778, 9041, 9251], "responses": ["11", "18", "16", "14"], "num2": [7, 9, 9, 3, 7], "num3": [3, 1, 6, 3, 1], "conditions": [24, 800, "v", 12000], "internal_node_id": "0.0-90.0", "key_presses": [97, 97, 13, 97, 104, 13, 97, 102, 13, 97, 100, 13], "trial": 3, "time_elapsed": 1086784, "type": "DISTRACTOR", "trial_index": 117, "num1": [1, 8, 1, 8, 5]}, "uniqueid": "MTK2317:3PS7W85Z809NS76G7W679HN3765T90", "dateTime": 1516988567868}, {"current_trial": 118, "trialdata": {"rt": -1, "trial_type": "single-stim", "stimulus": "<p id=\"stim\">10</p>", "internal_node_id": "0.0-91.0-0.0", "time_elapsed": 1089786, "key_press": -1, "trial_index": 118}, "uniqueid": "MTK2317:3PS7W85Z809NS76G7W679HN3765T90", "dateTime": 1516988570869}, {"current_trial": 119, "trialdata": {"rt": -1, "trial_type": "single-stim", "stimulus": "<p id=\"stim\">9</p>", "internal_node_id": "0.0-91.0-1.0", "time_elapsed": 1090787, "key_press": -1, "trial_index": 119}, "uniqueid": "MTK2317:3PS7W85Z809NS76G7W679HN3765T90", "dateTime": 1516988571871}, {"current_trial": 120, "trialdata": {"rt": -1, "trial_type": "single-stim", "stimulus": "<p id=\"stim\">8</p>", "internal_node_id": "0.0-91.0-2.0", "time_elapsed": 1091789, "key_press": -1, "trial_index": 120}, "uniqueid": "MTK2317:3PS7W85Z809NS76G7W679HN3765T90", "dateTime": 1516988572872}, {"current_trial": 121, "trialdata": {"rt": -1, "trial_type": "single-stim", "stimulus": "<p id=\"stim\">7</p>", "internal_node_id": "0.0-91.0-3.0", "time_elapsed": 1092791, "key_press": -1, "trial_index": 121}, "uniqueid": "MTK2317:3PS7W85Z809NS76G7W679HN3765T90", "dateTime": 1516988573874}, {"current_trial": 122, "trialdata": {"rt": -1, "trial_type": "single-stim", "stimulus": "<p id=\"stim\">6</p>", "internal_node_id": "0.0-91.0-4.0", "time_elapsed": 1093793, "key_press": -1, "trial_index": 122}, "uniqueid": "MTK2317:3PS7W85Z809NS76G7W679HN3765T90", "dateTime": 1516988574876}, {"current_trial": 123, "trialdata": {"rt": -1, "trial_type": "single-stim", "stimulus": "<p id=\"stim\">5</p>", "internal_node_id": "0.0-91.0-5.0", "time_elapsed": 1094795, "key_press": -1, "trial_index": 123}, "uniqueid": "MTK2317:3PS7W85Z809NS76G7W679HN3765T90", "dateTime": 1516988575878}, {"current_trial": 124, "trialdata": {"rt": -1, "trial_type": "single-stim", "stimulus": "<p id=\"stim\">4</p>", "internal_node_id": "0.0-91.0-6.0", "time_elapsed": 1095797, "key_press": -1, "trial_index": 124}, "uniqueid": "MTK2317:3PS7W85Z809NS76G7W679HN3765T90", "dateTime": 1516988576880}, {"current_trial": 125, "trialdata": {"rt": -1, "trial_type": "single-stim", "stimulus": "<p id=\"stim\">3</p>", "internal_node_id": "0.0-91.0-7.0", "time_elapsed": 1096799, "key_press": -1, "trial_index": 125}, "uniqueid": "MTK2317:3PS7W85Z809NS76G7W679HN3765T90", "dateTime": 1516988577883}, {"current_trial": 126, "trialdata": {"rt": -1, "trial_type": "single-stim", "stimulus": "<p id=\"stim\">2</p>", "internal_node_id": "0.0-91.0-8.0", "time_elapsed": 1097808, "key_press": -1, "trial_index": 126}, "uniqueid": "MTK2317:3PS7W85Z809NS76G7W679HN3765T90", "dateTime": 1516988578891}, {"current_trial": 127, "trialdata": {"rt": -1, "trial_type": "single-stim", "stimulus": "<p id=\"stim\">1</p>", "internal_node_id": "0.0-91.0-9.0", "time_elapsed": 1098809, "key_press": -1, "trial_index": 127}, "uniqueid": "MTK2317:3PS7W85Z809NS76G7W679HN3765T90", "dateTime": 1516988579892}, {"current_trial": 128, "trialdata": {"rt": -1, "trial_type": "single-stim", "stimulus": "<p id=\"stim\">+</p>", "internal_node_id": "0.0-92.0-0.0", "time_elapsed": 1100311, "key_press": -1, "type": "FIXATION", "trial_index": 128}, "uniqueid": "MTK2317:3PS7W85Z809NS76G7W679HN3765T90", "dateTime": 1516988581395}, {"current_trial": 129, "trialdata": {"rt": -1, "trial_type": "single-stim", "word": "lace", "stimulus": "<p id=\"stim\">LACE</p>", "conditions": [24, 800, "v", 12000], "internal_node_id": "0.0-93.0", "trial": 3, "time_elapsed": 1101113, "serialpos": 0, "key_press": -1, "wordID": 791, "type": "PRES_VIS", "trial_index": 129}, "uniqueid": "MTK2317:3PS7W85Z809NS76G7W679HN3765T90", "dateTime": 1516988582197}, {"current_trial": 130, "trialdata": {"rt": -1, "trial_type": "single-stim", "word": "cabin", "stimulus": "<p id=\"stim\">CABIN</p>", "conditions": [24, 800, "v", 12000], "internal_node_id": "0.0-94.0", "trial": 3, "time_elapsed": 1102826, "serialpos": 1, "key_press": -1, "wordID": 210, "type": "PRES_VIS", "trial_index": 130}, "uniqueid": "MTK2317:3PS7W85Z809NS76G7W679HN3765T90", "dateTime": 1516988583909}, {"current_trial": 131, "trialdata": {"rt": -1, "trial_type": "single-stim", "word": "fireman", "stimulus": "<p id=\"stim\">FIREMAN</p>", "conditions": [24, 800, "v", 12000], "internal_node_id": "0.0-95.0", "trial": 3, "time_elapsed": 1104789, "serialpos": 2, "key_press": -1, "wordID": 568, "type": "PRES_VIS", "trial_index": 131}, "uniqueid": "MTK2317:3PS7W85Z809NS76G7W679HN3765T90", "dateTime": 1516988585872}, {"current_trial": 132, "trialdata": {"rt": -1, "trial_type": "single-stim", "word": "spoon", "stimulus": "<p id=\"stim\">SPOON</p>", "conditions": [24, 800, "v", 12000], "internal_node_id": "0.0-96.0", "trial": 3, "time_elapsed": 1106540, "serialpos": 3, "key_press": -1, "wordID": 1356, "type": "PRES_VIS", "trial_index": 132}, "uniqueid": "MTK2317:3PS7W85Z809NS76G7W679HN3765T90", "dateTime": 1516988587623}, {"current_trial": 133, "trialdata": {"rt": -1, "trial_type": "single-stim", "word": "skillet", "stimulus": "<p id=\"stim\">SKILLET</p>", "conditions": [24, 800, "v", 12000], "internal_node_id": "0.0-97.0", "trial": 3, "time_elapsed": 1108249, "serialpos": 4, "key_press": -1, "wordID": 1316, "type": "PRES_VIS", "trial_index": 133}, "uniqueid": "MTK2317:3PS7W85Z809NS76G7W679HN3765T90", "dateTime": 1516988589332}, {"current_trial": 134, "trialdata": {"rt": -1, "trial_type": "single-stim", "word": "crater", "stimulus": "<p id=\"stim\">CRATER</p>", "conditions": [24, 800, "v", 12000], "internal_node_id": "0.0-98.0", "trial": 3, "time_elapsed": 1109857, "serialpos": 5, "key_press": -1, "wordID": 399, "type": "PRES_VIS", "trial_index": 134}, "uniqueid": "MTK2317:3PS7W85Z809NS76G7W679HN3765T90", "dateTime": 1516988590940}, {"current_trial": 135, "trialdata": {"rt": -1, "trial_type": "single-stim", "word": "robot", "stimulus": "<p id=\"stim\">ROBOT</p>", "conditions": [24, 800, "v", 12000], "internal_node_id": "0.0-99.0", "trial": 3, "time_elapsed": 1111814, "serialpos": 6, "key_press": -1, "wordID": 1199, "type": "PRES_VIS", "trial_index": 135}, "uniqueid": "MTK2317:3PS7W85Z809NS76G7W679HN3765T90", "dateTime": 1516988592898}, {"current_trial": 136, "trialdata": {"rt": -1, "trial_type": "single-stim", "word": "forest", "stimulus": "<p id=\"stim\">FOREST</p>", "conditions": [24, 800, "v", 12000], "internal_node_id": "0.0-100.0", "trial": 3, "time_elapsed": 1113568, "serialpos": 7, "key_press": -1, "wordID": 592, "type": "PRES_VIS", "trial_index": 136}, "uniqueid": "MTK2317:3PS7W85Z809NS76G7W679HN3765T90", "dateTime": 1516988594651}, {"current_trial": 137, "trialdata": {"rt": -1, "trial_type": "single-stim", "word": "hand", "stimulus": "<p id=\"stim\">HAND</p>", "conditions": [24, 800, "v", 12000], "internal_node_id": "0.0-101.0", "trial": 3, "time_elapsed": 1115295, "serialpos": 8, "key_press": -1, "wordID": 682, "type": "PRES_VIS", "trial_index": 137}, "uniqueid": "MTK2317:3PS7W85Z809NS76G7W679HN3765T90", "dateTime": 1516988596378}, {"current_trial": 138, "trialdata": {"rt": -1, "trial_type": "single-stim", "word": "spouse", "stimulus": "<p id=\"stim\">SPOUSE</p>", "conditions": [24, 800, "v", 12000], "internal_node_id": "0.0-102.0", "trial": 3, "time_elapsed": 1117258, "serialpos": 9, "key_press": -1, "wordID": 1357, "type": "PRES_VIS", "trial_index": 138}, "uniqueid": "MTK2317:3PS7W85Z809NS76G7W679HN3765T90", "dateTime": 1516988598342}, {"current_trial": 139, "trialdata": {"rt": -1, "trial_type": "single-stim", "word": "onion", "stimulus": "<p id=\"stim\">ONION</p>", "conditions": [24, 800, "v", 12000], "internal_node_id": "0.0-103.0", "trial": 3, "time_elapsed": 1118968, "serialpos": 10, "key_press": -1, "wordID": 976, "type": "PRES_VIS", "trial_index": 139}, "uniqueid": "MTK2317:3PS7W85Z809NS76G7W679HN3765T90", "dateTime": 1516988600051}, {"current_trial": 140, "trialdata": {"rt": -1, "trial_type": "single-stim", "word": "silk", "stimulus": "<p id=\"stim\">SILK</p>", "conditions": [24, 800, "v", 12000], "internal_node_id": "0.0-104.0", "trial": 3, "time_elapsed": 1120609, "serialpos": 11, "key_press": -1, "wordID": 1306, "type": "PRES_VIS", "trial_index": 140}, "uniqueid": "MTK2317:3PS7W85Z809NS76G7W679HN3765T90", "dateTime": 1516988601692}, {"current_trial": 141, "trialdata": {"rt": -1, "trial_type": "single-stim", "word": "garlic", "stimulus": "<p id=\"stim\">GARLIC</p>", "conditions": [24, 800, "v", 12000], "internal_node_id": "0.0-105.0", "trial": 3, "time_elapsed": 1122367, "serialpos": 12, "key_press": -1, "wordID": 623, "type": "PRES_VIS", "trial_index": 141}, "uniqueid": "MTK2317:3PS7W85Z809NS76G7W679HN3765T90", "dateTime": 1516988603450}, {"current_trial": 142, "trialdata": {"rt": -1, "trial_type": "single-stim", "word": "rooster", "stimulus": "<p id=\"stim\">ROOSTER</p>", "conditions": [24, 800, "v", 12000], "internal_node_id": "0.0-106.0", "trial": 3, "time_elapsed": 1124341, "serialpos": 13, "key_press": -1, "wordID": 1208, "type": "PRES_VIS", "trial_index": 142}, "uniqueid": "MTK2317:3PS7W85Z809NS76G7W679HN3765T90", "dateTime": 1516988605424}, {"current_trial": 143, "trialdata": {"rt": -1, "trial_type": "single-stim", "word": "missile", "stimulus": "<p id=\"stim\">MISSILE</p>", "conditions": [24, 800, "v", 12000], "internal_node_id": "0.0-107.0", "trial": 3, "time_elapsed": 1126235, "serialpos": 14, "key_press": -1, "wordID": 899, "type": "PRES_VIS", "trial_index": 143}, "uniqueid": "MTK2317:3PS7W85Z809NS76G7W679HN3765T90", "dateTime": 1516988607318}, {"current_trial": 144, "trialdata": {"rt": -1, "trial_type": "single-stim", "word": "police", "stimulus": "<p id=\"stim\">POLICE</p>", "conditions": [24, 800, "v", 12000], "internal_node_id": "0.0-108.0", "trial": 3, "time_elapsed": 1128154, "serialpos": 15, "key_press": -1, "wordID": 1097, "type": "PRES_VIS", "trial_index": 144}, "uniqueid": "MTK2317:3PS7W85Z809NS76G7W679HN3765T90", "dateTime": 1516988609237}, {"current_trial": 145, "trialdata": {"rt": -1, "trial_type": "single-stim", "word": "clamp", "stimulus": "<p id=\"stim\">CLAMP</p>", "conditions": [24, 800, "v", 12000], "internal_node_id": "0.0-109.0", "trial": 3, "time_elapsed": 1130130, "serialpos": 16, "key_press": -1, "wordID": 315, "type": "PRES_VIS", "trial_index": 145}, "uniqueid": "MTK2317:3PS7W85Z809NS76G7W679HN3765T90", "dateTime": 1516988611213}, {"current_trial": 146, "trialdata": {"rt": -1, "trial_type": "single-stim", "word": "cupboard", "stimulus": "<p id=\"stim\">CUPBOARD</p>", "conditions": [24, 800, "v", 12000], "internal_node_id": "0.0-110.0", "trial": 3, "time_elapsed": 1131838, "serialpos": 17, "key_press": -1, "wordID": 424, "type": "PRES_VIS", "trial_index": 146}, "uniqueid": "MTK2317:3PS7W85Z809NS76G7W679HN3765T90", "dateTime": 1516988612921}, {"current_trial": 147, "trialdata": {"rt": -1, "trial_type": "single-stim", "word": "scarecrow", "stimulus": "<p id=\"stim\">SCARECROW</p>", "conditions": [24, 800, "v", 12000], "internal_node_id": "0.0-111.0", "trial": 3, "time_elapsed": 1133558, "serialpos": 18, "key_press": -1, "wordID": 1244, "type": "PRES_VIS", "trial_index": 147}, "uniqueid": "MTK2317:3PS7W85Z809NS76G7W679HN3765T90", "dateTime": 1516988614641}, {"current_trial": 148, "trialdata": {"rt": -1, "trial_type": "single-stim", "word": "girl", "stimulus": "<p id=\"stim\">GIRL</p>", "conditions": [24, 800, "v", 12000], "internal_node_id": "0.0-112.0", "trial": 3, "time_elapsed": 1135446, "serialpos": 19, "key_press": -1, "wordID": 636, "type": "PRES_VIS", "trial_index": 148}, "uniqueid": "MTK2317:3PS7W85Z809NS76G7W679HN3765T90", "dateTime": 1516988616530}, {"current_trial": 149, "trialdata": {"rt": -1, "trial_type": "single-stim", "word": "princess", "stimulus": "<p id=\"stim\">PRINCESS</p>", "conditions": [24, 800, "v", 12000], "internal_node_id": "0.0-113.0", "trial": 3, "time_elapsed": 1137203, "serialpos": 20, "key_press": -1, "wordID": 1124, "type": "PRES_VIS", "trial_index": 149}, "uniqueid": "MTK2317:3PS7W85Z809NS76G7W679HN3765T90", "dateTime": 1516988618286}, {"current_trial": 150, "trialdata": {"rt": -1, "trial_type": "single-stim", "word": "burglar", "stimulus": "<p id=\"stim\">BURGLAR</p>", "conditions": [24, 800, "v", 12000], "internal_node_id": "0.0-114.0", "trial": 3, "time_elapsed": 1139052, "serialpos": 21, "key_press": -1, "wordID": 199, "type": "PRES_VIS", "trial_index": 150}, "uniqueid": "MTK2317:3PS7W85Z809NS76G7W679HN3765T90", "dateTime": 1516988620136}, {"current_trial": 151, "trialdata": {"rt": -1, "trial_type": "single-stim", "word": "beef", "stimulus": "<p id=\"stim\">BEEF</p>", "conditions": [24, 800, "v", 12000], "internal_node_id": "0.0-115.0", "trial": 3, "time_elapsed": 1140818, "serialpos": 22, "key_press": -1, "wordID": 112, "type": "PRES_VIS", "trial_index": 151}, "uniqueid": "MTK2317:3PS7W85Z809NS76G7W679HN3765T90", "dateTime": 1516988621901}, {"current_trial": 152, "trialdata": {"rt": -1, "trial_type": "single-stim", "word": "kitchen", "stimulus": "<p id=\"stim\">KITCHEN</p>", "conditions": [24, 800, "v", 12000], "internal_node_id": "0.0-116.0", "trial": 3, "time_elapsed": 1142517, "serialpos": 23, "key_press": -1, "wordID": 777, "type": "PRES_VIS", "trial_index": 152}, "uniqueid": "MTK2317:3PS7W85Z809NS76G7W679HN3765T90", "dateTime": 1516988623601}, {"current_trial": 153, "trialdata": {"rt": -1, "trial_type": "single-stim", "stimulus": "", "internal_node_id": "0.0-117.0-0.0", "time_elapsed": 1144885, "key_press": -1, "type": "PRE_RECALL_DELAY", "trial_index": 153}, "uniqueid": "MTK2317:3PS7W85Z809NS76G7W679HN3765T90", "dateTime": 1516988625968}, {"current_trial": 154, "trialdata": {"rt": -1000, "trial_type": "single-audio", "stimulus": "/static/audio/400Hz.wav", "internal_node_id": "0.0-118.0", "time_elapsed": 1145388, "key_press": -1, "type": "PRE_RECALL_ALERT", "trial_index": 154}, "uniqueid": "MTK2317:3PS7W85Z809NS76G7W679HN3765T90", "dateTime": 1516988626471}, {"current_trial": 155, "trialdata": {"rt": [3719, 8379, 13164, 15911, 21591, 23721, 25971, 30236, 36255, 39363, 41290, 58277], "recwords": ["cabin", "spoon", "skillet", "garlic", "onion", "beef", "police", "fireman", "gir", "girl", "princess", "animal"], "key_times": [1676, 1848, 2203, 2361, 2856, 3020, 3195, 3290, 3450, 3719, 5017, 5192, 5321, 5891, 6080, 6227, 6344, 6487, 6814, 7812, 7997, 8149, 8379, 10586, 10774, 10990, 11784, 11923, 12125, 12283, 12469, 12650, 12766, 12927, 13164, 14780, 14908, 15035, 15165, 15305, 15455, 15911, 16164, 16309, 16456, 16627, 16805, 17378, 17653, 18311, 19018, 19191, 20017, 20180, 20984, 21192, 21591, 22925, 23163, 23316, 23461, 23721, 24994, 25197, 25418, 25550, 25694, 25889, 25971, 26366, 26478, 26575, 26723, 27276, 27428, 27572, 27842, 27857, 28886, 29458, 29623, 29719, 29910, 29995, 30236, 35439, 35690, 35826, 36255, 37594, 37761, 37864, 38578, 38720, 38886, 38960, 39102, 39363, 39811, 39919, 39999, 40365, 40532, 40800, 41031, 41201, 41290, 54531, 54700, 55224, 55994, 56164, 56310, 56531, 56617, 56761, 57063, 57168, 57715, 58277], "trial_type": "free-recall", "conditions": [24, 800, "v", 12000], "internal_node_id": "0.0-119.0-0.0", "key_presses": [67, 65, 73, 78, 8, 8, 66, 73, 78, 13, 74, 83, 80, 8, 8, 8, 8, 83, 80, 79, 79, 78, 13, 83, 73, 75, 8, 8, 75, 73, 76, 76, 69, 84, 13, 71, 65, 82, 76, 73, 67, 13, 79, 78, 73, 80, 78, 8, 144, 8, 80, 78, 8, 8, 79, 78, 13, 66, 69, 69, 70, 13, 80, 79, 76, 73, 67, 69, 13, 70, 79, 82, 69, 8, 8, 8, 73, 79, 8, 82, 69, 77, 65, 78, 13, 71, 73, 82, 13, 71, 82, 73, 8, 8, 73, 82, 76, 13, 80, 82, 73, 78, 67, 69, 83, 83, 13, 68, 79, 71, 8, 8, 8, 65, 78, 73, 77, 65, 76, 13], "trial": 3, "time_elapsed": 1205395, "type": "FREE_RECALL", "trial_index": 155}, "uniqueid": "MTK2317:3PS7W85Z809NS76G7W679HN3765T90", "dateTime": 1516988686484}, {"current_trial": 156, "trialdata": {"rt": 3922, "trial_type": "text", "internal_node_id": "0.0-120.0", "time_elapsed": 1211324, "key_press": 13, "type": "INSTRUCTIONS", "trial_index": 156}, "uniqueid": "MTK2317:3PS7W85Z809NS76G7W679HN3765T90", "dateTime": 1516988692407}, {"current_trial": 157, "trialdata": {"rt": [2056, 4649, 6928, 8565, 10405, 12760, 14749, 16586, 18308, 19890, 21490], "trial_type": "math-distractor", "key_times": [1711, 1887, 2056, 4289, 4444, 4649, 6580, 6713, 6928, 8222, 8373, 8565, 10014, 10174, 10405, 12384, 12548, 12760, 14503, 14749, 16237, 16376, 16586, 17848, 18094, 18308, 19534, 19694, 19890, 21191, 21328, 21490, 23977], "responses": ["", "", "", "", "", "", "", "", "", "", ""], "num2": [9, 1, 2, 6, 5, 7, 4, 3, 8, 1, 1, 1], "num3": [1, 8, 5, 4, 6, 8, 2, 2, 1, 9, 1, 7], "conditions": [12, 1600, "v", 24000], "internal_node_id": "0.0-121.0", "key_presses": [35, 36, 13, 35, 12, 13, 35, 45, 13, 35, 36, 13, 35, 39, 13, 35, 36, 13, 36, 13, 35, 45, 13, 35, 36, 13, 35, 40, 13, 35, 35, 13, 35], "trial": 4, "time_elapsed": 1237328, "type": "DISTRACTOR", "trial_index": 157, "num1": [7, 6, 3, 7, 4, 2, 1, 5, 8, 2, 9, 4]}, "uniqueid": "MTK2317:3PS7W85Z809NS76G7W679HN3765T90", "dateTime": 1516988718411}, {"current_trial": 158, "trialdata": {"rt": -1, "trial_type": "single-stim", "stimulus": "<p id=\"stim\">10</p>", "internal_node_id": "0.0-122.0-0.0", "time_elapsed": 1240331, "key_press": -1, "trial_index": 158}, "uniqueid": "MTK2317:3PS7W85Z809NS76G7W679HN3765T90", "dateTime": 1516988721415}, {"current_trial": 159, "trialdata": {"rt": -1, "trial_type": "single-stim", "stimulus": "<p id=\"stim\">9</p>", "internal_node_id": "0.0-122.0-1.0", "time_elapsed": 1241333, "key_press": -1, "trial_index": 159}, "uniqueid": "MTK2317:3PS7W85Z809NS76G7W679HN3765T90", "dateTime": 1516988722417}, {"current_trial": 160, "trialdata": {"rt": -1, "trial_type": "single-stim", "stimulus": "<p id=\"stim\">8</p>", "internal_node_id": "0.0-122.0-2.0", "time_elapsed": 1242337, "key_press": -1, "trial_index": 160}, "uniqueid": "MTK2317:3PS7W85Z809NS76G7W679HN3765T90", "dateTime": 1516988723420}, {"current_trial": 161, "trialdata": {"rt": -1, "trial_type": "single-stim", "stimulus": "<p id=\"stim\">7</p>", "internal_node_id": "0.0-122.0-3.0", "time_elapsed": 1243339, "key_press": -1, "trial_index": 161}, "uniqueid": "MTK2317:3PS7W85Z809NS76G7W679HN3765T90", "dateTime": 1516988724422}, {"current_trial": 162, "trialdata": {"rt": -1, "trial_type": "single-stim", "stimulus": "<p id=\"stim\">6</p>", "internal_node_id": "0.0-122.0-4.0", "time_elapsed": 1244341, "key_press": -1, "trial_index": 162}, "uniqueid": "MTK2317:3PS7W85Z809NS76G7W679HN3765T90", "dateTime": 1516988725424}, {"current_trial": 163, "trialdata": {"rt": -1, "trial_type": "single-stim", "stimulus": "<p id=\"stim\">5</p>", "internal_node_id": "0.0-122.0-5.0", "time_elapsed": 1245343, "key_press": -1, "trial_index": 163}, "uniqueid": "MTK2317:3PS7W85Z809NS76G7W679HN3765T90", "dateTime": 1516988726426}, {"current_trial": 164, "trialdata": {"rt": -1, "trial_type": "single-stim", "stimulus": "<p id=\"stim\">4</p>", "internal_node_id": "0.0-122.0-6.0", "time_elapsed": 1246346, "key_press": -1, "trial_index": 164}, "uniqueid": "MTK2317:3PS7W85Z809NS76G7W679HN3765T90", "dateTime": 1516988727429}, {"current_trial": 165, "trialdata": {"rt": -1, "trial_type": "single-stim", "stimulus": "<p id=\"stim\">3</p>", "internal_node_id": "0.0-122.0-7.0", "time_elapsed": 1247348, "key_press": -1, "trial_index": 165}, "uniqueid": "MTK2317:3PS7W85Z809NS76G7W679HN3765T90", "dateTime": 1516988728432}, {"current_trial": 166, "trialdata": {"rt": -1, "trial_type": "single-stim", "stimulus": "<p id=\"stim\">2</p>", "internal_node_id": "0.0-122.0-8.0", "time_elapsed": 1248351, "key_press": -1, "trial_index": 166}, "uniqueid": "MTK2317:3PS7W85Z809NS76G7W679HN3765T90", "dateTime": 1516988729435}, {"current_trial": 167, "trialdata": {"rt": -1, "trial_type": "single-stim", "stimulus": "<p id=\"stim\">1</p>", "internal_node_id": "0.0-122.0-9.0", "time_elapsed": 1249353, "key_press": -1, "trial_index": 167}, "uniqueid": "MTK2317:3PS7W85Z809NS76G7W679HN3765T90", "dateTime": 1516988730436}, {"current_trial": 168, "trialdata": {"rt": -1, "trial_type": "single-stim", "stimulus": "<p id=\"stim\">+</p>", "internal_node_id": "0.0-123.0-0.0", "time_elapsed": 1250856, "key_press": -1, "type": "FIXATION", "trial_index": 168}, "uniqueid": "MTK2317:3PS7W85Z809NS76G7W679HN3765T90", "dateTime": 1516988731940}, {"current_trial": 169, "trialdata": {"rt": -1, "trial_type": "single-stim", "word": "chipmunk", "stimulus": "<p id=\"stim\">CHIPMUNK</p>", "conditions": [12, 1600, "v", 24000], "internal_node_id": "0.0-124.0", "trial": 4, "time_elapsed": 1252459, "serialpos": 0, "key_press": -1, "wordID": 303, "type": "PRES_VIS", "trial_index": 169}, "uniqueid": "MTK2317:3PS7W85Z809NS76G7W679HN3765T90", "dateTime": 1516988733542}, {"current_trial": 170, "trialdata": {"rt": -1, "trial_type": "single-stim", "word": "europe", "stimulus": "<p id=\"stim\">EUROPE</p>", "conditions": [12, 1600, "v", 24000], "internal_node_id": "0.0-125.0", "trial": 4, "time_elapsed": 1255089, "serialpos": 1, "key_press": -1, "wordID": 540, "type": "PRES_VIS", "trial_index": 170}, "uniqueid": "MTK2317:3PS7W85Z809NS76G7W679HN3765T90", "dateTime": 1516988736173}, {"current_trial": 171, "trialdata": {"rt": -1, "trial_type": "single-stim", "word": "harp", "stimulus": "<p id=\"stim\">HARP</p>", "conditions": [12, 1600, "v", 24000], "internal_node_id": "0.0-126.0", "trial": 4, "time_elapsed": 1257536, "serialpos": 2, "key_press": -1, "wordID": 688, "type": "PRES_VIS", "trial_index": 171}, "uniqueid": "MTK2317:3PS7W85Z809NS76G7W679HN3765T90", "dateTime": 1516988738619}, {"current_trial": 172, "trialdata": {"rt": -1, "trial_type": "single-stim", "word": "atlas", "stimulus": "<p id=\"stim\">ATLAS</p>", "conditions": [12, 1600, "v", 24000], "internal_node_id": "0.0-127.0", "trial": 4, "time_elapsed": 1259997, "serialpos": 3, "key_press": -1, "wordID": 52, "type": "PRES_VIS", "trial_index": 172}, "uniqueid": "MTK2317:3PS7W85Z809NS76G7W679HN3765T90", "dateTime": 1516988741080}, {"current_trial": 173, "trialdata": {"rt": -1, "trial_type": "single-stim", "word": "rifle", "stimulus": "<p id=\"stim\">RIFLE</p>", "conditions": [12, 1600, "v", 24000], "internal_node_id": "0.0-128.0", "trial": 4, "time_elapsed": 1262607, "serialpos": 4, "key_press": -1, "wordID": 1191, "type": "PRES_VIS", "trial_index": 173}, "uniqueid": "MTK2317:3PS7W85Z809NS76G7W679HN3765T90", "dateTime": 1516988743690}, {"current_trial": 174, "trialdata": {"rt": -1, "trial_type": "single-stim", "word": "france", "stimulus": "<p id=\"stim\">FRANCE</p>", "conditions": [12, 1600, "v", 24000], "internal_node_id": "0.0-129.0", "trial": 4, "time_elapsed": 1265060, "serialpos": 5, "key_press": -1, "wordID": 600, "type": "PRES_VIS", "trial_index": 174}, "uniqueid": "MTK2317:3PS7W85Z809NS76G7W679HN3765T90", "dateTime": 1516988746143}, {"current_trial": 175, "trialdata": {"rt": -1, "trial_type": "single-stim", "word": "sandwich", "stimulus": "<p id=\"stim\">SANDWICH</p>", "conditions": [12, 1600, "v", 24000], "internal_node_id": "0.0-130.0", "trial": 4, "time_elapsed": 1267696, "serialpos": 6, "key_press": -1, "wordID": 1231, "type": "PRES_VIS", "trial_index": 175}, "uniqueid": "MTK2317:3PS7W85Z809NS76G7W679HN3765T90", "dateTime": 1516988748779}, {"current_trial": 176, "trialdata": {"rt": -1, "trial_type": "single-stim", "word": "muffin", "stimulus": "<p id=\"stim\">MUFFIN</p>", "conditions": [12, 1600, "v", 24000], "internal_node_id": "0.0-131.0", "trial": 4, "time_elapsed": 1270211, "serialpos": 7, "key_press": -1, "wordID": 928, "type": "PRES_VIS", "trial_index": 176}, "uniqueid": "MTK2317:3PS7W85Z809NS76G7W679HN3765T90", "dateTime": 1516988751294}, {"current_trial": 177, "trialdata": {"rt": -1, "trial_type": "single-stim", "word": "virus", "stimulus": "<p id=\"stim\">VIRUS</p>", "conditions": [12, 1600, "v", 24000], "internal_node_id": "0.0-132.0", "trial": 4, "time_elapsed": 1272822, "serialpos": 8, "key_press": -1, "wordID": 1571, "type": "PRES_VIS", "trial_index": 177}, "uniqueid": "MTK2317:3PS7W85Z809NS76G7W679HN3765T90", "dateTime": 1516988753905}, {"current_trial": 178, "trialdata": {"rt": -1, "trial_type": "single-stim", "word": "tombstone", "stimulus": "<p id=\"stim\">TOMBSTONE</p>", "conditions": [12, 1600, "v", 24000], "internal_node_id": "0.0-133.0", "trial": 4, "time_elapsed": 1275549, "serialpos": 9, "key_press": -1, "wordID": 1477, "type": "PRES_VIS", "trial_index": 178}, "uniqueid": "MTK2317:3PS7W85Z809NS76G7W679HN3765T90", "dateTime": 1516988756633}, {"current_trial": 179, "trialdata": {"rt": -1, "trial_type": "single-stim", "word": "shelf", "stimulus": "<p id=\"stim\">SHELF</p>", "conditions": [12, 1600, "v", 24000], "internal_node_id": "0.0-134.0", "trial": 4, "time_elapsed": 1278206, "serialpos": 10, "key_press": -1, "wordID": 1279, "type": "PRES_VIS", "trial_index": 179}, "uniqueid": "MTK2317:3PS7W85Z809NS76G7W679HN3765T90", "dateTime": 1516988759289}, {"current_trial": 180, "trialdata": {"rt": -1, "trial_type": "single-stim", "word": "window", "stimulus": "<p id=\"stim\">WINDOW</p>", "conditions": [12, 1600, "v", 24000], "internal_node_id": "0.0-135.0", "trial": 4, "time_elapsed": 1280888, "serialpos": 11, "key_press": -1, "wordID": 1610, "type": "PRES_VIS", "trial_index": 180}, "uniqueid": "MTK2317:3PS7W85Z809NS76G7W679HN3765T90", "dateTime": 1516988761971}, {"current_trial": 181, "trialdata": {"rt": -1, "trial_type": "single-stim", "stimulus": "", "internal_node_id": "0.0-136.0-0.0", "time_elapsed": 1283005, "key_press": -1, "type": "PRE_RECALL_DELAY", "trial_index": 181}, "uniqueid": "MTK2317:3PS7W85Z809NS76G7W679HN3765T90", "dateTime": 1516988764089}, {"current_trial": 182, "trialdata": {"rt": -1000, "trial_type": "single-audio", "stimulus": "/static/audio/400Hz.wav", "internal_node_id": "0.0-137.0", "time_elapsed": 1283508, "key_press": -1, "type": "PRE_RECALL_ALERT", "trial_index": 182}, "uniqueid": "MTK2317:3PS7W85Z809NS76G7W679HN3765T90", "dateTime": 1516988764591}, {"current_trial": 183, "trialdata": {"rt": [4569, 6787, 8932, 10926, 14125, 16629, 20599, 24318, 30176, 35737, 38891], "recwords": ["chipmunk", "europe", "harp", "grance", "virus", "muffin", "sandwhich", "france", "heart", "door", "window"], "key_times": [1423, 1490, 1638, 1913, 2131, 2375, 2568, 3239, 3653, 3815, 4569, 5069, 5250, 5919, 6063, 6371, 6522, 6787, 7022, 7093, 7249, 7356, 8215, 8661, 8932, 9960, 10120, 10261, 10302, 10543, 10728, 10926, 13158, 13480, 13637, 13830, 13933, 14125, 15097, 15509, 15907, 16133, 16305, 16452, 16629, 18640, 18788, 18879, 18979, 19210, 19720, 20121, 20267, 20358, 20599, 23500, 23637, 23789, 23890, 24080, 24245, 24318, 29475, 29546, 29639, 29773, 30004, 30176, 34654, 34830, 35324, 35510, 35737, 38045, 38170, 38323, 38433, 38580, 38688, 38891], "trial_type": "free-recall", "conditions": [12, 1600, "v", 24000], "internal_node_id": "0.0-138.0-0.0", "key_presses": [67, 72, 73, 80, 77, 85, 67, 8, 78, 75, 13, 69, 85, 82, 79, 80, 69, 13, 72, 65, 82, 79, 8, 80, 13, 71, 82, 65, 78, 67, 69, 13, 86, 73, 82, 85, 83, 13, 77, 85, 70, 70, 73, 78, 13, 83, 65, 78, 68, 87, 72, 73, 67, 72, 13, 70, 82, 65, 78, 67, 69, 13, 72, 69, 65, 82, 84, 13, 68, 79, 79, 82, 13, 87, 73, 78, 68, 79, 87, 13], "trial": 4, "time_elapsed": 1343515, "type": "FREE_RECALL", "trial_index": 183}, "uniqueid": "MTK2317:3PS7W85Z809NS76G7W679HN3765T90", "dateTime": 1516988824605}, {"current_trial": 184, "trialdata": {"rt": 1336, "trial_type": "text", "internal_node_id": "0.0-139.0", "time_elapsed": 1346860, "key_press": 13, "type": "INSTRUCTIONS", "trial_index": 184}, "uniqueid": "MTK2317:3PS7W85Z809NS76G7W679HN3765T90", "dateTime": 1516988827943}, {"current_trial": 185, "trialdata": {"rt": [2528, 7467, 9556], "trial_type": "math-distractor", "key_times": [2138, 2342, 2528, 4102, 4282, 4498, 7126, 7274, 7467, 9318, 9556, 11967], "responses": ["", "", ""], "num2": [8, 7, 1, 4], "num3": [3, 4, 3, 8], "conditions": [24, 800, "v", 12000], "internal_node_id": "0.0-140.0", "key_presses": [35, 38, 13, 35, 34, 16, 35, 37, 13, 39, 13, 35], "trial": 5, "time_elapsed": 1360865, "type": "DISTRACTOR", "trial_index": 185, "num1": [7, 3, 2, 3]}, "uniqueid": "MTK2317:3PS7W85Z809NS76G7W679HN3765T90", "dateTime": 1516988841948}, {"current_trial": 186, "trialdata": {"rt": -1, "trial_type": "single-stim", "stimulus": "<p id=\"stim\">10</p>", "internal_node_id": "0.0-141.0-0.0", "time_elapsed": 1363867, "key_press": -1, "trial_index": 186}, "uniqueid": "MTK2317:3PS7W85Z809NS76G7W679HN3765T90", "dateTime": 1516988844951}, {"current_trial": 187, "trialdata": {"rt": -1, "trial_type": "single-stim", "stimulus": "<p id=\"stim\">9</p>", "internal_node_id": "0.0-141.0-1.0", "time_elapsed": 1364869, "key_press": -1, "trial_index": 187}, "uniqueid": "MTK2317:3PS7W85Z809NS76G7W679HN3765T90", "dateTime": 1516988845952}, {"current_trial": 188, "trialdata": {"rt": -1, "trial_type": "single-stim", "stimulus": "<p id=\"stim\">8</p>", "internal_node_id": "0.0-141.0-2.0", "time_elapsed": 1365871, "key_press": -1, "trial_index": 188}, "uniqueid": "MTK2317:3PS7W85Z809NS76G7W679HN3765T90", "dateTime": 1516988846954}, {"current_trial": 189, "trialdata": {"rt": -1, "trial_type": "single-stim", "stimulus": "<p id=\"stim\">7</p>", "internal_node_id": "0.0-141.0-3.0", "time_elapsed": 1366872, "key_press": -1, "trial_index": 189}, "uniqueid": "MTK2317:3PS7W85Z809NS76G7W679HN3765T90", "dateTime": 1516988847955}, {"current_trial": 190, "trialdata": {"rt": -1, "trial_type": "single-stim", "stimulus": "<p id=\"stim\">6</p>", "internal_node_id": "0.0-141.0-4.0", "time_elapsed": 1367874, "key_press": -1, "trial_index": 190}, "uniqueid": "MTK2317:3PS7W85Z809NS76G7W679HN3765T90", "dateTime": 1516988848957}, {"current_trial": 191, "trialdata": {"rt": -1, "trial_type": "single-stim", "stimulus": "<p id=\"stim\">5</p>", "internal_node_id": "0.0-141.0-5.0", "time_elapsed": 1368877, "key_press": -1, "trial_index": 191}, "uniqueid": "MTK2317:3PS7W85Z809NS76G7W679HN3765T90", "dateTime": 1516988849960}, {"current_trial": 192, "trialdata": {"rt": -1, "trial_type": "single-stim", "stimulus": "<p id=\"stim\">4</p>", "internal_node_id": "0.0-141.0-6.0", "time_elapsed": 1369879, "key_press": -1, "trial_index": 192}, "uniqueid": "MTK2317:3PS7W85Z809NS76G7W679HN3765T90", "dateTime": 1516988850962}, {"current_trial": 193, "trialdata": {"rt": -1, "trial_type": "single-stim", "stimulus": "<p id=\"stim\">3</p>", "internal_node_id": "0.0-141.0-7.0", "time_elapsed": 1370881, "key_press": -1, "trial_index": 193}, "uniqueid": "MTK2317:3PS7W85Z809NS76G7W679HN3765T90", "dateTime": 1516988851964}, {"current_trial": 194, "trialdata": {"rt": -1, "trial_type": "single-stim", "stimulus": "<p id=\"stim\">2</p>", "internal_node_id": "0.0-141.0-8.0", "time_elapsed": 1371883, "key_press": -1, "trial_index": 194}, "uniqueid": "MTK2317:3PS7W85Z809NS76G7W679HN3765T90", "dateTime": 1516988852966}, {"current_trial": 195, "trialdata": {"rt": -1, "trial_type": "single-stim", "stimulus": "<p id=\"stim\">1</p>", "internal_node_id": "0.0-141.0-9.0", "time_elapsed": 1372884, "key_press": -1, "trial_index": 195}, "uniqueid": "MTK2317:3PS7W85Z809NS76G7W679HN3765T90", "dateTime": 1516988853968}, {"current_trial": 196, "trialdata": {"rt": -1, "trial_type": "single-stim", "stimulus": "<p id=\"stim\">+</p>", "internal_node_id": "0.0-142.0-0.0", "time_elapsed": 1374387, "key_press": -1, "type": "FIXATION", "trial_index": 196}, "uniqueid": "MTK2317:3PS7W85Z809NS76G7W679HN3765T90", "dateTime": 1516988855470}, {"current_trial": 197, "trialdata": {"rt": -1, "trial_type": "single-stim", "word": "sponge", "stimulus": "<p id=\"stim\">SPONGE</p>", "conditions": [24, 800, "v", 12000], "internal_node_id": "0.0-143.0", "trial": 5, "time_elapsed": 1375190, "serialpos": 0, "key_press": -1, "wordID": 1354, "type": "PRES_VIS", "trial_index": 197}, "uniqueid": "MTK2317:3PS7W85Z809NS76G7W679HN3765T90", "dateTime": 1516988856273}, {"current_trial": 198, "trialdata": {"rt": -1, "trial_type": "single-stim", "word": "arm", "stimulus": "<p id=\"stim\">ARM</p>", "conditions": [24, 800, "v", 12000], "internal_node_id": "0.0-144.0", "trial": 5, "time_elapsed": 1376944, "serialpos": 1, "key_press": -1, "wordID": 37, "type": "PRES_VIS", "trial_index": 198}, "uniqueid": "MTK2317:3PS7W85Z809NS76G7W679HN3765T90", "dateTime": 1516988858027}, {"current_trial": 199, "trialdata": {"rt": -1, "trial_type": "single-stim", "word": "hero", "stimulus": "<p id=\"stim\">HERO</p>", "conditions": [24, 800, "v", 12000], "internal_node_id": "0.0-145.0", "trial": 5, "time_elapsed": 1378663, "serialpos": 2, "key_press": -1, "wordID": 705, "type": "PRES_VIS", "trial_index": 199}, "uniqueid": "MTK2317:3PS7W85Z809NS76G7W679HN3765T90", "dateTime": 1516988859746}, {"current_trial": 200, "trialdata": {"rt": -1, "trial_type": "single-stim", "word": "quail", "stimulus": "<p id=\"stim\">QUAIL</p>", "conditions": [24, 800, "v", 12000], "internal_node_id": "0.0-146.0", "trial": 5, "time_elapsed": 1380336, "serialpos": 3, "key_press": -1, "wordID": 1146, "type": "PRES_VIS", "trial_index": 200}, "uniqueid": "MTK2317:3PS7W85Z809NS76G7W679HN3765T90", "dateTime": 1516988861419}, {"current_trial": 201, "trialdata": {"rt": -1, "trial_type": "single-stim", "word": "hedge", "stimulus": "<p id=\"stim\">HEDGE</p>", "conditions": [24, 800, "v", 12000], "internal_node_id": "0.0-147.0", "trial": 5, "time_elapsed": 1382290, "serialpos": 4, "key_press": -1, "wordID": 698, "type": "PRES_VIS", "trial_index": 201}, "uniqueid": "MTK2317:3PS7W85Z809NS76G7W679HN3765T90", "dateTime": 1516988863373}, {"current_trial": 202, "trialdata": {"rt": -1, "trial_type": "single-stim", "word": "shoulder", "stimulus": "<p id=\"stim\">SHOULDER</p>", "conditions": [24, 800, "v", 12000], "internal_node_id": "0.0-148.0", "trial": 5, "time_elapsed": 1384030, "serialpos": 5, "key_press": -1, "wordID": 1293, "type": "PRES_VIS", "trial_index": 202}, "uniqueid": "MTK2317:3PS7W85Z809NS76G7W679HN3765T90", "dateTime": 1516988865113}, {"current_trial": 203, "trialdata": {"rt": -1, "trial_type": "single-stim", "word": "garbage", "stimulus": "<p id=\"stim\">GARBAGE</p>", "conditions": [24, 800, "v", 12000], "internal_node_id": "0.0-149.0", "trial": 5, "time_elapsed": 1385719, "serialpos": 6, "key_press": -1, "wordID": 621, "type": "PRES_VIS", "trial_index": 203}, "uniqueid": "MTK2317:3PS7W85Z809NS76G7W679HN3765T90", "dateTime": 1516988866802}, {"current_trial": 204, "trialdata": {"rt": -1, "trial_type": "single-stim", "word": "peanut", "stimulus": "<p id=\"stim\">PEANUT</p>", "conditions": [24, 800, "v", 12000], "internal_node_id": "0.0-150.0", "trial": 5, "time_elapsed": 1387518, "serialpos": 7, "key_press": -1, "wordID": 1031, "type": "PRES_VIS", "trial_index": 204}, "uniqueid": "MTK2317:3PS7W85Z809NS76G7W679HN3765T90", "dateTime": 1516988868601}, {"current_trial": 205, "trialdata": {"rt": -1, "trial_type": "single-stim", "word": "pecan", "stimulus": "<p id=\"stim\">PECAN</p>", "conditions": [24, 800, "v", 12000], "internal_node_id": "0.0-151.0", "trial": 5, "time_elapsed": 1389272, "serialpos": 8, "key_press": -1, "wordID": 1035, "type": "PRES_VIS", "trial_index": 205}, "uniqueid": "MTK2317:3PS7W85Z809NS76G7W679HN3765T90", "dateTime": 1516988870355}, {"current_trial": 206, "trialdata": {"rt": -1, "trial_type": "single-stim", "word": "student", "stimulus": "<p id=\"stim\">STUDENT</p>", "conditions": [24, 800, "v", 12000], "internal_node_id": "0.0-152.0", "trial": 5, "time_elapsed": 1391186, "serialpos": 9, "key_press": -1, "wordID": 1394, "type": "PRES_VIS", "trial_index": 206}, "uniqueid": "MTK2317:3PS7W85Z809NS76G7W679HN3765T90", "dateTime": 1516988872270}, {"current_trial": 207, "trialdata": {"rt": -1, "trial_type": "single-stim", "word": "human", "stimulus": "<p id=\"stim\">HUMAN</p>", "conditions": [24, 800, "v", 12000], "internal_node_id": "0.0-153.0", "trial": 5, "time_elapsed": 1393087, "serialpos": 10, "key_press": -1, "wordID": 725, "type": "PRES_VIS", "trial_index": 207}, "uniqueid": "MTK2317:3PS7W85Z809NS76G7W679HN3765T90", "dateTime": 1516988874170}, {"current_trial": 208, "trialdata": {"rt": -1, "trial_type": "single-stim", "word": "popcorn", "stimulus": "<p id=\"stim\">POPCORN</p>", "conditions": [24, 800, "v", 12000], "internal_node_id": "0.0-154.0", "trial": 5, "time_elapsed": 1394698, "serialpos": 11, "key_press": -1, "wordID": 1103, "type": "PRES_VIS", "trial_index": 208}, "uniqueid": "MTK2317:3PS7W85Z809NS76G7W679HN3765T90", "dateTime": 1516988875781}, {"current_trial": 209, "trialdata": {"rt": -1, "trial_type": "single-stim", "word": "pebble", "stimulus": "<p id=\"stim\">PEBBLE</p>", "conditions": [24, 800, "v", 12000], "internal_node_id": "0.0-155.0", "trial": 5, "time_elapsed": 1396630, "serialpos": 12, "key_press": -1, "wordID": 1034, "type": "PRES_VIS", "trial_index": 209}, "uniqueid": "MTK2317:3PS7W85Z809NS76G7W679HN3765T90", "dateTime": 1516988877713}, {"current_trial": 210, "trialdata": {"rt": -1, "trial_type": "single-stim", "word": "thief", "stimulus": "<p id=\"stim\">THIEF</p>", "conditions": [24, 800, "v", 12000], "internal_node_id": "0.0-156.0", "trial": 5, "time_elapsed": 1398580, "serialpos": 13, "key_press": -1, "wordID": 1455, "type": "PRES_VIS", "trial_index": 210}, "uniqueid": "MTK2317:3PS7W85Z809NS76G7W679HN3765T90", "dateTime": 1516988879663}, {"current_trial": 211, "trialdata": {"rt": -1, "trial_type": "single-stim", "word": "lizard", "stimulus": "<p id=\"stim\">LIZARD</p>", "conditions": [24, 800, "v", 12000], "internal_node_id": "0.0-157.0", "trial": 5, "time_elapsed": 1400518, "serialpos": 14, "key_press": -1, "wordID": 833, "type": "PRES_VIS", "trial_index": 211}, "uniqueid": "MTK2317:3PS7W85Z809NS76G7W679HN3765T90", "dateTime": 1516988881601}, {"current_trial": 212, "trialdata": {"rt": -1, "trial_type": "single-stim", "word": "panther", "stimulus": "<p id=\"stim\">PANTHER</p>", "conditions": [24, 800, "v", 12000], "internal_node_id": "0.0-158.0", "trial": 5, "time_elapsed": 1402146, "serialpos": 15, "key_press": -1, "wordID": 1008, "type": "PRES_VIS", "trial_index": 212}, "uniqueid": "MTK2317:3PS7W85Z809NS76G7W679HN3765T90", "dateTime": 1516988883229}, {"current_trial": 213, "trialdata": {"rt": -1, "trial_type": "single-stim", "word": "chemist", "stimulus": "<p id=\"stim\">CHEMIST</p>", "conditions": [24, 800, "v", 12000], "internal_node_id": "0.0-159.0", "trial": 5, "time_elapsed": 1404061, "serialpos": 16, "key_press": -1, "wordID": 291, "type": "PRES_VIS", "trial_index": 213}, "uniqueid": "MTK2317:3PS7W85Z809NS76G7W679HN3765T90", "dateTime": 1516988885144}, {"current_trial": 214, "trialdata": {"rt": -1, "trial_type": "single-stim", "word": "lapel", "stimulus": "<p id=\"stim\">LAPEL</p>", "conditions": [24, 800, "v", 12000], "internal_node_id": "0.0-160.0", "trial": 5, "time_elapsed": 1405872, "serialpos": 17, "key_press": -1, "wordID": 799, "type": "PRES_VIS", "trial_index": 214}, "uniqueid": "MTK2317:3PS7W85Z809NS76G7W679HN3765T90", "dateTime": 1516988886956}, {"current_trial": 215, "trialdata": {"rt": -1, "trial_type": "single-stim", "word": "turnip", "stimulus": "<p id=\"stim\">TURNIP</p>", "conditions": [24, 800, "v", 12000], "internal_node_id": "0.0-161.0", "trial": 5, "time_elapsed": 1407760, "serialpos": 18, "key_press": -1, "wordID": 1520, "type": "PRES_VIS", "trial_index": 215}, "uniqueid": "MTK2317:3PS7W85Z809NS76G7W679HN3765T90", "dateTime": 1516988888843}, {"current_trial": 216, "trialdata": {"rt": -1, "trial_type": "single-stim", "word": "mailman", "stimulus": "<p id=\"stim\">MAILMAN</p>", "conditions": [24, 800, "v", 12000], "internal_node_id": "0.0-162.0", "trial": 5, "time_elapsed": 1409466, "serialpos": 19, "key_press": -1, "wordID": 857, "type": "PRES_VIS", "trial_index": 216}, "uniqueid": "MTK2317:3PS7W85Z809NS76G7W679HN3765T90", "dateTime": 1516988890549}, {"current_trial": 217, "trialdata": {"rt": -1, "trial_type": "single-stim", "word": "robber", "stimulus": "<p id=\"stim\">ROBBER</p>", "conditions": [24, 800, "v", 12000], "internal_node_id": "0.0-163.0", "trial": 5, "time_elapsed": 1411083, "serialpos": 20, "key_press": -1, "wordID": 1196, "type": "PRES_VIS", "trial_index": 217}, "uniqueid": "MTK2317:3PS7W85Z809NS76G7W679HN3765T90", "dateTime": 1516988892166}, {"current_trial": 218, "trialdata": {"rt": -1, "trial_type": "single-stim", "word": "canyon", "stimulus": "<p id=\"stim\">CANYON</p>", "conditions": [24, 800, "v", 12000], "internal_node_id": "0.0-164.0", "trial": 5, "time_elapsed": 1413017, "serialpos": 21, "key_press": -1, "wordID": 234, "type": "PRES_VIS", "trial_index": 218}, "uniqueid": "MTK2317:3PS7W85Z809NS76G7W679HN3765T90", "dateTime": 1516988894100}, {"current_trial": 219, "trialdata": {"rt": -1, "trial_type": "single-stim", "word": "airport", "stimulus": "<p id=\"stim\">AIRPORT</p>", "conditions": [24, 800, "v", 12000], "internal_node_id": "0.0-165.0", "trial": 5, "time_elapsed": 1414667, "serialpos": 22, "key_press": -1, "wordID": 12, "type": "PRES_VIS", "trial_index": 219}, "uniqueid": "MTK2317:3PS7W85Z809NS76G7W679HN3765T90", "dateTime": 1516988895750}, {"current_trial": 220, "trialdata": {"rt": -1, "trial_type": "single-stim", "word": "penguin", "stimulus": "<p id=\"stim\">PENGUIN</p>", "conditions": [24, 800, "v", 12000], "internal_node_id": "0.0-166.0", "trial": 5, "time_elapsed": 1416581, "serialpos": 23, "key_press": -1, "wordID": 1043, "type": "PRES_VIS", "trial_index": 220}, "uniqueid": "MTK2317:3PS7W85Z809NS76G7W679HN3765T90", "dateTime": 1516988897664}, {"current_trial": 221, "trialdata": {"rt": -1, "trial_type": "single-stim", "stimulus": "", "internal_node_id": "0.0-167.0-0.0", "time_elapsed": 1419046, "key_press": -1, "type": "PRE_RECALL_DELAY", "trial_index": 221}, "uniqueid": "MTK2317:3PS7W85Z809NS76G7W679HN3765T90", "dateTime": 1516988900129}, {"current_trial": 222, "trialdata": {"rt": -1000, "trial_type": "single-audio", "stimulus": "/static/audio/400Hz.wav", "internal_node_id": "0.0-168.0", "time_elapsed": 1419548, "key_press": -1, "type": "PRE_RECALL_ALERT", "trial_index": 222}, "uniqueid": "MTK2317:3PS7W85Z809NS76G7W679HN3765T90", "dateTime": 1516988900631}, {"current_trial": 223, "trialdata": {"rt": [255, 2692, 4370, 5169, 5370, 7382, 10429, 11172, 14100, 18664, 20374, 22296, 27153, 41373], "recwords": ["", "penguin", "spone", "arm", "", "hero", "sholder", "hand", "studen", "human", "thief", "robber", "peanut", "peach"], "key_times": [255, 1409, 1569, 1654, 1939, 2119, 2280, 2493, 2692, 3248, 3623, 3793, 3967, 4107, 4370, 4626, 4785, 4991, 5169, 5370, 6362, 6874, 7027, 7133, 7382, 8495, 8590, 9143, 9269, 9372, 9452, 9612, 9848, 9987, 10133, 10241, 10429, 10717, 10821, 10914, 10999, 11172, 13103, 13277, 13447, 13603, 13756, 13887, 14100, 15382, 15570, 15836, 15939, 16980, 17798, 18295, 18402, 18476, 18664, 19025, 19104, 19257, 19722, 20185, 20374, 20652, 20732, 20926, 21210, 21697, 21810, 22009, 22120, 22296, 26265, 26341, 26475, 26601, 26825, 26992, 27153, 39329, 39620, 40240, 40690, 40811, 41373], "trial_type": "free-recall", "conditions": [24, 800, "v", 12000], "internal_node_id": "0.0-169.0-0.0", "key_presses": [13, 80, 69, 78, 71, 85, 73, 78, 13, 83, 80, 79, 78, 69, 13, 65, 82, 77, 32, 13, 72, 69, 82, 79, 13, 72, 83, 8, 8, 83, 72, 79, 76, 68, 69, 82, 13, 72, 65, 78, 68, 13, 83, 84, 85, 68, 69, 78, 13, 72, 85, 65, 78, 8, 8, 77, 65, 78, 13, 84, 72, 73, 69, 70, 13, 82, 79, 66, 69, 8, 66, 69, 82, 13, 80, 69, 65, 78, 85, 84, 13, 80, 69, 65, 67, 72, 13], "trial": 5, "time_elapsed": 1479553, "type": "FREE_RECALL", "trial_index": 223}, "uniqueid": "MTK2317:3PS7W85Z809NS76G7W679HN3765T90", "dateTime": 1516988960643}, {"current_trial": 224, "trialdata": {"rt": 1054, "trial_type": "text", "internal_node_id": "0.0-170.0", "time_elapsed": 1482616, "key_press": 13, "type": "INSTRUCTIONS", "trial_index": 224}, "uniqueid": "MTK2317:3PS7W85Z809NS76G7W679HN3765T90", "dateTime": 1516988963699}, {"current_trial": 225, "trialdata": {"rt": [2532, 4280, 5629, 8020, 10068, 13048, 15199, 18269, 20279, 22163, 23547], "trial_type": "math-distractor", "key_times": [2159, 2327, 2532, 4029, 4280, 5382, 5629, 7484, 7750, 8020, 9685, 9855, 10068, 12567, 12814, 13048, 14794, 14974, 15199, 17900, 18073, 18269, 19833, 20061, 20279, 21920, 22163, 23317, 23547], "responses": ["", "", "", "", "", "", "", "", "", "", ""], "num2": [6, 7, 1, 2, 1, 8, 3, 1, 3, 3, 3, 3], "num3": [3, 1, 2, 7, 3, 1, 3, 6, 5, 2, 1, 4], "conditions": [24, 800, "v", 24000], "internal_node_id": "0.0-171.0", "key_presses": [35, 40, 13, 33, 13, 37, 13, 35, 34, 13, 35, 45, 13, 35, 34, 13, 35, 45, 13, 35, 12, 13, 35, 34, 13, 36, 13, 12, 13], "trial": 6, "time_elapsed": 1508620, "type": "DISTRACTOR", "trial_index": 225, "num1": [2, 1, 1, 4, 6, 4, 4, 8, 5, 2, 1, 2]}, "uniqueid": "MTK2317:3PS7W85Z809NS76G7W679HN3765T90", "dateTime": 1516988989703}, {"current_trial": 226, "trialdata": {"rt": -1, "trial_type": "single-stim", "stimulus": "<p id=\"stim\">10</p>", "internal_node_id": "0.0-172.0-0.0", "time_elapsed": 1511623, "key_press": -1, "trial_index": 226}, "uniqueid": "MTK2317:3PS7W85Z809NS76G7W679HN3765T90", "dateTime": 1516988992706}, {"current_trial": 227, "trialdata": {"rt": -1, "trial_type": "single-stim", "stimulus": "<p id=\"stim\">9</p>", "internal_node_id": "0.0-172.0-1.0", "time_elapsed": 1512625, "key_press": -1, "trial_index": 227}, "uniqueid": "MTK2317:3PS7W85Z809NS76G7W679HN3765T90", "dateTime": 1516988993708}, {"current_trial": 228, "trialdata": {"rt": -1, "trial_type": "single-stim", "stimulus": "<p id=\"stim\">8</p>", "internal_node_id": "0.0-172.0-2.0", "time_elapsed": 1513628, "key_press": -1, "trial_index": 228}, "uniqueid": "MTK2317:3PS7W85Z809NS76G7W679HN3765T90", "dateTime": 1516988994711}, {"current_trial": 229, "trialdata": {"rt": -1, "trial_type": "single-stim", "stimulus": "<p id=\"stim\">7</p>", "internal_node_id": "0.0-172.0-3.0", "time_elapsed": 1514630, "key_press": -1, "trial_index": 229}, "uniqueid": "MTK2317:3PS7W85Z809NS76G7W679HN3765T90", "dateTime": 1516988995713}, {"current_trial": 230, "trialdata": {"rt": -1, "trial_type": "single-stim", "stimulus": "<p id=\"stim\">6</p>", "internal_node_id": "0.0-172.0-4.0", "time_elapsed": 1515632, "key_press": -1, "trial_index": 230}, "uniqueid": "MTK2317:3PS7W85Z809NS76G7W679HN3765T90", "dateTime": 1516988996715}, {"current_trial": 231, "trialdata": {"rt": -1, "trial_type": "single-stim", "stimulus": "<p id=\"stim\">5</p>", "internal_node_id": "0.0-172.0-5.0", "time_elapsed": 1516634, "key_press": -1, "trial_index": 231}, "uniqueid": "MTK2317:3PS7W85Z809NS76G7W679HN3765T90", "dateTime": 1516988997717}, {"current_trial": 232, "trialdata": {"rt": -1, "trial_type": "single-stim", "stimulus": "<p id=\"stim\">4</p>", "internal_node_id": "0.0-172.0-6.0", "time_elapsed": 1517636, "key_press": -1, "trial_index": 232}, "uniqueid": "MTK2317:3PS7W85Z809NS76G7W679HN3765T90", "dateTime": 1516988998720}, {"current_trial": 233, "trialdata": {"rt": -1, "trial_type": "single-stim", "stimulus": "<p id=\"stim\">3</p>", "internal_node_id": "0.0-172.0-7.0", "time_elapsed": 1518638, "key_press": -1, "trial_index": 233}, "uniqueid": "MTK2317:3PS7W85Z809NS76G7W679HN3765T90", "dateTime": 1516988999721}, {"current_trial": 234, "trialdata": {"rt": -1, "trial_type": "single-stim", "stimulus": "<p id=\"stim\">2</p>", "internal_node_id": "0.0-172.0-8.0", "time_elapsed": 1519640, "key_press": -1, "trial_index": 234}, "uniqueid": "MTK2317:3PS7W85Z809NS76G7W679HN3765T90", "dateTime": 1516989000723}, {"current_trial": 235, "trialdata": {"rt": -1, "trial_type": "single-stim", "stimulus": "<p id=\"stim\">1</p>", "internal_node_id": "0.0-172.0-9.0", "time_elapsed": 1520642, "key_press": -1, "trial_index": 235}, "uniqueid": "MTK2317:3PS7W85Z809NS76G7W679HN3765T90", "dateTime": 1516989001725}, {"current_trial": 236, "trialdata": {"rt": -1, "trial_type": "single-stim", "stimulus": "<p id=\"stim\">+</p>", "internal_node_id": "0.0-173.0-0.0", "time_elapsed": 1522144, "key_press": -1, "type": "FIXATION", "trial_index": 236}, "uniqueid": "MTK2317:3PS7W85Z809NS76G7W679HN3765T90", "dateTime": 1516989003227}, {"current_trial": 237, "trialdata": {"rt": -1, "trial_type": "single-stim", "word": "wasp", "stimulus": "<p id=\"stim\">WASP</p>", "conditions": [24, 800, "v", 24000], "internal_node_id": "0.0-174.0", "trial": 6, "time_elapsed": 1522947, "serialpos": 0, "key_press": -1, "wordID": 1592, "type": "PRES_VIS", "trial_index": 237}, "uniqueid": "MTK2317:3PS7W85Z809NS76G7W679HN3765T90", "dateTime": 1516989004030}, {"current_trial": 238, "trialdata": {"rt": -1, "trial_type": "single-stim", "word": "robin", "stimulus": "<p id=\"stim\">ROBIN</p>", "conditions": [24, 800, "v", 24000], "internal_node_id": "0.0-175.0", "trial": 6, "time_elapsed": 1524732, "serialpos": 1, "key_press": -1, "wordID": 1198, "type": "PRES_VIS", "trial_index": 238}, "uniqueid": "MTK2317:3PS7W85Z809NS76G7W679HN3765T90", "dateTime": 1516989005815}, {"current_trial": 239, "trialdata": {"rt": -1, "trial_type": "single-stim", "word": "skirt", "stimulus": "<p id=\"stim\">SKIRT</p>", "conditions": [24, 800, "v", 24000], "internal_node_id": "0.0-176.0", "trial": 6, "time_elapsed": 1526554, "serialpos": 2, "key_press": -1, "wordID": 1318, "type": "PRES_VIS", "trial_index": 239}, "uniqueid": "MTK2317:3PS7W85Z809NS76G7W679HN3765T90", "dateTime": 1516989007637}, {"current_trial": 240, "trialdata": {"rt": -1, "trial_type": "single-stim", "word": "fireplace", "stimulus": "<p id=\"stim\">FIREPLACE</p>", "conditions": [24, 800, "v", 24000], "internal_node_id": "0.0-177.0", "trial": 6, "time_elapsed": 1528370, "serialpos": 3, "key_press": -1, "wordID": 569, "type": "PRES_VIS", "trial_index": 240}, "uniqueid": "MTK2317:3PS7W85Z809NS76G7W679HN3765T90", "dateTime": 1516989009453}, {"current_trial": 241, "trialdata": {"rt": -1, "trial_type": "single-stim", "word": "waitress", "stimulus": "<p id=\"stim\">WAITRESS</p>", "conditions": [24, 800, "v", 24000], "internal_node_id": "0.0-178.0", "trial": 6, "time_elapsed": 1530351, "serialpos": 4, "key_press": -1, "wordID": 1580, "type": "PRES_VIS", "trial_index": 241}, "uniqueid": "MTK2317:3PS7W85Z809NS76G7W679HN3765T90", "dateTime": 1516989011434}, {"current_trial": 242, "trialdata": {"rt": -1, "trial_type": "single-stim", "word": "candy", "stimulus": "<p id=\"stim\">CANDY</p>", "conditions": [24, 800, "v", 24000], "internal_node_id": "0.0-179.0", "trial": 6, "time_elapsed": 1532232, "serialpos": 5, "key_press": -1, "wordID": 229, "type": "PRES_VIS", "trial_index": 242}, "uniqueid": "MTK2317:3PS7W85Z809NS76G7W679HN3765T90", "dateTime": 1516989013315}, {"current_trial": 243, "trialdata": {"rt": -1, "trial_type": "single-stim", "word": "eagle", "stimulus": "<p id=\"stim\">EAGLE</p>", "conditions": [24, 800, "v", 24000], "internal_node_id": "0.0-180.0", "trial": 6, "time_elapsed": 1534085, "serialpos": 6, "key_press": -1, "wordID": 511, "type": "PRES_VIS", "trial_index": 243}, "uniqueid": "MTK2317:3PS7W85Z809NS76G7W679HN3765T90", "dateTime": 1516989015168}, {"current_trial": 244, "trialdata": {"rt": -1, "trial_type": "single-stim", "word": "stove", "stimulus": "<p id=\"stim\">STOVE</p>", "conditions": [24, 800, "v", 24000], "internal_node_id": "0.0-181.0", "trial": 6, "time_elapsed": 1535733, "serialpos": 7, "key_press": -1, "wordID": 1387, "type": "PRES_VIS", "trial_index": 244}, "uniqueid": "MTK2317:3PS7W85Z809NS76G7W679HN3765T90", "dateTime": 1516989016816}, {"current_trial": 245, "trialdata": {"rt": -1, "trial_type": "single-stim", "word": "sibling", "stimulus": "<p id=\"stim\">SIBLING</p>", "conditions": [24, 800, "v", 24000], "internal_node_id": "0.0-182.0", "trial": 6, "time_elapsed": 1537593, "serialpos": 8, "key_press": -1, "wordID": 1300, "type": "PRES_VIS", "trial_index": 245}, "uniqueid": "MTK2317:3PS7W85Z809NS76G7W679HN3765T90", "dateTime": 1516989018676}, {"current_trial": 246, "trialdata": {"rt": -1, "trial_type": "single-stim", "word": "seal", "stimulus": "<p id=\"stim\">SEAL</p>", "conditions": [24, 800, "v", 24000], "internal_node_id": "0.0-183.0", "trial": 6, "time_elapsed": 1539339, "serialpos": 9, "key_press": -1, "wordID": 1261, "type": "PRES_VIS", "trial_index": 246}, "uniqueid": "MTK2317:3PS7W85Z809NS76G7W679HN3765T90", "dateTime": 1516989020422}, {"current_trial": 247, "trialdata": {"rt": -1, "trial_type": "single-stim", "word": "patient", "stimulus": "<p id=\"stim\">PATIENT</p>", "conditions": [24, 800, "v", 24000], "internal_node_id": "0.0-184.0", "trial": 6, "time_elapsed": 1541169, "serialpos": 10, "key_press": -1, "wordID": 1023, "type": "PRES_VIS", "trial_index": 247}, "uniqueid": "MTK2317:3PS7W85Z809NS76G7W679HN3765T90", "dateTime": 1516989022252}, {"current_trial": 248, "trialdata": {"rt": -1, "trial_type": "single-stim", "word": "scalpel", "stimulus": "<p id=\"stim\">SCALPEL</p>", "conditions": [24, 800, "v", 24000], "internal_node_id": "0.0-185.0", "trial": 6, "time_elapsed": 1542827, "serialpos": 11, "key_press": -1, "wordID": 1242, "type": "PRES_VIS", "trial_index": 248}, "uniqueid": "MTK2317:3PS7W85Z809NS76G7W679HN3765T90", "dateTime": 1516989023910}, {"current_trial": 249, "trialdata": {"rt": -1, "trial_type": "single-stim", "word": "omelet", "stimulus": "<p id=\"stim\">OMELET</p>", "conditions": [24, 800, "v", 24000], "internal_node_id"