{"assignmentId": "3ZDAD0O1T2KDT3OEACCLPK9LGDOXTP", "workerId": "MTK2962", "questiondata": {"origin": "United States", "strat-rehearsal": "44", "marital": "Widowed", "education": "High school diploma", "ethnicity": "Not Hispanic", "color_depth": 24, "distracted": "No", "wrote-notes": "No", "strat-other": "", "screen_width": 1366, "avail_screen_width": 1366, "avail_screen_height": 728, "strat-image": "60", "language": "english", "gender": "Female", "age": "31", "gender_other": "", "race": ["White"], "strat-categorize": "44", "pixel_depth": 24, "strat-spatial": "44", "strat-story": "31", "race_other": "", "screen_height": 768}, "bonus": 0, "hitId": "30Y6N4AHYP3KSY8BPL1C6E9RRXZDRO", "counterbalance": 1427, "useragent": "Mozilla/5.0 (Windows NT 10.0; Win64; x64) AppleWebKit/537.36 (KHTML, like Gecko) Chrome/64.0.3282.186 Safari/537.36", "eventdata": [{"eventtype": "initialized", "interval": 0, "value": null, "timestamp": 1519601146703}, {"eventtype": "window_resize", "interval": 1, "value": [1366, 721], "timestamp": 1519601146704}, {"eventtype": "focus", "interval": 6847, "value": "off", "timestamp": 1519601153551}, {"eventtype": "focus", "interval": 3302, "value": "on", "timestamp": 1519601156853}, {"eventtype": "focus", "interval": 186633, "value": "off", "timestamp": 1519601343486}, {"eventtype": "focus", "interval": 2648, "value": "on", "timestamp": 1519601346134}, {"eventtype": "window_resize", "interval": 197522, "value": [1366, 677], "timestamp": 1519601543656}, {"eventtype": "focus", "interval": 928763, "value": "off", "timestamp": 1519602472419}, {"eventtype": "focus", "interval": 8273, "value": "on", "timestamp": 1519602480692}, {"eventtype": "focus", "interval": 1271124, "value": "off", "timestamp": 1519603751816}, {"eventtype": "focus", "interval": 3016, "value": "on", "timestamp": 1519603754832}, {"eventtype": "focus", "interval": 332104, "value": "off", "timestamp": 1519604086936}, {"eventtype": "focus", "interval": 16554, "value": "on", "timestamp": 1519604103490}, {"eventtype": "focus", "interval": 380605, "value": "off", "timestamp": 1519604484095}, {"eventtype": "focus", "interval": 3967, "value": "on", "timestamp": 1519604488062}, {"eventtype": "focus", "interval": 513891, "value": "off", "timestamp": 1519605001953}, {"eventtype": "focus", "interval": 2247, "value": "on", "timestamp": 1519605004200}, {"eventtype": "focus", "interval": 2691, "value": "off", "timestamp": 1519605006891}, {"eventtype": "focus", "interval": 10272, "value": "on", "timestamp": 1519605017163}, {"eventtype": "focus", "interval": 67330, "value": "off", "timestamp": 1519605084493}, {"eventtype": "focus", "interval": 2630, "value": "on", "timestamp": 1519605087123}], "data": [{"current_trial": 0, "trialdata": {"rt": 85771, "trial_type": "text", "internal_node_id": "0.0-0.0", "time_elapsed": 85774, "key_press": 13, "type": "INSTRUCTIONS", "trial_index": 0}, "uniqueid": "MTK2962:3ZDAD0O1T2KDT3OEACCLPK9LGDOXTP", "dateTime": 1519601280267}, {"current_trial": 1, "trialdata": {"rt": 29282, "trial_type": "text", "internal_node_id": "0.0-1.0", "time_elapsed": 115061, "key_press": 13, "type": "INSTRUCTIONS", "trial_index": 1}, "uniqueid": "MTK2962:3ZDAD0O1T2KDT3OEACCLPK9LGDOXTP", "dateTime": 1519601309553}, {"current_trial": 2, "trialdata": {"rt": [6168], "trial_type": "audio-test", "responses": ["ocean"], "internal_node_id": "0.0-2.0", "time_elapsed": 121376, "type": "AUDIO_TEST", "trial_index": 2}, "uniqueid": "MTK2962:3ZDAD0O1T2KDT3OEACCLPK9LGDOXTP", "dateTime": 1519601315868}, {"current_trial": 3, "trialdata": {"rt": [13109], "trial_type": "audio-test", "responses": ["crystal"], "internal_node_id": "0.0-3.0", "time_elapsed": 134492, "type": "AUDIO_TEST", "trial_index": 3}, "uniqueid": "MTK2962:3ZDAD0O1T2KDT3OEACCLPK9LGDOXTP", "dateTime": 1519601328984}, {"current_trial": 4, "trialdata": {"rt": [17724], "trial_type": "audio-test", "responses": ["spice"], "internal_node_id": "0.0-4.0", "time_elapsed": 152224, "type": "AUDIO_TEST", "trial_index": 4}, "uniqueid": "MTK2962:3ZDAD0O1T2KDT3OEACCLPK9LGDOXTP", "dateTime": 1519601346716}, {"current_trial": 5, "trialdata": {"rt": 28245, "trial_type": "survey-text", "responses": "{\"Q0\":\"7 am \",\"Q1\":\"4 pm\",\"Q2\":\"4\"}", "internal_node_id": "0.0-5.0", "time_elapsed": 181228, "type": "SLEEP_SURVEY", "trial_index": 5}, "uniqueid": "MTK2962:3ZDAD0O1T2KDT3OEACCLPK9LGDOXTP", "dateTime": 1519601375720}, {"current_trial": 6, "trialdata": {"rt": 167765, "trial_type": "text", "internal_node_id": "0.0-6.0", "time_elapsed": 349993, "key_press": 13, "type": "INSTRUCTIONS", "trial_index": 6}, "uniqueid": "MTK2962:3ZDAD0O1T2KDT3OEACCLPK9LGDOXTP", "dateTime": 1519601544485}, {"current_trial": 7, "trialdata": {"rt": 21720, "trial_type": "text", "internal_node_id": "0.0-7.0", "time_elapsed": 372214, "key_press": 13, "type": "INSTRUCTIONS", "trial_index": 7}, "uniqueid": "MTK2962:3ZDAD0O1T2KDT3OEACCLPK9LGDOXTP", "dateTime": 1519601566706}, {"current_trial": 8, "trialdata": {"rt": 10996, "trial_type": "text", "internal_node_id": "0.0-8.0", "time_elapsed": 383712, "key_press": 13, "type": "INSTRUCTIONS", "trial_index": 8}, "uniqueid": "MTK2962:3ZDAD0O1T2KDT3OEACCLPK9LGDOXTP", "dateTime": 1519601578204}, {"current_trial": 9, "trialdata": {"rt": [13339], "trial_type": "math-distractor", "key_times": [12547, 12938, 13339], "responses": ["13"], "num2": [4, 6], "num3": [8, 1], "conditions": [18, 1200, "a", 18000], "internal_node_id": "0.0-9.0", "key_presses": [97, 99, 13], "trial": 0, "time_elapsed": 402787, "type": "DISTRACTOR", "trial_index": 9, "num1": [1, 2]}, "uniqueid": "MTK2962:3ZDAD0O1T2KDT3OEACCLPK9LGDOXTP", "dateTime": 1519601597279}, {"current_trial": 10, "trialdata": {"rt": -1, "trial_type": "single-stim", "stimulus": "<p id=\"stim\">10</p>", "internal_node_id": "0.0-10.0-0.0", "time_elapsed": 405790, "key_press": -1, "trial_index": 10}, "uniqueid": "MTK2962:3ZDAD0O1T2KDT3OEACCLPK9LGDOXTP", "dateTime": 1519601600284}, {"current_trial": 11, "trialdata": {"rt": -1, "trial_type": "single-stim", "stimulus": "<p id=\"stim\">9</p>", "internal_node_id": "0.0-10.0-1.0", "time_elapsed": 406793, "key_press": -1, "trial_index": 11}, "uniqueid": "MTK2962:3ZDAD0O1T2KDT3OEACCLPK9LGDOXTP", "dateTime": 1519601601285}, {"current_trial": 12, "trialdata": {"rt": -1, "trial_type": "single-stim", "stimulus": "<p id=\"stim\">8</p>", "internal_node_id": "0.0-10.0-2.0", "time_elapsed": 407793, "key_press": -1, "trial_index": 12}, "uniqueid": "MTK2962:3ZDAD0O1T2KDT3OEACCLPK9LGDOXTP", "dateTime": 1519601602285}, {"current_trial": 13, "trialdata": {"rt": -1, "trial_type": "single-stim", "stimulus": "<p id=\"stim\">7</p>", "internal_node_id": "0.0-10.0-3.0", "time_elapsed": 408798, "key_press": -1, "trial_index": 13}, "uniqueid": "MTK2962:3ZDAD0O1T2KDT3OEACCLPK9LGDOXTP", "dateTime": 1519601603290}, {"current_trial": 14, "trialdata": {"rt": -1, "trial_type": "single-stim", "stimulus": "<p id=\"stim\">6</p>", "internal_node_id": "0.0-10.0-4.0", "time_elapsed": 409801, "key_press": -1, "trial_index": 14}, "uniqueid": "MTK2962:3ZDAD0O1T2KDT3OEACCLPK9LGDOXTP", "dateTime": 1519601604293}, {"current_trial": 15, "trialdata": {"rt": -1, "trial_type": "single-stim", "stimulus": "<p id=\"stim\">5</p>", "internal_node_id": "0.0-10.0-5.0", "time_elapsed": 410801, "key_press": -1, "trial_index": 15}, "uniqueid": "MTK2962:3ZDAD0O1T2KDT3OEACCLPK9LGDOXTP", "dateTime": 1519601605294}, {"current_trial": 16, "trialdata": {"rt": -1, "trial_type": "single-stim", "stimulus": "<p id=\"stim\">4</p>", "internal_node_id": "0.0-10.0-6.0", "time_elapsed": 411803, "key_press": -1, "trial_index": 16}, "uniqueid": "MTK2962:3ZDAD0O1T2KDT3OEACCLPK9LGDOXTP", "dateTime": 1519601606295}, {"current_trial": 17, "trialdata": {"rt": -1, "trial_type": "single-stim", "stimulus": "<p id=\"stim\">3</p>", "internal_node_id": "0.0-10.0-7.0", "time_elapsed": 412805, "key_press": -1, "trial_index": 17}, "uniqueid": "MTK2962:3ZDAD0O1T2KDT3OEACCLPK9LGDOXTP", "dateTime": 1519601607297}, {"current_trial": 18, "trialdata": {"rt": -1, "trial_type": "single-stim", "stimulus": "<p id=\"stim\">2</p>", "internal_node_id": "0.0-10.0-8.0", "time_elapsed": 413805, "key_press": -1, "trial_index": 18}, "uniqueid": "MTK2962:3ZDAD0O1T2KDT3OEACCLPK9LGDOXTP", "dateTime": 1519601608297}, {"current_trial": 19, "trialdata": {"rt": -1, "trial_type": "single-stim", "stimulus": "<p id=\"stim\">1</p>", "internal_node_id": "0.0-10.0-9.0", "time_elapsed": 414807, "key_press": -1, "trial_index": 19}, "uniqueid": "MTK2962:3ZDAD0O1T2KDT3OEACCLPK9LGDOXTP", "dateTime": 1519601609300}, {"current_trial": 20, "trialdata": {"rt": -1, "trial_type": "single-stim", "stimulus": "<p id=\"stim\">+</p>", "internal_node_id": "0.0-11.0-0.0", "time_elapsed": 416309, "key_press": -1, "type": "FIXATION", "trial_index": 20}, "uniqueid": "MTK2962:3ZDAD0O1T2KDT3OEACCLPK9LGDOXTP", "dateTime": 1519601610801}, {"current_trial": 21, "trialdata": {"rt": -1000, "trial_type": "single-audio", "word": "spool", "stimulus": "/static/audio/wordpool/SPOOL.wav", "conditions": [18, 1200, "a", 18000], "internal_node_id": "0.0-12.0", "trial": 0, "time_elapsed": 418713, "serialpos": 0, "key_press": -1, "wordID": 1355, "type": "PRES_AUD", "trial_index": 21}, "uniqueid": "MTK2962:3ZDAD0O1T2KDT3OEACCLPK9LGDOXTP", "dateTime": 1519601613205}, {"current_trial": 22, "trialdata": {"rt": -1000, "trial_type": "single-audio", "word": "thief", "stimulus": "/static/audio/wordpool/THIEF.wav", "conditions": [18, 1200, "a", 18000], "internal_node_id": "0.0-13.0", "trial": 0, "time_elapsed": 420909, "serialpos": 1, "key_press": -1, "wordID": 1455, "type": "PRES_AUD", "trial_index": 22}, "uniqueid": "MTK2962:3ZDAD0O1T2KDT3OEACCLPK9LGDOXTP", "dateTime": 1519601615401}, {"current_trial": 23, "trialdata": {"rt": -1000, "trial_type": "single-audio", "word": "crayon", "stimulus": "/static/audio/wordpool/CRAYON.wav", "conditions": [18, 1200, "a", 18000], "internal_node_id": "0.0-14.0", "trial": 0, "time_elapsed": 423020, "serialpos": 2, "key_press": -1, "wordID": 400, "type": "PRES_AUD", "trial_index": 23}, "uniqueid": "MTK2962:3ZDAD0O1T2KDT3OEACCLPK9LGDOXTP", "dateTime": 1519601617512}, {"current_trial": 24, "trialdata": {"rt": -1000, "trial_type": "single-audio", "word": "captive", "stimulus": "/static/audio/wordpool/CAPTIVE.wav", "conditions": [18, 1200, "a", 18000], "internal_node_id": "0.0-15.0", "trial": 0, "time_elapsed": 425031, "serialpos": 3, "key_press": -1, "wordID": 239, "type": "PRES_AUD", "trial_index": 24}, "uniqueid": "MTK2962:3ZDAD0O1T2KDT3OEACCLPK9LGDOXTP", "dateTime": 1519601619523}, {"current_trial": 25, "trialdata": {"rt": -1000, "trial_type": "single-audio", "word": "stomach", "stimulus": "/static/audio/wordpool/STOMACH.wav", "conditions": [18, 1200, "a", 18000], "internal_node_id": "0.0-16.0", "trial": 0, "time_elapsed": 427075, "serialpos": 4, "key_press": -1, "wordID": 1383, "type": "PRES_AUD", "trial_index": 25}, "uniqueid": "MTK2962:3ZDAD0O1T2KDT3OEACCLPK9LGDOXTP", "dateTime": 1519601621568}, {"current_trial": 26, "trialdata": {"rt": -1000, "trial_type": "single-audio", "word": "boyfriend", "stimulus": "/static/audio/wordpool/BOYFRIEND.wav", "conditions": [18, 1200, "a", 18000], "internal_node_id": "0.0-17.0", "trial": 0, "time_elapsed": 429395, "serialpos": 5, "key_press": -1, "wordID": 161, "type": "PRES_AUD", "trial_index": 26}, "uniqueid": "MTK2962:3ZDAD0O1T2KDT3OEACCLPK9LGDOXTP", "dateTime": 1519601623887}, {"current_trial": 27, "trialdata": {"rt": -1000, "trial_type": "single-audio", "word": "parsley", "stimulus": "/static/audio/wordpool/PARSLEY.wav", "conditions": [18, 1200, "a", 18000], "internal_node_id": "0.0-18.0", "trial": 0, "time_elapsed": 431633, "serialpos": 6, "key_press": -1, "wordID": 1015, "type": "PRES_AUD", "trial_index": 27}, "uniqueid": "MTK2962:3ZDAD0O1T2KDT3OEACCLPK9LGDOXTP", "dateTime": 1519601626125}, {"current_trial": 28, "trialdata": {"rt": -1000, "trial_type": "single-audio", "word": "rocket", "stimulus": "/static/audio/wordpool/ROCKET.wav", "conditions": [18, 1200, "a", 18000], "internal_node_id": "0.0-19.0", "trial": 0, "time_elapsed": 433938, "serialpos": 7, "key_press": -1, "wordID": 1201, "type": "PRES_AUD", "trial_index": 28}, "uniqueid": "MTK2962:3ZDAD0O1T2KDT3OEACCLPK9LGDOXTP", "dateTime": 1519601628430}, {"current_trial": 29, "trialdata": {"rt": -1000, "trial_type": "single-audio", "word": "tombstone", "stimulus": "/static/audio/wordpool/TOMBSTONE.wav", "conditions": [18, 1200, "a", 18000], "internal_node_id": "0.0-20.0", "trial": 0, "time_elapsed": 436223, "serialpos": 8, "key_press": -1, "wordID": 1477, "type": "PRES_AUD", "trial_index": 29}, "uniqueid": "MTK2962:3ZDAD0O1T2KDT3OEACCLPK9LGDOXTP", "dateTime": 1519601630715}, {"current_trial": 30, "trialdata": {"rt": -1000, "trial_type": "single-audio", "word": "puddle", "stimulus": "/static/audio/wordpool/PUDDLE.wav", "conditions": [18, 1200, "a", 18000], "internal_node_id": "0.0-21.0", "trial": 0, "time_elapsed": 438498, "serialpos": 9, "key_press": -1, "wordID": 1139, "type": "PRES_AUD", "trial_index": 30}, "uniqueid": "MTK2962:3ZDAD0O1T2KDT3OEACCLPK9LGDOXTP", "dateTime": 1519601632991}, {"current_trial": 31, "trialdata": {"rt": -1000, "trial_type": "single-audio", "word": "patient", "stimulus": "/static/audio/wordpool/PATIENT.wav", "conditions": [18, 1200, "a", 18000], "internal_node_id": "0.0-22.0", "trial": 0, "time_elapsed": 440663, "serialpos": 10, "key_press": -1, "wordID": 1023, "type": "PRES_AUD", "trial_index": 31}, "uniqueid": "MTK2962:3ZDAD0O1T2KDT3OEACCLPK9LGDOXTP", "dateTime": 1519601635155}, {"current_trial": 32, "trialdata": {"rt": -1000, "trial_type": "single-audio", "word": "egypt", "stimulus": "/static/audio/wordpool/EGYPT.wav", "conditions": [18, 1200, "a", 18000], "internal_node_id": "0.0-23.0", "trial": 0, "time_elapsed": 443044, "serialpos": 11, "key_press": -1, "wordID": 518, "type": "PRES_AUD", "trial_index": 32}, "uniqueid": "MTK2962:3ZDAD0O1T2KDT3OEACCLPK9LGDOXTP", "dateTime": 1519601637537}, {"current_trial": 33, "trialdata": {"rt": -1000, "trial_type": "single-audio", "word": "package", "stimulus": "/static/audio/wordpool/PACKAGE.wav", "conditions": [18, 1200, "a", 18000], "internal_node_id": "0.0-24.0", "trial": 0, "time_elapsed": 445293, "serialpos": 12, "key_press": -1, "wordID": 996, "type": "PRES_AUD", "trial_index": 33}, "uniqueid": "MTK2962:3ZDAD0O1T2KDT3OEACCLPK9LGDOXTP", "dateTime": 1519601639787}, {"current_trial": 34, "trialdata": {"rt": -1000, "trial_type": "single-audio", "word": "gavel", "stimulus": "/static/audio/wordpool/GAVEL.wav", "conditions": [18, 1200, "a", 18000], "internal_node_id": "0.0-25.0", "trial": 0, "time_elapsed": 447496, "serialpos": 13, "key_press": -1, "wordID": 626, "type": "PRES_AUD", "trial_index": 34}, "uniqueid": "MTK2962:3ZDAD0O1T2KDT3OEACCLPK9LGDOXTP", "dateTime": 1519601641988}, {"current_trial": 35, "trialdata": {"rt": -1000, "trial_type": "single-audio", "word": "seal", "stimulus": "/static/audio/wordpool/SEAL.wav", "conditions": [18, 1200, "a", 18000], "internal_node_id": "0.0-26.0", "trial": 0, "time_elapsed": 449672, "serialpos": 14, "key_press": -1, "wordID": 1261, "type": "PRES_AUD", "trial_index": 35}, "uniqueid": "MTK2962:3ZDAD0O1T2KDT3OEACCLPK9LGDOXTP", "dateTime": 1519601644164}, {"current_trial": 36, "trialdata": {"rt": -1000, "trial_type": "single-audio", "word": "doughnut", "stimulus": "/static/audio/wordpool/DOUGHNUT.wav", "conditions": [18, 1200, "a", 18000], "internal_node_id": "0.0-27.0", "trial": 0, "time_elapsed": 451708, "serialpos": 15, "key_press": -1, "wordID": 489, "type": "PRES_AUD", "trial_index": 36}, "uniqueid": "MTK2962:3ZDAD0O1T2KDT3OEACCLPK9LGDOXTP", "dateTime": 1519601646200}, {"current_trial": 37, "trialdata": {"rt": -1000, "trial_type": "single-audio", "word": "statue", "stimulus": "/static/audio/wordpool/STATUE.wav", "conditions": [18, 1200, "a", 18000], "internal_node_id": "0.0-28.0", "trial": 0, "time_elapsed": 453930, "serialpos": 16, "key_press": -1, "wordID": 1373, "type": "PRES_AUD", "trial_index": 37}, "uniqueid": "MTK2962:3ZDAD0O1T2KDT3OEACCLPK9LGDOXTP", "dateTime": 1519601648422}, {"current_trial": 38, "trialdata": {"rt": -1000, "trial_type": "single-audio", "word": "pistol", "stimulus": "/static/audio/wordpool/PISTOL.wav", "conditions": [18, 1200, "a", 18000], "internal_node_id": "0.0-29.0", "trial": 0, "time_elapsed": 456000, "serialpos": 17, "key_press": -1, "wordID": 1074, "type": "PRES_AUD", "trial_index": 38}, "uniqueid": "MTK2962:3ZDAD0O1T2KDT3OEACCLPK9LGDOXTP", "dateTime": 1519601650492}, {"current_trial": 39, "trialdata": {"rt": -1, "trial_type": "single-stim", "stimulus": "", "internal_node_id": "0.0-30.0-0.0", "time_elapsed": 457331, "key_press": -1, "type": "PRE_RECALL_DELAY", "trial_index": 39}, "uniqueid": "MTK2962:3ZDAD0O1T2KDT3OEACCLPK9LGDOXTP", "dateTime": 1519601651823}, {"current_trial": 40, "trialdata": {"rt": -1000, "trial_type": "single-audio", "stimulus": "/static/audio/400Hz.wav", "internal_node_id": "0.0-31.0", "time_elapsed": 457833, "key_press": -1, "type": "PRE_RECALL_ALERT", "trial_index": 40}, "uniqueid": "MTK2962:3ZDAD0O1T2KDT3OEACCLPK9LGDOXTP", "dateTime": 1519601652327}, {"current_trial": 41, "trialdata": {"rt": [7741, 11927, 16290, 22453, 26392, 28717, 33760, 37032, 39937], "recwords": ["crayon", "captive", "stomach", "boyfriend", "parsley", "rocket", "tombstone", "puddle", "pistol"], "key_times": [5808, 6139, 6283, 6533, 6993, 7142, 7741, 10023, 10488, 10701, 11036, 11215, 11466, 11593, 11927, 12794, 13055, 13195, 13447, 13615, 13878, 14108, 16290, 18837, 19073, 19324, 20036, 20251, 20673, 20861, 21036, 21265, 22453, 23440, 23751, 24179, 24497, 24755, 24943, 25155, 26392, 27100, 27308, 27495, 27673, 27829, 28038, 28717, 29924, 30256, 30674, 30904, 31468, 31832, 32051, 32260, 32581, 33760, 34505, 34795, 35511, 35667, 35859, 36075, 37032, 38192, 38455, 38686, 38931, 39107, 39275, 39937], "trial_type": "free-recall", "conditions": [18, 1200, "a", 18000], "internal_node_id": "0.0-32.0-0.0", "key_presses": [67, 82, 65, 89, 79, 78, 13, 67, 65, 80, 84, 73, 86, 69, 13, 83, 84, 79, 77, 65, 67, 72, 13, 66, 79, 89, 70, 82, 73, 69, 78, 68, 13, 80, 65, 82, 83, 76, 69, 89, 13, 82, 79, 67, 75, 69, 84, 13, 84, 79, 77, 66, 83, 84, 79, 78, 69, 13, 80, 85, 68, 68, 76, 69, 13, 80, 73, 83, 84, 79, 76, 13], "trial": 0, "time_elapsed": 517839, "type": "FREE_RECALL", "trial_index": 41}, "uniqueid": "MTK2962:3ZDAD0O1T2KDT3OEACCLPK9LGDOXTP", "dateTime": 1519601712334}, {"current_trial": 42, "trialdata": {"rt": 6636, "trial_type": "text", "internal_node_id": "0.0-33.0", "time_elapsed": 526480, "key_press": 13, "type": "INSTRUCTIONS", "trial_index": 42}, "uniqueid": "MTK2962:3ZDAD0O1T2KDT3OEACCLPK9LGDOXTP", "dateTime": 1519601720972}, {"current_trial": 43, "trialdata": {"rt": [12441, 16167], "trial_type": "math-distractor", "key_times": [12087, 12213, 12441, 15568, 15699, 16167], "responses": ["22", "11"], "num2": [9, 8, 2], "num3": [5, 2, 7], "conditions": [18, 1200, "a", 18000], "internal_node_id": "0.0-34.0", "key_presses": [98, 98, 13, 97, 97, 13], "trial": 1, "time_elapsed": 546484, "type": "DISTRACTOR", "trial_index": 43, "num1": [8, 1, 1]}, "uniqueid": "MTK2962:3ZDAD0O1T2KDT3OEACCLPK9LGDOXTP", "dateTime": 1519601740976}, {"current_trial": 44, "trialdata": {"rt": -1, "trial_type": "single-stim", "stimulus": "<p id=\"stim\">10</p>", "internal_node_id": "0.0-35.0-0.0", "time_elapsed": 549497, "key_press": -1, "trial_index": 44}, "uniqueid": "MTK2962:3ZDAD0O1T2KDT3OEACCLPK9LGDOXTP", "dateTime": 1519601743989}, {"current_trial": 45, "trialdata": {"rt": -1, "trial_type": "single-stim", "stimulus": "<p id=\"stim\">9</p>", "internal_node_id": "0.0-35.0-1.0", "time_elapsed": 550502, "key_press": -1, "trial_index": 45}, "uniqueid": "MTK2962:3ZDAD0O1T2KDT3OEACCLPK9LGDOXTP", "dateTime": 1519601744994}, {"current_trial": 46, "trialdata": {"rt": -1, "trial_type": "single-stim", "stimulus": "<p id=\"stim\">8</p>", "internal_node_id": "0.0-35.0-2.0", "time_elapsed": 551507, "key_press": -1, "trial_index": 46}, "uniqueid": "MTK2962:3ZDAD0O1T2KDT3OEACCLPK9LGDOXTP", "dateTime": 1519601745999}, {"current_trial": 47, "trialdata": {"rt": -1, "trial_type": "single-stim", "stimulus": "<p id=\"stim\">7</p>", "internal_node_id": "0.0-35.0-3.0", "time_elapsed": 552508, "key_press": -1, "trial_index": 47}, "uniqueid": "MTK2962:3ZDAD0O1T2KDT3OEACCLPK9LGDOXTP", "dateTime": 1519601747000}, {"current_trial": 48, "trialdata": {"rt": -1, "trial_type": "single-stim", "stimulus": "<p id=\"stim\">6</p>", "internal_node_id": "0.0-35.0-4.0", "time_elapsed": 553509, "key_press": -1, "trial_index": 48}, "uniqueid": "MTK2962:3ZDAD0O1T2KDT3OEACCLPK9LGDOXTP", "dateTime": 1519601748001}, {"current_trial": 49, "trialdata": {"rt": -1, "trial_type": "single-stim", "stimulus": "<p id=\"stim\">5</p>", "internal_node_id": "0.0-35.0-5.0", "time_elapsed": 554513, "key_press": -1, "trial_index": 49}, "uniqueid": "MTK2962:3ZDAD0O1T2KDT3OEACCLPK9LGDOXTP", "dateTime": 1519601749005}, {"current_trial": 50, "trialdata": {"rt": -1, "trial_type": "single-stim", "stimulus": "<p id=\"stim\">4</p>", "internal_node_id": "0.0-35.0-6.0", "time_elapsed": 555513, "key_press": -1, "trial_index": 50}, "uniqueid": "MTK2962:3ZDAD0O1T2KDT3OEACCLPK9LGDOXTP", "dateTime": 1519601750005}, {"current_trial": 51, "trialdata": {"rt": -1, "trial_type": "single-stim", "stimulus": "<p id=\"stim\">3</p>", "internal_node_id": "0.0-35.0-7.0", "time_elapsed": 556516, "key_press": -1, "trial_index": 51}, "uniqueid": "MTK2962:3ZDAD0O1T2KDT3OEACCLPK9LGDOXTP", "dateTime": 1519601751008}, {"current_trial": 52, "trialdata": {"rt": -1, "trial_type": "single-stim", "stimulus": "<p id=\"stim\">2</p>", "internal_node_id": "0.0-35.0-8.0", "time_elapsed": 557517, "key_press": -1, "trial_index": 52}, "uniqueid": "MTK2962:3ZDAD0O1T2KDT3OEACCLPK9LGDOXTP", "dateTime": 1519601752009}, {"current_trial": 53, "trialdata": {"rt": -1, "trial_type": "single-stim", "stimulus": "<p id=\"stim\">1</p>", "internal_node_id": "0.0-35.0-9.0", "time_elapsed": 558518, "key_press": -1, "trial_index": 53}, "uniqueid": "MTK2962:3ZDAD0O1T2KDT3OEACCLPK9LGDOXTP", "dateTime": 1519601753010}, {"current_trial": 54, "trialdata": {"rt": -1, "trial_type": "single-stim", "stimulus": "<p id=\"stim\">+</p>", "internal_node_id": "0.0-36.0-0.0", "time_elapsed": 560068, "key_press": -1, "type": "FIXATION", "trial_index": 54}, "uniqueid": "MTK2962:3ZDAD0O1T2KDT3OEACCLPK9LGDOXTP", "dateTime": 1519601754561}, {"current_trial": 55, "trialdata": {"rt": -1000, "trial_type": "single-audio", "word": "valley", "stimulus": "/static/audio/wordpool/VALLEY.wav", "conditions": [18, 1200, "a", 18000], "internal_node_id": "0.0-37.0", "trial": 1, "time_elapsed": 562318, "serialpos": 0, "key_press": -1, "wordID": 1544, "type": "PRES_AUD", "trial_index": 55}, "uniqueid": "MTK2962:3ZDAD0O1T2KDT3OEACCLPK9LGDOXTP", "dateTime": 1519601756810}, {"current_trial": 56, "trialdata": {"rt": -1000, "trial_type": "single-audio", "word": "plaid", "stimulus": "/static/audio/wordpool/PLAID.wav", "conditions": [18, 1200, "a", 18000], "internal_node_id": "0.0-38.0", "trial": 1, "time_elapsed": 564405, "serialpos": 1, "key_press": -1, "wordID": 1079, "type": "PRES_AUD", "trial_index": 56}, "uniqueid": "MTK2962:3ZDAD0O1T2KDT3OEACCLPK9LGDOXTP", "dateTime": 1519601758897}, {"current_trial": 57, "trialdata": {"rt": -1000, "trial_type": "single-audio", "word": "asia", "stimulus": "/static/audio/wordpool/ASIA.wav", "conditions": [18, 1200, "a", 18000], "internal_node_id": "0.0-39.0", "trial": 1, "time_elapsed": 566678, "serialpos": 2, "key_press": -1, "wordID": 45, "type": "PRES_AUD", "trial_index": 57}, "uniqueid": "MTK2962:3ZDAD0O1T2KDT3OEACCLPK9LGDOXTP", "dateTime": 1519601761172}, {"current_trial": 58, "trialdata": {"rt": -1000, "trial_type": "single-audio", "word": "velvet", "stimulus": "/static/audio/wordpool/VELVET.wav", "conditions": [18, 1200, "a", 18000], "internal_node_id": "0.0-40.0", "trial": 1, "time_elapsed": 568754, "serialpos": 3, "key_press": -1, "wordID": 1554, "type": "PRES_AUD", "trial_index": 58}, "uniqueid": "MTK2962:3ZDAD0O1T2KDT3OEACCLPK9LGDOXTP", "dateTime": 1519601763246}, {"current_trial": 59, "trialdata": {"rt": -1000, "trial_type": "single-audio", "word": "airport", "stimulus": "/static/audio/wordpool/AIRPORT.wav", "conditions": [18, 1200, "a", 18000], "internal_node_id": "0.0-41.0", "trial": 1, "time_elapsed": 571147, "serialpos": 4, "key_press": -1, "wordID": 12, "type": "PRES_AUD", "trial_index": 59}, "uniqueid": "MTK2962:3ZDAD0O1T2KDT3OEACCLPK9LGDOXTP", "dateTime": 1519601765639}, {"current_trial": 60, "trialdata": {"rt": -1000, "trial_type": "single-audio", "word": "cross", "stimulus": "/static/audio/wordpool/CROSS.wav", "conditions": [18, 1200, "a", 18000], "internal_node_id": "0.0-42.0", "trial": 1, "time_elapsed": 573461, "serialpos": 5, "key_press": -1, "wordID": 412, "type": "PRES_AUD", "trial_index": 60}, "uniqueid": "MTK2962:3ZDAD0O1T2KDT3OEACCLPK9LGDOXTP", "dateTime": 1519601767953}, {"current_trial": 61, "trialdata": {"rt": -1000, "trial_type": "single-audio", "word": "pasta", "stimulus": "/static/audio/wordpool/PASTA.wav", "conditions": [18, 1200, "a", 18000], "internal_node_id": "0.0-43.0", "trial": 1, "time_elapsed": 575765, "serialpos": 6, "key_press": -1, "wordID": 1020, "type": "PRES_AUD", "trial_index": 61}, "uniqueid": "MTK2962:3ZDAD0O1T2KDT3OEACCLPK9LGDOXTP", "dateTime": 1519601770258}, {"current_trial": 62, "trialdata": {"rt": -1000, "trial_type": "single-audio", "word": "cricket", "stimulus": "/static/audio/wordpool/CRICKET.wav", "conditions": [18, 1200, "a", 18000], "internal_node_id": "0.0-44.0", "trial": 1, "time_elapsed": 577909, "serialpos": 7, "key_press": -1, "wordID": 407, "type": "PRES_AUD", "trial_index": 62}, "uniqueid": "MTK2962:3ZDAD0O1T2KDT3OEACCLPK9LGDOXTP", "dateTime": 1519601772401}, {"current_trial": 63, "trialdata": {"rt": -1000, "trial_type": "single-audio", "word": "wife", "stimulus": "/static/audio/wordpool/WIFE.wav", "conditions": [18, 1200, "a", 18000], "internal_node_id": "0.0-45.0", "trial": 1, "time_elapsed": 580210, "serialpos": 8, "key_press": -1, "wordID": 1608, "type": "PRES_AUD", "trial_index": 63}, "uniqueid": "MTK2962:3ZDAD0O1T2KDT3OEACCLPK9LGDOXTP", "dateTime": 1519601774703}, {"current_trial": 64, "trialdata": {"rt": -1000, "trial_type": "single-audio", "word": "catcher", "stimulus": "/static/audio/wordpool/CATCHER.wav", "conditions": [18, 1200, "a", 18000], "internal_node_id": "0.0-46.0", "trial": 1, "time_elapsed": 582319, "serialpos": 9, "key_press": -1, "wordID": 257, "type": "PRES_AUD", "trial_index": 64}, "uniqueid": "MTK2962:3ZDAD0O1T2KDT3OEACCLPK9LGDOXTP", "dateTime": 1519601776811}, {"current_trial": 65, "trialdata": {"rt": -1000, "trial_type": "single-audio", "word": "rabbit", "stimulus": "/static/audio/wordpool/RABBIT.wav", "conditions": [18, 1200, "a", 18000], "internal_node_id": "0.0-47.0", "trial": 1, "time_elapsed": 584622, "serialpos": 10, "key_press": -1, "wordID": 1151, "type": "PRES_AUD", "trial_index": 65}, "uniqueid": "MTK2962:3ZDAD0O1T2KDT3OEACCLPK9LGDOXTP", "dateTime": 1519601779114}, {"current_trial": 66, "trialdata": {"rt": -1000, "trial_type": "single-audio", "word": "college", "stimulus": "/static/audio/wordpool/COLLEGE.wav", "conditions": [18, 1200, "a", 18000], "internal_node_id": "0.0-48.0", "trial": 1, "time_elapsed": 586919, "serialpos": 11, "key_press": -1, "wordID": 345, "type": "PRES_AUD", "trial_index": 66}, "uniqueid": "MTK2962:3ZDAD0O1T2KDT3OEACCLPK9LGDOXTP", "dateTime": 1519601781411}, {"current_trial": 67, "trialdata": {"rt": -1000, "trial_type": "single-audio", "word": "badge", "stimulus": "/static/audio/wordpool/BADGE.wav", "conditions": [18, 1200, "a", 18000], "internal_node_id": "0.0-49.0", "trial": 1, "time_elapsed": 589155, "serialpos": 12, "key_press": -1, "wordID": 67, "type": "PRES_AUD", "trial_index": 67}, "uniqueid": "MTK2962:3ZDAD0O1T2KDT3OEACCLPK9LGDOXTP", "dateTime": 1519601783647}, {"current_trial": 68, "trialdata": {"rt": -1000, "trial_type": "single-audio", "word": "scallop", "stimulus": "/static/audio/wordpool/SCALLOP.wav", "conditions": [18, 1200, "a", 18000], "internal_node_id": "0.0-50.0", "trial": 1, "time_elapsed": 591272, "serialpos": 13, "key_press": -1, "wordID": 1241, "type": "PRES_AUD", "trial_index": 68}, "uniqueid": "MTK2962:3ZDAD0O1T2KDT3OEACCLPK9LGDOXTP", "dateTime": 1519601785764}, {"current_trial": 69, "trialdata": {"rt": -1000, "trial_type": "single-audio", "word": "silk", "stimulus": "/static/audio/wordpool/SILK.wav", "conditions": [18, 1200, "a", 18000], "internal_node_id": "0.0-51.0", "trial": 1, "time_elapsed": 593478, "serialpos": 14, "key_press": -1, "wordID": 1306, "type": "PRES_AUD", "trial_index": 69}, "uniqueid": "MTK2962:3ZDAD0O1T2KDT3OEACCLPK9LGDOXTP", "dateTime": 1519601787970}, {"current_trial": 70, "trialdata": {"rt": -1000, "trial_type": "single-audio", "word": "pliers", "stimulus": "/static/audio/wordpool/PLIERS.wav", "conditions": [18, 1200, "a", 18000], "internal_node_id": "0.0-52.0", "trial": 1, "time_elapsed": 595776, "serialpos": 15, "key_press": -1, "wordID": 1088, "type": "PRES_AUD", "trial_index": 70}, "uniqueid": "MTK2962:3ZDAD0O1T2KDT3OEACCLPK9LGDOXTP", "dateTime": 1519601790268}, {"current_trial": 71, "trialdata": {"rt": -1000, "trial_type": "single-audio", "word": "powder", "stimulus": "/static/audio/wordpool/POWDER.wav", "conditions": [18, 1200, "a", 18000], "internal_node_id": "0.0-53.0", "trial": 1, "time_elapsed": 598030, "serialpos": 16, "key_press": -1, "wordID": 1116, "type": "PRES_AUD", "trial_index": 71}, "uniqueid": "MTK2962:3ZDAD0O1T2KDT3OEACCLPK9LGDOXTP", "dateTime": 1519601792522}, {"current_trial": 72, "trialdata": {"rt": -1000, "trial_type": "single-audio", "word": "chemist", "stimulus": "/static/audio/wordpool/CHEMIST.wav", "conditions": [18, 1200, "a", 18000], "internal_node_id": "0.0-54.0", "trial": 1, "time_elapsed": 600265, "serialpos": 17, "key_press": -1, "wordID": 291, "type": "PRES_AUD", "trial_index": 72}, "uniqueid": "MTK2962:3ZDAD0O1T2KDT3OEACCLPK9LGDOXTP", "dateTime": 1519601794757}, {"current_trial": 73, "trialdata": {"rt": -1, "trial_type": "single-stim", "stimulus": "", "internal_node_id": "0.0-55.0-0.0", "time_elapsed": 601480, "key_press": -1, "type": "PRE_RECALL_DELAY", "trial_index": 73}, "uniqueid": "MTK2962:3ZDAD0O1T2KDT3OEACCLPK9LGDOXTP", "dateTime": 1519601795972}, {"current_trial": 74, "trialdata": {"rt": -1000, "trial_type": "single-audio", "stimulus": "/static/audio/400Hz.wav", "internal_node_id": "0.0-56.0", "time_elapsed": 601982, "key_press": -1, "type": "PRE_RECALL_ALERT", "trial_index": 74}, "uniqueid": "MTK2962:3ZDAD0O1T2KDT3OEACCLPK9LGDOXTP", "dateTime": 1519601796476}, {"current_trial": 75, "trialdata": {"rt": [17425, 22177, 29288, 37074, 42826, 47056, 49433, 51665, 58333], "recwords": ["clad", "asia", "velvet", "airport", "cross", "pasta", "cricket", "wife", "catcher"], "key_times": [14413, 15138, 16221, 16451, 16590, 16833, 17425, 18005, 18242, 18715, 18859, 20314, 20459, 20596, 21129, 21321, 21469, 22177, 27723, 27903, 28036, 28362, 28426, 28617, 29288, 33604, 33791, 34117, 34324, 34646, 34843, 35739, 36070, 36236, 37074, 41691, 41879, 42037, 42198, 42329, 42826, 46051, 46182, 46352, 46652, 46767, 47056, 48036, 48242, 48443, 48774, 48874, 49096, 49242, 49433, 50670, 50787, 50988, 51077, 51665, 52766, 52910, 53084, 53266, 53382, 53629, 53720, 54238, 54377, 55849, 56071, 56532, 57292, 57491, 57608, 57743, 57796, 58333, 58934, 59078, 59338, 59483, 59685, 59819], "trial_type": "free-recall", "conditions": [18, 1200, "a", 18000], "internal_node_id": "0.0-57.0-0.0", "key_presses": [67, 65, 8, 76, 65, 68, 13, 65, 73, 83, 65, 8, 8, 8, 83, 73, 65, 13, 86, 69, 76, 86, 69, 84, 13, 65, 73, 82, 80, 79, 84, 8, 82, 84, 13, 67, 82, 79, 83, 83, 13, 80, 65, 83, 84, 65, 13, 67, 82, 73, 67, 75, 69, 84, 13, 87, 73, 70, 69, 13, 67, 65, 84, 72, 67, 69, 82, 8, 8, 8, 8, 8, 84, 67, 72, 69, 82, 13, 82, 65, 66, 66, 73, 84], "trial": 1, "time_elapsed": 661989, "type": "FREE_RECALL", "trial_index": 75}, "uniqueid": "MTK2962:3ZDAD0O1T2KDT3OEACCLPK9LGDOXTP", "dateTime": 1519601856485}, {"current_trial": 76, "trialdata": {"rt": 9147, "trial_type": "text", "internal_node_id": "0.0-58.0", "time_elapsed": 673143, "key_press": 13, "type": "INSTRUCTIONS", "trial_index": 76}, "uniqueid": "MTK2962:3ZDAD0O1T2KDT3OEACCLPK9LGDOXTP", "dateTime": 1519601867636}, {"current_trial": 77, "trialdata": {"rt": [16341, 23637], "trial_type": "math-distractor", "key_times": [14556, 14740, 16341, 22117, 22360, 23005, 23416, 23637], "responses": ["13", "16"], "num2": [3, 5, 1], "num3": [3, 4, 8], "conditions": [12, 1600, "a", 24000], "internal_node_id": "0.0-59.0", "key_presses": [97, 99, 13, 97, 101, 8, 102, 13], "trial": 2, "time_elapsed": 698172, "type": "DISTRACTOR", "trial_index": 77, "num1": [7, 3, 1]}, "uniqueid": "MTK2962:3ZDAD0O1T2KDT3OEACCLPK9LGDOXTP", "dateTime": 1519601892664}, {"current_trial": 78, "trialdata": {"rt": -1, "trial_type": "single-stim", "stimulus": "<p id=\"stim\">10</p>", "internal_node_id": "0.0-60.0-0.0", "time_elapsed": 701175, "key_press": -1, "trial_index": 78}, "uniqueid": "MTK2962:3ZDAD0O1T2KDT3OEACCLPK9LGDOXTP", "dateTime": 1519601895667}, {"current_trial": 79, "trialdata": {"rt": -1, "trial_type": "single-stim", "stimulus": "<p id=\"stim\">9</p>", "internal_node_id": "0.0-60.0-1.0", "time_elapsed": 702177, "key_press": -1, "trial_index": 79}, "uniqueid": "MTK2962:3ZDAD0O1T2KDT3OEACCLPK9LGDOXTP", "dateTime": 1519601896669}, {"current_trial": 80, "trialdata": {"rt": -1, "trial_type": "single-stim", "stimulus": "<p id=\"stim\">8</p>", "internal_node_id": "0.0-60.0-2.0", "time_elapsed": 703180, "key_press": -1, "trial_index": 80}, "uniqueid": "MTK2962:3ZDAD0O1T2KDT3OEACCLPK9LGDOXTP", "dateTime": 1519601897672}, {"current_trial": 81, "trialdata": {"rt": -1, "trial_type": "single-stim", "stimulus": "<p id=\"stim\">7</p>", "internal_node_id": "0.0-60.0-3.0", "time_elapsed": 704181, "key_press": -1, "trial_index": 81}, "uniqueid": "MTK2962:3ZDAD0O1T2KDT3OEACCLPK9LGDOXTP", "dateTime": 1519601898675}, {"current_trial": 82, "trialdata": {"rt": -1, "trial_type": "single-stim", "stimulus": "<p id=\"stim\">6</p>", "internal_node_id": "0.0-60.0-4.0", "time_elapsed": 705184, "key_press": -1, "trial_index": 82}, "uniqueid": "MTK2962:3ZDAD0O1T2KDT3OEACCLPK9LGDOXTP", "dateTime": 1519601899677}, {"current_trial": 83, "trialdata": {"rt": -1, "trial_type": "single-stim", "stimulus": "<p id=\"stim\">5</p>", "internal_node_id": "0.0-60.0-5.0", "time_elapsed": 706196, "key_press": -1, "trial_index": 83}, "uniqueid": "MTK2962:3ZDAD0O1T2KDT3OEACCLPK9LGDOXTP", "dateTime": 1519601900688}, {"current_trial": 84, "trialdata": {"rt": -1, "trial_type": "single-stim", "stimulus": "<p id=\"stim\">4</p>", "internal_node_id": "0.0-60.0-6.0", "time_elapsed": 707197, "key_press": -1, "trial_index": 84}, "uniqueid": "MTK2962:3ZDAD0O1T2KDT3OEACCLPK9LGDOXTP", "dateTime": 1519601901689}, {"current_trial": 85, "trialdata": {"rt": -1, "trial_type": "single-stim", "stimulus": "<p id=\"stim\">3</p>", "internal_node_id": "0.0-60.0-7.0", "time_elapsed": 708200, "key_press": -1, "trial_index": 85}, "uniqueid": "MTK2962:3ZDAD0O1T2KDT3OEACCLPK9LGDOXTP", "dateTime": 1519601902692}, {"current_trial": 86, "trialdata": {"rt": -1, "trial_type": "single-stim", "stimulus": "<p id=\"stim\">2</p>", "internal_node_id": "0.0-60.0-8.0", "time_elapsed": 709201, "key_press": -1, "trial_index": 86}, "uniqueid": "MTK2962:3ZDAD0O1T2KDT3OEACCLPK9LGDOXTP", "dateTime": 1519601903693}, {"current_trial": 87, "trialdata": {"rt": -1, "trial_type": "single-stim", "stimulus": "<p id=\"stim\">1</p>", "internal_node_id": "0.0-60.0-9.0", "time_elapsed": 710210, "key_press": -1, "trial_index": 87}, "uniqueid": "MTK2962:3ZDAD0O1T2KDT3OEACCLPK9LGDOXTP", "dateTime": 1519601904703}, {"current_trial": 88, "trialdata": {"rt": -1, "trial_type": "single-stim", "stimulus": "<p id=\"stim\">+</p>", "internal_node_id": "0.0-61.0-0.0", "time_elapsed": 711712, "key_press": -1, "type": "FIXATION", "trial_index": 88}, "uniqueid": "MTK2962:3ZDAD0O1T2KDT3OEACCLPK9LGDOXTP", "dateTime": 1519601906204}, {"current_trial": 89, "trialdata": {"rt": -1000, "trial_type": "single-audio", "word": "whiskers", "stimulus": "/static/audio/wordpool/WHISKERS.wav", "conditions": [12, 1600, "a", 24000], "internal_node_id": "0.0-62.0", "trial": 2, "time_elapsed": 714420, "serialpos": 0, "key_press": -1, "wordID": 1604, "type": "PRES_AUD", "trial_index": 89}, "uniqueid": "MTK2962:3ZDAD0O1T2KDT3OEACCLPK9LGDOXTP", "dateTime": 1519601908912}, {"current_trial": 90, "trialdata": {"rt": -1000, "trial_type": "single-audio", "word": "mustard", "stimulus": "/static/audio/wordpool/MUSTARD.wav", "conditions": [12, 1600, "a", 24000], "internal_node_id": "0.0-63.0", "trial": 2, "time_elapsed": 716994, "serialpos": 1, "key_press": -1, "wordID": 934, "type": "PRES_AUD", "trial_index": 90}, "uniqueid": "MTK2962:3ZDAD0O1T2KDT3OEACCLPK9LGDOXTP", "dateTime": 1519601911486}, {"current_trial": 91, "trialdata": {"rt": -1000, "trial_type": "single-audio", "word": "compass", "stimulus": "/static/audio/wordpool/COMPASS.wav", "conditions": [12, 1600, "a", 24000], "internal_node_id": "0.0-64.0", "trial": 2, "time_elapsed": 719580, "serialpos": 2, "key_press": -1, "wordID": 357, "type": "PRES_AUD", "trial_index": 91}, "uniqueid": "MTK2962:3ZDAD0O1T2KDT3OEACCLPK9LGDOXTP", "dateTime": 1519601914072}, {"current_trial": 92, "trialdata": {"rt": -1000, "trial_type": "single-audio", "word": "turkey", "stimulus": "/static/audio/wordpool/TURKEY.wav", "conditions": [12, 1600, "a", 24000], "internal_node_id": "0.0-65.0", "trial": 2, "time_elapsed": 722122, "serialpos": 3, "key_press": -1, "wordID": 1519, "type": "PRES_AUD", "trial_index": 92}, "uniqueid": "MTK2962:3ZDAD0O1T2KDT3OEACCLPK9LGDOXTP", "dateTime": 1519601916614}, {"current_trial": 93, "trialdata": {"rt": -1000, "trial_type": "single-audio", "word": "salad", "stimulus": "/static/audio/wordpool/SALAD.wav", "conditions": [12, 1600, "a", 24000], "internal_node_id": "0.0-66.0", "trial": 2, "time_elapsed": 724816, "serialpos": 4, "key_press": -1, "wordID": 1223, "type": "PRES_AUD", "trial_index": 93}, "uniqueid": "MTK2962:3ZDAD0O1T2KDT3OEACCLPK9LGDOXTP", "dateTime": 1519601919309}, {"current_trial": 94, "trialdata": {"rt": -1000, "trial_type": "single-audio", "word": "kitchen", "stimulus": "/static/audio/wordpool/KITCHEN.wav", "conditions": [12, 1600, "a", 24000], "internal_node_id": "0.0-67.0", "trial": 2, "time_elapsed": 727558, "serialpos": 5, "key_press": -1, "wordID": 777, "type": "PRES_AUD", "trial_index": 94}, "uniqueid": "MTK2962:3ZDAD0O1T2KDT3OEACCLPK9LGDOXTP", "dateTime": 1519601922050}, {"current_trial": 95, "trialdata": {"rt": -1000, "trial_type": "single-audio", "word": "stove", "stimulus": "/static/audio/wordpool/STOVE.wav", "conditions": [12, 1600, "a", 24000], "internal_node_id": "0.0-68.0", "trial": 2, "time_elapsed": 730248, "serialpos": 6, "key_press": -1, "wordID": 1387, "type": "PRES_AUD", "trial_index": 95}, "uniqueid": "MTK2962:3ZDAD0O1T2KDT3OEACCLPK9LGDOXTP", "dateTime": 1519601924740}, {"current_trial": 96, "trialdata": {"rt": -1000, "trial_type": "single-audio", "word": "piston", "stimulus": "/static/audio/wordpool/PISTON.wav", "conditions": [12, 1600, "a", 24000], "internal_node_id": "0.0-69.0", "trial": 2, "time_elapsed": 732666, "serialpos": 7, "key_press": -1, "wordID": 1075, "type": "PRES_AUD", "trial_index": 96}, "uniqueid": "MTK2962:3ZDAD0O1T2KDT3OEACCLPK9LGDOXTP", "dateTime": 1519601927158}, {"current_trial": 97, "trialdata": {"rt": -1000, "trial_type": "single-audio", "word": "leopard", "stimulus": "/static/audio/wordpool/LEOPARD.wav", "conditions": [12, 1600, "a", 24000], "internal_node_id": "0.0-70.0", "trial": 2, "time_elapsed": 735274, "serialpos": 8, "key_press": -1, "wordID": 811, "type": "PRES_AUD", "trial_index": 97}, "uniqueid": "MTK2962:3ZDAD0O1T2KDT3OEACCLPK9LGDOXTP", "dateTime": 1519601929766}, {"current_trial": 98, "trialdata": {"rt": -1000, "trial_type": "single-audio", "word": "fireplace", "stimulus": "/static/audio/wordpool/FIREPLACE.wav", "conditions": [12, 1600, "a", 24000], "internal_node_id": "0.0-71.0", "trial": 2, "time_elapsed": 738036, "serialpos": 9, "key_press": -1, "wordID": 569, "type": "PRES_AUD", "trial_index": 98}, "uniqueid": "MTK2962:3ZDAD0O1T2KDT3OEACCLPK9LGDOXTP", "dateTime": 1519601932528}, {"current_trial": 99, "trialdata": {"rt": -1000, "trial_type": "single-audio", "word": "pork", "stimulus": "/static/audio/wordpool/PORK.wav", "conditions": [12, 1600, "a", 24000], "internal_node_id": "0.0-72.0", "trial": 2, "time_elapsed": 740644, "serialpos": 10, "key_press": -1, "wordID": 1107, "type": "PRES_AUD", "trial_index": 99}, "uniqueid": "MTK2962:3ZDAD0O1T2KDT3OEACCLPK9LGDOXTP", "dateTime": 1519601935137}, {"current_trial": 100, "trialdata": {"rt": -1000, "trial_type": "single-audio", "word": "champagne", "stimulus": "/static/audio/wordpool/CHAMPAGNE.wav", "conditions": [12, 1600, "a", 24000], "internal_node_id": "0.0-73.0", "trial": 2, "time_elapsed": 743120, "serialpos": 11, "key_press": -1, "wordID": 277, "type": "PRES_AUD", "trial_index": 100}, "uniqueid": "MTK2962:3ZDAD0O1T2KDT3OEACCLPK9LGDOXTP", "dateTime": 1519601937613}, {"current_trial": 101, "trialdata": {"rt": -1, "trial_type": "single-stim", "stimulus": "", "internal_node_id": "0.0-74.0-0.0", "time_elapsed": 744439, "key_press": -1, "type": "PRE_RECALL_DELAY", "trial_index": 101}, "uniqueid": "MTK2962:3ZDAD0O1T2KDT3OEACCLPK9LGDOXTP", "dateTime": 1519601938931}, {"current_trial": 102, "trialdata": {"rt": -1000, "trial_type": "single-audio", "stimulus": "/static/audio/400Hz.wav", "internal_node_id": "0.0-75.0", "time_elapsed": 744942, "key_press": -1, "type": "PRE_RECALL_ALERT", "trial_index": 102}, "uniqueid": "MTK2962:3ZDAD0O1T2KDT3OEACCLPK9LGDOXTP", "dateTime": 1519601939434}, {"current_trial": 103, "trialdata": {"rt": [8327, 13986, 19885, 25577, 27466, 30337, 32434, 39544, 50736, 55029, 56981], "recwords": ["whiskers", "mustard", "compass", "turkey", "salad", "kitchen", "stove", "piston", "lepard", "fireplace", "pork"], "key_times": [5195, 5376, 5568, 5732, 6907, 7076, 7205, 7379, 7461, 7630, 8327, 12121, 12326, 12485, 12691, 12854, 13474, 13681, 13986, 18129, 18334, 18532, 18772, 18939, 19150, 19285, 19885, 23866, 24027, 24271, 24562, 24851, 24996, 25577, 26288, 26458, 26559, 26799, 27165, 27466, 28904, 29058, 29283, 29503, 29635, 29771, 30011, 30337, 31569, 31836, 31984, 32173, 32269, 32434, 34373, 34609, 34857, 35387, 35555, 36238, 36371, 36489, 36730, 36866, 37141, 38812, 39544, 40157, 40830, 41610, 41914, 42076, 42706, 43292, 43457, 44021, 44925, 45288, 45492, 45956, 46213, 46368, 46889, 47053, 49362, 49788, 49970, 50736, 53283, 53423, 53592, 53715, 53963, 54143, 54256, 54475, 54567, 55029, 56057, 56263, 56444, 56648, 56981, 58644, 58778, 59206, 59356], "trial_type": "free-recall", "conditions": [12, 1600, "a", 24000], "internal_node_id": "0.0-76.0-0.0", "key_presses": [87, 72, 73, 67, 8, 83, 75, 69, 82, 83, 13, 77, 85, 83, 84, 65, 82, 68, 13, 67, 79, 77, 80, 65, 83, 83, 13, 84, 85, 82, 75, 69, 89, 13, 83, 65, 76, 65, 68, 13, 75, 73, 84, 67, 72, 69, 78, 13, 83, 84, 79, 86, 69, 13, 80, 73, 83, 79, 78, 8, 8, 84, 79, 78, 99, 8, 13, 76, 69, 65, 80, 79, 8, 8, 8, 219, 80, 8, 8, 80, 65, 82, 8, 8, 65, 82, 68, 13, 70, 73, 82, 69, 80, 76, 65, 67, 69, 13, 80, 79, 82, 75, 13, 83, 72, 8, 8], "trial": 2, "time_elapsed": 804946, "type": "FREE_RECALL", "trial_index": 103}, "uniqueid": "MTK2962:3ZDAD0O1T2KDT3OEACCLPK9LGDOXTP", "dateTime": 1519601999444}, {"current_trial": 104, "trialdata": {"rt": 10860, "trial_type": "text", "internal_node_id": "0.0-77.0", "time_elapsed": 817812, "key_press": 13, "type": "INSTRUCTIONS", "trial_index": 104}, "uniqueid": "MTK2962:3ZDAD0O1T2KDT3OEACCLPK9LGDOXTP", "dateTime": 1519602012304}, {"current_trial": 105, "trialdata": {"rt": [4980], "trial_type": "math-distractor", "key_times": [4587, 4776, 4980], "responses": ["10"], "num2": [4, 4], "num3": [1, 7], "conditions": [12, 800, "a", 12000], "internal_node_id": "0.0-78.0", "key_presses": [97, 96, 13], "trial": 3, "time_elapsed": 831818, "type": "DISTRACTOR", "trial_index": 105, "num1": [5, 2]}, "uniqueid": "MTK2962:3ZDAD0O1T2KDT3OEACCLPK9LGDOXTP", "dateTime": 1519602026311}, {"current_trial": 106, "trialdata": {"rt": -1, "trial_type": "single-stim", "stimulus": "<p id=\"stim\">10</p>", "internal_node_id": "0.0-79.0-0.0", "time_elapsed": 834823, "key_press": -1, "trial_index": 106}, "uniqueid": "MTK2962:3ZDAD0O1T2KDT3OEACCLPK9LGDOXTP", "dateTime": 1519602029315}, {"current_trial": 107, "trialdata": {"rt": -1, "trial_type": "single-stim", "stimulus": "<p id=\"stim\">9</p>", "internal_node_id": "0.0-79.0-1.0", "time_elapsed": 835825, "key_press": -1, "trial_index": 107}, "uniqueid": "MTK2962:3ZDAD0O1T2KDT3OEACCLPK9LGDOXTP", "dateTime": 1519602030317}, {"current_trial": 108, "trialdata": {"rt": -1, "trial_type": "single-stim", "stimulus": "<p id=\"stim\">8</p>", "internal_node_id": "0.0-79.0-2.0", "time_elapsed": 836827, "key_press": -1, "trial_index": 108}, "uniqueid": "MTK2962:3ZDAD0O1T2KDT3OEACCLPK9LGDOXTP", "dateTime": 1519602031319}, {"current_trial": 109, "trialdata": {"rt": -1, "trial_type": "single-stim", "stimulus": "<p id=\"stim\">7</p>", "internal_node_id": "0.0-79.0-3.0", "time_elapsed": 837829, "key_press": -1, "trial_index": 109}, "uniqueid": "MTK2962:3ZDAD0O1T2KDT3OEACCLPK9LGDOXTP", "dateTime": 1519602032321}, {"current_trial": 110, "trialdata": {"rt": -1, "trial_type": "single-stim", "stimulus": "<p id=\"stim\">6</p>", "internal_node_id": "0.0-79.0-4.0", "time_elapsed": 838831, "key_press": -1, "trial_index": 110}, "uniqueid": "MTK2962:3ZDAD0O1T2KDT3OEACCLPK9LGDOXTP", "dateTime": 1519602033324}, {"current_trial": 111, "trialdata": {"rt": -1, "trial_type": "single-stim", "stimulus": "<p id=\"stim\">5</p>", "internal_node_id": "0.0-79.0-5.0", "time_elapsed": 839837, "key_press": -1, "trial_index": 111}, "uniqueid": "MTK2962:3ZDAD0O1T2KDT3OEACCLPK9LGDOXTP", "dateTime": 1519602034329}, {"current_trial": 112, "trialdata": {"rt": -1, "trial_type": "single-stim", "stimulus": "<p id=\"stim\">4</p>", "internal_node_id": "0.0-79.0-6.0", "time_elapsed": 840844, "key_press": -1, "trial_index": 112}, "uniqueid": "MTK2962:3ZDAD0O1T2KDT3OEACCLPK9LGDOXTP", "dateTime": 1519602035336}, {"current_trial": 113, "trialdata": {"rt": -1, "trial_type": "single-stim", "stimulus": "<p id=\"stim\">3</p>", "internal_node_id": "0.0-79.0-7.0", "time_elapsed": 841846, "key_press": -1, "trial_index": 113}, "uniqueid": "MTK2962:3ZDAD0O1T2KDT3OEACCLPK9LGDOXTP", "dateTime": 1519602036338}, {"current_trial": 114, "trialdata": {"rt": -1, "trial_type": "single-stim", "stimulus": "<p id=\"stim\">2</p>", "internal_node_id": "0.0-79.0-8.0", "time_elapsed": 842848, "key_press": -1, "trial_index": 114}, "uniqueid": "MTK2962:3ZDAD0O1T2KDT3OEACCLPK9LGDOXTP", "dateTime": 1519602037340}, {"current_trial": 115, "trialdata": {"rt": -1, "trial_type": "single-stim", "stimulus": "<p id=\"stim\">1</p>", "internal_node_id": "0.0-79.0-9.0", "time_elapsed": 843849, "key_press": -1, "trial_index": 115}, "uniqueid": "MTK2962:3ZDAD0O1T2KDT3OEACCLPK9LGDOXTP", "dateTime": 1519602038342}, {"current_trial": 116, "trialdata": {"rt": -1, "trial_type": "single-stim", "stimulus": "<p id=\"stim\">+</p>", "internal_node_id": "0.0-80.0-0.0", "time_elapsed": 845353, "key_press": -1, "type": "FIXATION", "trial_index": 116}, "uniqueid": "MTK2962:3ZDAD0O1T2KDT3OEACCLPK9LGDOXTP", "dateTime": 1519602039845}, {"current_trial": 117, "trialdata": {"rt": -1000, "trial_type": "single-audio", "word": "liver", "stimulus": "/static/audio/wordpool/LIVER.wav", "conditions": [12, 800, "a", 12000], "internal_node_id": "0.0-81.0", "trial": 3, "time_elapsed": 847198, "serialpos": 0, "key_press": -1, "wordID": 832, "type": "PRES_AUD", "trial_index": 117}, "uniqueid": "MTK2962:3ZDAD0O1T2KDT3OEACCLPK9LGDOXTP", "dateTime": 1519602041692}, {"current_trial": 118, "trialdata": {"rt": -1000, "trial_type": "single-audio", "word": "mildew", "stimulus": "/static/audio/wordpool/MILDEW.wav", "conditions": [12, 800, "a", 12000], "internal_node_id": "0.0-82.0", "trial": 3, "time_elapsed": 848911, "serialpos": 1, "key_press": -1, "wordID": 892, "type": "PRES_AUD", "trial_index": 118}, "uniqueid": "MTK2962:3ZDAD0O1T2KDT3OEACCLPK9LGDOXTP", "dateTime": 1519602043403}, {"current_trial": 119, "trialdata": {"rt": -1000, "trial_type": "single-audio", "word": "orchid", "stimulus": "/static/audio/wordpool/ORCHID.wav", "conditions": [12, 800, "a", 12000], "internal_node_id": "0.0-83.0", "trial": 3, "time_elapsed": 850550, "serialpos": 2, "key_press": -1, "wordID": 981, "type": "PRES_AUD", "trial_index": 119}, "uniqueid": "MTK2962:3ZDAD0O1T2KDT3OEACCLPK9LGDOXTP", "dateTime": 1519602045042}, {"current_trial": 120, "trialdata": {"rt": -1000, "trial_type": "single-audio", "word": "shrub", "stimulus": "/static/audio/wordpool/SHRUB.wav", "conditions": [12, 800, "a", 12000], "internal_node_id": "0.0-84.0", "trial": 3, "time_elapsed": 852247, "serialpos": 3, "key_press": -1, "wordID": 1298, "type": "PRES_AUD", "trial_index": 120}, "uniqueid": "MTK2962:3ZDAD0O1T2KDT3OEACCLPK9LGDOXTP", "dateTime": 1519602046739}, {"current_trial": 121, "trialdata": {"rt": -1000, "trial_type": "single-audio", "word": "kidney", "stimulus": "/static/audio/wordpool/KIDNEY.wav", "conditions": [12, 800, "a", 12000], "internal_node_id": "0.0-85.0", "trial": 3, "time_elapsed": 854079, "serialpos": 4, "key_press": -1, "wordID": 775, "type": "PRES_AUD", "trial_index": 121}, "uniqueid": "MTK2962:3ZDAD0O1T2KDT3OEACCLPK9LGDOXTP", "dateTime": 1519602048571}, {"current_trial": 122, "trialdata": {"rt": -1000, "trial_type": "single-audio", "word": "arm", "stimulus": "/static/audio/wordpool/ARM.wav", "conditions": [12, 800, "a", 12000], "internal_node_id": "0.0-86.0", "trial": 3, "time_elapsed": 855782, "serialpos": 5, "key_press": -1, "wordID": 37, "type": "PRES_AUD", "trial_index": 122}, "uniqueid": "MTK2962:3ZDAD0O1T2KDT3OEACCLPK9LGDOXTP", "dateTime": 1519602050274}, {"current_trial": 123, "trialdata": {"rt": -1000, "trial_type": "single-audio", "word": "camel", "stimulus": "/static/audio/wordpool/CAMEL.wav", "conditions": [12, 800, "a", 12000], "internal_node_id": "0.0-87.0", "trial": 3, "time_elapsed": 857528, "serialpos": 6, "key_press": -1, "wordID": 222, "type": "PRES_AUD", "trial_index": 123}, "uniqueid": "MTK2962:3ZDAD0O1T2KDT3OEACCLPK9LGDOXTP", "dateTime": 1519602052021}, {"current_trial": 124, "trialdata": {"rt": -1000, "trial_type": "single-audio", "word": "washer", "stimulus": "/static/audio/wordpool/WASHER.wav", "conditions": [12, 800, "a", 12000], "internal_node_id": "0.0-88.0", "trial": 3, "time_elapsed": 859201, "serialpos": 7, "key_press": -1, "wordID": 1591, "type": "PRES_AUD", "trial_index": 124}, "uniqueid": "MTK2962:3ZDAD0O1T2KDT3OEACCLPK9LGDOXTP", "dateTime": 1519602053694}, {"current_trial": 125, "trialdata": {"rt": -1000, "trial_type": "single-audio", "word": "blouse", "stimulus": "/static/audio/wordpool/BLOUSE.wav", "conditions": [12, 800, "a", 12000], "internal_node_id": "0.0-89.0", "trial": 3, "time_elapsed": 860811, "serialpos": 8, "key_press": -1, "wordID": 138, "type": "PRES_AUD", "trial_index": 125}, "uniqueid": "MTK2962:3ZDAD0O1T2KDT3OEACCLPK9LGDOXTP", "dateTime": 1519602055303}, {"current_trial": 126, "trialdata": {"rt": -1000, "trial_type": "single-audio", "word": "atom", "stimulus": "/static/audio/wordpool/ATOM.wav", "conditions": [12, 800, "a", 12000], "internal_node_id": "0.0-90.0", "trial": 3, "time_elapsed": 862671, "serialpos": 9, "key_press": -1, "wordID": 54, "type": "PRES_AUD", "trial_index": 126}, "uniqueid": "MTK2962:3ZDAD0O1T2KDT3OEACCLPK9LGDOXTP", "dateTime": 1519602057164}, {"current_trial": 127, "trialdata": {"rt": -1000, "trial_type": "single-audio", "word": "toaster", "stimulus": "/static/audio/wordpool/TOASTER.wav", "conditions": [12, 800, "a", 12000], "internal_node_id": "0.0-91.0", "trial": 3, "time_elapsed": 864443, "serialpos": 10, "key_press": -1, "wordID": 1471, "type": "PRES_AUD", "trial_index": 127}, "uniqueid": "MTK2962:3ZDAD0O1T2KDT3OEACCLPK9LGDOXTP", "dateTime": 1519602058935}, {"current_trial": 128, "trialdata": {"rt": -1000, "trial_type": "single-audio", "word": "marsh", "stimulus": "/static/audio/wordpool/MARSH.wav", "conditions": [12, 800, "a", 12000], "internal_node_id": "0.0-92.0", "trial": 3, "time_elapsed": 866114, "serialpos": 11, "key_press": -1, "wordID": 873, "type": "PRES_AUD", "trial_index": 128}, "uniqueid": "MTK2962:3ZDAD0O1T2KDT3OEACCLPK9LGDOXTP", "dateTime": 1519602060607}, {"current_trial": 129, "trialdata": {"rt": -1, "trial_type": "single-stim", "stimulus": "", "internal_node_id": "0.0-93.0-0.0", "time_elapsed": 867530, "key_press": -1, "type": "PRE_RECALL_DELAY", "trial_index": 129}, "uniqueid": "MTK2962:3ZDAD0O1T2KDT3OEACCLPK9LGDOXTP", "dateTime": 1519602062022}, {"current_trial": 130, "trialdata": {"rt": -1000, "trial_type": "single-audio", "stimulus": "/static/audio/400Hz.wav", "internal_node_id": "0.0-94.0", "time_elapsed": 868033, "key_press": -1, "type": "PRE_RECALL_ALERT", "trial_index": 130}, "uniqueid": "MTK2962:3ZDAD0O1T2KDT3OEACCLPK9LGDOXTP", "dateTime": 1519602062525}, {"current_trial": 131, "trialdata": {"rt": [7324, 12820, 17298, 23560, 29340, 32668, 34804, 39938, 42500, 46857, 48573, 51844], "recwords": ["liver", "mildew", "orchid", "shlum", "kidney", "arm", "camel", "washer", "blouse", "adam", "toaster", "marsh"], "key_times": [6224, 6390, 6744, 6866, 6993, 7324, 11417, 11592, 11767, 12027, 12218, 12572, 12820, 13395, 13750, 15498, 15763, 16049, 16218, 16416, 16784, 17298, 17872, 18042, 18179, 18869, 20008, 20456, 20810, 21019, 21155, 23560, 27378, 27549, 27972, 28355, 28502, 28723, 29340, 31901, 32196, 32325, 32668, 33941, 34082, 34160, 34299, 34394, 34804, 35479, 35559, 35779, 37766, 38152, 38402, 38503, 38589, 39938, 40579, 40965, 41146, 41290, 41451, 41632, 41786, 41886, 42500, 44923, 46022, 46122, 46341, 46857, 47354, 47510, 47641, 47814, 48088, 48157, 48237, 48573, 49107, 49191, 49606, 49806, 49924, 50599, 50747, 51106, 51387, 51844], "trial_type": "free-recall", "conditions": [12, 800, "a", 12000], "internal_node_id": "0.0-95.0-0.0", "key_presses": [76, 73, 86, 69, 82, 13, 77, 73, 76, 68, 69, 87, 13, 73, 8, 79, 82, 67, 72, 73, 68, 13, 83, 72, 85, 8, 85, 8, 76, 85, 77, 13, 75, 73, 68, 78, 69, 89, 13, 65, 82, 77, 13, 67, 65, 77, 69, 76, 13, 87, 65, 72, 8, 83, 72, 69, 82, 13, 86, 8, 66, 76, 79, 85, 83, 69, 13, 65, 68, 65, 77, 13, 84, 79, 65, 83, 84, 69, 82, 13, 77, 65, 82, 67, 72, 8, 8, 83, 72, 13], "trial": 3, "time_elapsed": 928038, "type": "FREE_RECALL", "trial_index": 131}, "uniqueid": "MTK2962:3ZDAD0O1T2KDT3OEACCLPK9LGDOXTP", "dateTime": 1519602122534}, {"current_trial": 132, "trialdata": {"rt": 1287, "trial_type": "text", "internal_node_id": "0.0-96.0", "time_elapsed": 931332, "key_press": 13, "type": "INSTRUCTIONS", "trial_index": 132}, "uniqueid": "MTK2962:3ZDAD0O1T2KDT3OEACCLPK9LGDOXTP", "dateTime": 1519602125824}, {"current_trial": 133, "trialdata": {"rt": [23653], "trial_type": "math-distractor", "key_times": [23266, 23417, 23653], "responses": ["15"], "num2": [8, 2], "num3": [1, 1], "conditions": [12, 1600, "a", 24000], "internal_node_id": "0.0-97.0", "key_presses": [97, 101, 13], "trial": 4, "time_elapsed": 957341, "type": "DISTRACTOR", "trial_index": 133, "num1": [6, 5]}, "uniqueid": "MTK2962:3ZDAD0O1T2KDT3OEACCLPK9LGDOXTP", "dateTime": 1519602151834}, {"current_trial": 134, "trialdata": {"rt": -1, "trial_type": "single-stim", "stimulus": "<p id=\"stim\">10</p>", "internal_node_id": "0.0-98.0-0.0", "time_elapsed": 960344, "key_press": -1, "trial_index": 134}, "uniqueid": "MTK2962:3ZDAD0O1T2KDT3OEACCLPK9LGDOXTP", "dateTime": 1519602154836}, {"current_trial": 135, "trialdata": {"rt": -1, "trial_type": "single-stim", "stimulus": "<p id=\"stim\">9</p>", "internal_node_id": "0.0-98.0-1.0", "time_elapsed": 961345, "key_press": -1, "trial_index": 135}, "uniqueid": "MTK2962:3ZDAD0O1T2KDT3OEACCLPK9LGDOXTP", "dateTime": 1519602155837}, {"current_trial": 136, "trialdata": {"rt": -1, "trial_type": "single-stim", "stimulus": "<p id=\"stim\">8</p>", "internal_node_id": "0.0-98.0-2.0", "time_elapsed": 962348, "key_press": -1, "trial_index": 136}, "uniqueid": "MTK2962:3ZDAD0O1T2KDT3OEACCLPK9LGDOXTP", "dateTime": 1519602156840}, {"current_trial": 137, "trialdata": {"rt": -1, "trial_type": "single-stim", "stimulus": "<p id=\"stim\">7</p>", "internal_node_id": "0.0-98.0-3.0", "time_elapsed": 963362, "key_press": -1, "trial_index": 137}, "uniqueid": "MTK2962:3ZDAD0O1T2KDT3OEACCLPK9LGDOXTP", "dateTime": 1519602157856}, {"current_trial": 138, "trialdata": {"rt": -1, "trial_type": "single-stim", "stimulus": "<p id=\"stim\">6</p>", "internal_node_id": "0.0-98.0-4.0", "time_elapsed": 964364, "key_press": -1, "trial_index": 138}, "uniqueid": "MTK2962:3ZDAD0O1T2KDT3OEACCLPK9LGDOXTP", "dateTime": 1519602158856}, {"current_trial": 139, "trialdata": {"rt": -1, "trial_type": "single-stim", "stimulus": "<p id=\"stim\">5</p>", "internal_node_id": "0.0-98.0-5.0", "time_elapsed": 965366, "key_press": -1, "trial_index": 139}, "uniqueid": "MTK2962:3ZDAD0O1T2KDT3OEACCLPK9LGDOXTP", "dateTime": 1519602159858}, {"current_trial": 140, "trialdata": {"rt": -1, "trial_type": "single-stim", "stimulus": "<p id=\"stim\">4</p>", "internal_node_id": "0.0-98.0-6.0", "time_elapsed": 966366, "key_press": -1, "trial_index": 140}, "uniqueid": "MTK2962:3ZDAD0O1T2KDT3OEACCLPK9LGDOXTP", "dateTime": 1519602160860}, {"current_trial": 141, "trialdata": {"rt": -1, "trial_type": "single-stim", "stimulus": "<p id=\"stim\">3</p>", "internal_node_id": "0.0-98.0-7.0", "time_elapsed": 967375, "key_press": -1, "trial_index": 141}, "uniqueid": "MTK2962:3ZDAD0O1T2KDT3OEACCLPK9LGDOXTP", "dateTime": 1519602161867}, {"current_trial": 142, "trialdata": {"rt": -1, "trial_type": "single-stim", "stimulus": "<p id=\"stim\">2</p>", "internal_node_id": "0.0-98.0-8.0", "time_elapsed": 968376, "key_press": -1, "trial_index": 142}, "uniqueid": "MTK2962:3ZDAD0O1T2KDT3OEACCLPK9LGDOXTP", "dateTime": 1519602162868}, {"current_trial": 143, "trialdata": {"rt": -1, "trial_type": "single-stim", "stimulus": "<p id=\"stim\">1</p>", "internal_node_id": "0.0-98.0-9.0", "time_elapsed": 969378, "key_press": -1, "trial_index": 143}, "uniqueid": "MTK2962:3ZDAD0O1T2KDT3OEACCLPK9LGDOXTP", "dateTime": 1519602163870}, {"current_trial": 144, "trialdata": {"rt": -1, "trial_type": "single-stim", "stimulus": "<p id=\"stim\">+</p>", "internal_node_id": "0.0-99.0-0.0", "time_elapsed": 970880, "key_press": -1, "type": "FIXATION", "trial_index": 144}, "uniqueid": "MTK2962:3ZDAD0O1T2KDT3OEACCLPK9LGDOXTP", "dateTime": 1519602165372}, {"current_trial": 145, "trialdata": {"rt": -1000, "trial_type": "single-audio", "word": "tunnel", "stimulus": "/static/audio/wordpool/TUNNEL.wav", "conditions": [12, 1600, "a", 24000], "internal_node_id": "0.0-100.0", "trial": 4, "time_elapsed": 973443, "serialpos": 0, "key_press": -1, "wordID": 1518, "type": "PRES_AUD", "trial_index": 145}, "uniqueid": "MTK2962:3ZDAD0O1T2KDT3OEACCLPK9LGDOXTP", "dateTime": 1519602167935}, {"current_trial": 146, "trialdata": {"rt": -1000, "trial_type": "single-audio", "word": "beast", "stimulus": "/static/audio/wordpool/BEAST.wav", "conditions": [12, 1600, "a", 24000], "internal_node_id": "0.0-101.0", "trial": 4, "time_elapsed": 976089, "serialpos": 1, "key_press": -1, "wordID": 107, "type": "PRES_AUD", "trial_index": 146}, "uniqueid": "MTK2962:3ZDAD0O1T2KDT3OEACCLPK9LGDOXTP", "dateTime": 1519602170581}, {"current_trial": 147, "trialdata": {"rt": -1000, "trial_type": "single-audio", "word": "quail", "stimulus": "/static/audio/wordpool/QUAIL.wav", "conditions": [12, 1600, "a", 24000], "internal_node_id": "0.0-102.0", "trial": 4, "time_elapsed": 978752, "serialpos": 2, "key_press": -1, "wordID": 1146, "type": "PRES_AUD", "trial_index": 147}, "uniqueid": "MTK2962:3ZDAD0O1T2KDT3OEACCLPK9LGDOXTP", "dateTime": 1519602173245}, {"current_trial": 148, "trialdata": {"rt": -1000, "trial_type": "single-audio", "word": "stallion", "stimulus": "/static/audio/wordpool/STALLION.wav", "conditions": [12, 1600, "a", 24000], "internal_node_id": "0.0-103.0", "trial": 4, "time_elapsed": 981448, "serialpos": 3, "key_press": -1, "wordID": 1368, "type": "PRES_AUD", "trial_index": 148}, "uniqueid": "MTK2962:3ZDAD0O1T2KDT3OEACCLPK9LGDOXTP", "dateTime": 1519602175940}, {"current_trial": 149, "trialdata": {"rt": -1000, "trial_type": "single-audio", "word": "bullet", "stimulus": "/static/audio/wordpool/BULLET.wav", "conditions": [12, 1600, "a", 24000], "internal_node_id": "0.0-104.0", "trial": 4, "time_elapsed": 983920, "serialpos": 4, "key_press": -1, "wordID": 193, "type": "PRES_AUD", "trial_index": 149}, "uniqueid": "MTK2962:3ZDAD0O1T2KDT3OEACCLPK9LGDOXTP", "dateTime": 1519602178412}, {"current_trial": 150, "trialdata": {"rt": -1000, "trial_type": "single-audio", "word": "brick", "stimulus": "/static/audio/wordpool/BRICK.wav", "conditions": [12, 1600, "a", 24000], "internal_node_id": "0.0-105.0", "trial": 4, "time_elapsed": 986404, "serialpos": 5, "key_press": -1, "wordID": 171, "type": "PRES_AUD", "trial_index": 150}, "uniqueid": "MTK2962:3ZDAD0O1T2KDT3OEACCLPK9LGDOXTP", "dateTime": 1519602180896}, {"current_trial": 151, "trialdata": {"rt": -1000, "trial_type": "single-audio", "word": "lapel", "stimulus": "/static/audio/wordpool/LAPEL.wav", "conditions": [12, 1600, "a", 24000], "internal_node_id": "0.0-106.0", "trial": 4, "time_elapsed": 988991, "serialpos": 6, "key_press": -1, "wordID": 799, "type": "PRES_AUD", "trial_index": 151}, "uniqueid": "MTK2962:3ZDAD0O1T2KDT3OEACCLPK9LGDOXTP", "dateTime": 1519602183483}, {"current_trial": 152, "trialdata": {"rt": -1000, "trial_type": "single-audio", "word": "missile", "stimulus": "/static/audio/wordpool/MISSILE.wav", "conditions": [12, 1600, "a", 24000], "internal_node_id": "0.0-107.0", "trial": 4, "time_elapsed": 991394, "serialpos": 7, "key_press": -1, "wordID": 899, "type": "PRES_AUD", "trial_index": 152}, "uniqueid": "MTK2962:3ZDAD0O1T2KDT3OEACCLPK9LGDOXTP", "dateTime": 1519602185886}, {"current_trial": 153, "trialdata": {"rt": -1000, "trial_type": "single-audio", "word": "stone", "stimulus": "/static/audio/wordpool/STONE.wav", "conditions": [12, 1600, "a", 24000], "internal_node_id": "0.0-108.0", "trial": 4, "time_elapsed": 994075, "serialpos": 8, "key_press": -1, "wordID": 1384, "type": "PRES_AUD", "trial_index": 153}, "uniqueid": "MTK2962:3ZDAD0O1T2KDT3OEACCLPK9LGDOXTP", "dateTime": 1519602188567}, {"current_trial": 154, "trialdata": {"rt": -1000, "trial_type": "single-audio", "word": "cabbage", "stimulus": "/static/audio/wordpool/CABBAGE.wav", "conditions": [12, 1600, "a", 24000], "internal_node_id": "0.0-109.0", "trial": 4, "time_elapsed": 996821, "serialpos": 9, "key_press": -1, "wordID": 209, "type": "PRES_AUD", "trial_index": 154}, "uniqueid": "MTK2962:3ZDAD0O1T2KDT3OEACCLPK9LGDOXTP", "dateTime": 1519602191313}, {"current_trial": 155, "trialdata": {"rt": -1000, "trial_type": "single-audio", "word": "turnip", "stimulus": "/static/audio/wordpool/TURNIP.wav", "conditions": [12, 1600, "a", 24000], "internal_node_id": "0.0-110.0", "trial": 4, "time_elapsed": 999261, "serialpos": 10, "key_press": -1, "wordID": 1520, "type": "PRES_AUD", "trial_index": 155}, "uniqueid": "MTK2962:3ZDAD0O1T2KDT3OEACCLPK9LGDOXTP", "dateTime": 1519602193753}, {"current_trial": 156, "trialdata": {"rt": -1000, "trial_type": "single-audio", "word": "beaver", "stimulus": "/static/audio/wordpool/BEAVER.wav", "conditions": [12, 1600, "a", 24000], "internal_node_id": "0.0-111.0", "trial": 4, "time_elapsed": 1001941, "serialpos": 11, "key_press": -1, "wordID": 108, "type": "PRES_AUD", "trial_index": 156}, "uniqueid": "MTK2962:3ZDAD0O1T2KDT3OEACCLPK9LGDOXTP", "dateTime": 1519602196433}, {"current_trial": 157, "trialdata": {"rt": -1, "trial_type": "single-stim", "stimulus": "", "internal_node_id": "0.0-112.0-0.0", "time_elapsed": 1003210, "key_press": -1, "type": "PRE_RECALL_DELAY", "trial_index": 157}, "uniqueid": "MTK2962:3ZDAD0O1T2KDT3OEACCLPK9LGDOXTP", "dateTime": 1519602197703}, {"current_trial": 158, "trialdata": {"rt": -1000, "trial_type": "single-audio", "stimulus": "/static/audio/400Hz.wav", "internal_node_id": "0.0-113.0", "time_elapsed": 1003711, "key_press": -1, "type": "PRE_RECALL_ALERT", "trial_index": 158}, "uniqueid": "MTK2962:3ZDAD0O1T2KDT3OEACCLPK9LGDOXTP", "dateTime": 1519602198203}, {"current_trial": 159, "trialdata": {"rt": [8180, 12648, 17461, 23946, 28814, 30495, 34476, 41424, 43804, 48257, 51500, 53494], "recwords": ["tunnel", "beast", "quail", "stallion", "bullet", "brick", "lapelle", "missle", "stone", "cabbage", "turnip", "beaver"], "key_times": [6283, 6428, 6572, 6707, 6889, 7121, 8180, 11636, 11884, 11957, 12117, 12313, 12648, 15845, 16061, 16337, 16474, 16611, 17461, 19951, 21397, 21591, 21765, 21897, 22058, 22248, 22402, 23946, 26722, 26915, 27526, 27894, 28074, 28295, 28814, 29313, 29528, 29676, 29856, 29993, 30495, 32692, 32892, 33183, 33377, 33575, 33704, 33827, 34476, 37252, 37427, 37623, 37780, 37877, 38171, 38275, 38820, 38962, 39685, 41067, 41190, 41424, 42484, 42780, 42920, 43062, 43195, 43804, 46453, 47191, 47396, 47505, 47661, 47925, 48041, 48257, 49224, 49418, 49614, 50721, 50928, 51128, 51500, 52167, 52337, 52403, 52673, 52840, 52925, 53494], "trial_type": "free-recall", "conditions": [12, 1600, "a", 24000], "internal_node_id": "0.0-114.0-0.0", "key_presses": [84, 85, 78, 78, 69, 76, 13, 66, 69, 65, 83, 84, 13, 81, 85, 65, 73, 76, 13, 83, 84, 65, 76, 76, 73, 79, 78, 13, 66, 85, 76, 76, 69, 84, 13, 66, 82, 73, 67, 75, 13, 76, 65, 80, 69, 76, 76, 69, 13, 77, 73, 83, 83, 73, 69, 76, 8, 8, 8, 76, 69, 13, 83, 84, 79, 78, 69, 13, 67, 65, 66, 66, 65, 71, 69, 13, 84, 85, 82, 78, 73, 80, 13, 66, 69, 65, 86, 69, 82, 13], "trial": 4, "time_elapsed": 1063716, "type": "FREE_RECALL", "trial_index": 159}, "uniqueid": "MTK2962:3ZDAD0O1T2KDT3OEACCLPK9LGDOXTP", "dateTime": 1519602258216}, {"current_trial": 160, "trialdata": {"rt": 2137, "trial_type": "text", "internal_node_id": "0.0-115.0", "time_elapsed": 1067869, "key_press": 13, "type": "INSTRUCTIONS", "trial_index": 160}, "uniqueid": "MTK2962:3ZDAD0O1T2KDT3OEACCLPK9LGDOXTP", "dateTime": 1519602262361}, {"current_trial": 161, "trialdata": {"rt": [13095, 20331], "trial_type": "math-distractor", "key_times": [12739, 12863, 13095, 20000, 20138, 20331], "responses": ["22", "21"], "num2": [9, 7, 6], "num3": [8, 7, 8], "conditions": [24, 800, "a", 24000], "internal_node_id": "0.0-116.0", "key_presses": [98, 98, 13, 98, 97, 13], "trial": 5, "time_elapsed": 1093874, "type": "DISTRACTOR", "trial_index": 161, "num1": [5, 7, 7]}, "uniqueid": "MTK2962:3ZDAD0O1T2KDT3OEACCLPK9LGDOXTP", "dateTime": 1519602288370}, {"current_trial": 162, "trialdata": {"rt": -1, "trial_type": "single-stim", "stimulus": "<p id=\"stim\">10</p>", "internal_node_id": "0.0-117.0-0.0", "time_elapsed": 1096880, "key_press": -1, "trial_index": 162}, "uniqueid": "MTK2962:3ZDAD0O1T2KDT3OEACCLPK9LGDOXTP", "dateTime": 1519602291372}, {"current_trial": 163, "trialdata": {"rt": -1, "trial_type": "single-stim", "stimulus": "<p id=\"stim\">9</p>", "internal_node_id": "0.0-117.0-1.0", "time_elapsed": 1097882, "key_press": -1, "trial_index": 163}, "uniqueid": "MTK2962:3ZDAD0O1T2KDT3OEACCLPK9LGDOXTP", "dateTime": 1519602292374}, {"current_trial": 164, "trialdata": {"rt": -1, "trial_type": "single-stim", "stimulus": "<p id=\"stim\">8</p>", "internal_node_id": "0.0-117.0-2.0", "time_elapsed": 1098882, "key_press": -1, "trial_index": 164}, "uniqueid": "MTK2962:3ZDAD0O1T2KDT3OEACCLPK9LGDOXTP", "dateTime": 1519602293375}, {"current_trial": 165, "trialdata": {"rt": -1, "trial_type": "single-stim", "stimulus": "<p id=\"stim\">7</p>", "internal_node_id": "0.0-117.0-3.0", "time_elapsed": 1099886, "key_press": -1, "trial_index": 165}, "uniqueid": "MTK2962:3ZDAD0O1T2KDT3OEACCLPK9LGDOXTP", "dateTime": 1519602294378}, {"current_trial": 166, "trialdata": {"rt": -1, "trial_type": "single-stim", "stimulus": "<p id=\"stim\">6</p>", "internal_node_id": "0.0-117.0-4.0", "time_elapsed": 1100886, "key_press": -1, "trial_index": 166}, "uniqueid": "MTK2962:3ZDAD0O1T2KDT3OEACCLPK9LGDOXTP", "dateTime": 1519602295378}, {"current_trial": 167, "trialdata": {"rt": -1, "trial_type": "single-stim", "stimulus": "<p id=\"stim\">5</p>", "internal_node_id": "0.0-117.0-5.0", "time_elapsed": 1101887, "key_press": -1, "trial_index": 167}, "uniqueid": "MTK2962:3ZDAD0O1T2KDT3OEACCLPK9LGDOXTP", "dateTime": 1519602296379}, {"current_trial": 168, "trialdata": {"rt": -1, "trial_type": "single-stim", "stimulus": "<p id=\"stim\">4</p>", "internal_node_id": "0.0-117.0-6.0", "time_elapsed": 1102888, "key_press": -1, "trial_index": 168}, "uniqueid": "MTK2962:3ZDAD0O1T2KDT3OEACCLPK9LGDOXTP", "dateTime": 1519602297381}, {"current_trial": 169, "trialdata": {"rt": -1, "trial_type": "single-stim", "stimulus": "<p id=\"stim\">3</p>", "internal_node_id": "0.0-117.0-7.0", "time_elapsed": 1103891, "key_press": -1, "trial_index": 169}, "uniqueid": "MTK2962:3ZDAD0O1T2KDT3OEACCLPK9LGDOXTP", "dateTime": 1519602298383}, {"current_trial": 170, "trialdata": {"rt": -1, "trial_type": "single-stim", "stimulus": "<p id=\"stim\">2</p>", "internal_node_id": "0.0-117.0-8.0", "time_elapsed": 1104893, "key_press": -1, "trial_index": 170}, "uniqueid": "MTK2962:3ZDAD0O1T2KDT3OEACCLPK9LGDOXTP", "dateTime": 1519602299386}, {"current_trial": 171, "trialdata": {"rt": -1, "trial_type": "single-stim", "stimulus": "<p id=\"stim\">1</p>", "internal_node_id": "0.0-117.0-9.0", "time_elapsed": 1105895, "key_press": -1, "trial_index": 171}, "uniqueid": "MTK2962:3ZDAD0O1T2KDT3OEACCLPK9LGDOXTP", "dateTime": 1519602300387}, {"current_trial": 172, "trialdata": {"rt": -1, "trial_type": "single-stim", "stimulus": "<p id=\"stim\">+</p>", "internal_node_id": "0.0-118.0-0.0", "time_elapsed": 1107399, "key_press": -1, "type": "FIXATION", "trial_index": 172}, "uniqueid": "MTK2962:3ZDAD0O1T2KDT3OEACCLPK9LGDOXTP", "dateTime": 1519602301891}, {"current_trial": 173, "trialdata": {"rt": -1000, "trial_type": "single-audio", "word": "razor", "stimulus": "/static/audio/wordpool/RAZOR.wav", "conditions": [24, 800, "a", 24000], "internal_node_id": "0.0-119.0", "trial": 5, "time_elapsed": 1109201, "serialpos": 0, "key_press": -1, "wordID": 1170, "type": "PRES_AUD", "trial_index": 173}, "uniqueid": "MTK2962:3ZDAD0O1T2KDT3OEACCLPK9LGDOXTP", "dateTime": 1519602303693}, {"current_trial": 174, "trialdata": {"rt": -1000, "trial_type": "single-audio", "word": "skillet", "stimulus": "/static/audio/wordpool/SKILLET.wav", "conditions": [24, 800, "a", 24000], "internal_node_id": "0.0-120.0", "trial": 5, "time_elapsed": 1110906, "serialpos": 1, "key_press": -1, "wordID": 1316, "type": "PRES_AUD", "trial_index": 174}, "uniqueid": "MTK2962:3ZDAD0O1T2KDT3OEACCLPK9LGDOXTP", "dateTime": 1519602305398}, {"current_trial": 175, "trialdata": {"rt": -1000, "trial_type": "single-audio", "word": "muffin", "stimulus": "/static/audio/wordpool/MUFFIN.wav", "conditions": [24, 800, "a", 24000], "internal_node_id": "0.0-121.0", "trial": 5, "time_elapsed": 1112656, "serialpos": 2, "key_press": -1, "wordID": 928, "type": "PRES_AUD", "trial_index": 175}, "uniqueid": "MTK2962:3ZDAD0O1T2KDT3OEACCLPK9LGDOXTP", "dateTime": 1519602307148}, {"current_trial": 176, "trialdata": {"rt": -1000, "trial_type": "single-audio", "word": "shortcake", "stimulus": "/static/audio/wordpool/SHORTCAKE.wav", "conditions": [24, 800, "a", 24000], "internal_node_id": "0.0-122.0", "trial": 5, "time_elapsed": 1114647, "serialpos": 3, "key_press": -1, "wordID": 1291, "type": "PRES_AUD", "trial_index": 176}, "uniqueid": "MTK2962:3ZDAD0O1T2KDT3OEACCLPK9LGDOXTP", "dateTime": 1519602309140}, {"current_trial": 177, "trialdata": {"rt": -1000, "trial_type": "single-audio", "word": "bucket", "stimulus": "/static/audio/wordpool/BUCKET.wav", "conditions": [24, 800, "a", 24000], "internal_node_id": "0.0-123.0", "trial": 5, "time_elapsed": 1116425, "serialpos": 4, "key_press": -1, "wordID": 183, "type": "PRES_AUD", "trial_index": 177}, "uniqueid": "MTK2962:3ZDAD0O1T2KDT3OEACCLPK9LGDOXTP", "dateTime": 1519602310918}, {"current_trial": 178, "trialdata": {"rt": -1000, "trial_type": "single-audio", "word": "shelter", "stimulus": "/static/audio/wordpool/SHELTER.wav", "conditions": [24, 800, "a", 24000], "internal_node_id": "0.0-124.0", "trial": 5, "time_elapsed": 1118171, "serialpos": 5, "key_press": -1, "wordID": 1281, "type": "PRES_AUD", "trial_index": 178}, "uniqueid": "MTK2962:3ZDAD0O1T2KDT3OEACCLPK9LGDOXTP", "dateTime": 1519602312665}, {"current_trial": 179, "trialdata": {"rt": -1000, "trial_type": "single-audio", "word": "spoon", "stimulus": "/static/audio/wordpool/SPOON.wav", "conditions": [24, 800, "a", 24000], "internal_node_id": "0.0-125.0", "trial": 5, "time_elapsed": 1120122, "serialpos": 6, "key_press": -1, "wordID": 1356, "type": "PRES_AUD", "trial_index": 179}, "uniqueid": "MTK2962:3ZDAD0O1T2KDT3OEACCLPK9LGDOXTP", "dateTime": 1519602314615}, {"current_trial": 180, "trialdata": {"rt": -1000, "trial_type": "single-audio", "word": "spider", "stimulus": "/static/audio/wordpool/SPIDER.wav", "conditions": [24, 800, "a", 24000], "internal_node_id": "0.0-126.0", "trial": 5, "time_elapsed": 1121873, "serialpos": 7, "key_press": -1, "wordID": 1350, "type": "PRES_AUD", "trial_index": 180}, "uniqueid": "MTK2962:3ZDAD0O1T2KDT3OEACCLPK9LGDOXTP", "dateTime": 1519602316366}, {"current_trial": 181, "trialdata": {"rt": -1000, "trial_type": "single-audio", "word": "typist", "stimulus": "/static/audio/wordpool/TYPIST.wav", "conditions": [24, 800, "a", 24000], "internal_node_id": "0.0-127.0", "trial": 5, "time_elapsed": 1123662, "serialpos": 8, "key_press": -1, "wordID": 1531, "type": "PRES_AUD", "trial_index": 181}, "uniqueid": "MTK2962:3ZDAD0O1T2KDT3OEACCLPK9LGDOXTP", "dateTime": 1519602318155}, {"current_trial": 182, "trialdata": {"rt": -1000, "trial_type": "single-audio", "word": "binder", "stimulus": "/static/audio/wordpool/BINDER.wav", "conditions": [24, 800, "a", 24000], "internal_node_id": "0.0-128.0", "trial": 5, "time_elapsed": 1125298, "serialpos": 9, "key_press": -1, "wordID": 126, "type": "PRES_AUD", "trial_index": 182}, "uniqueid": "MTK2962:3ZDAD0O1T2KDT3OEACCLPK9LGDOXTP", "dateTime": 1519602319790}, {"current_trial": 183, "trialdata": {"rt": -1000, "trial_type": "single-audio", "word": "princess", "stimulus": "/static/audio/wordpool/PRINCESS.wav", "conditions": [24, 800, "a", 24000], "internal_node_id": "0.0-129.0", "trial": 5, "time_elapsed": 1127195, "serialpos": 10, "key_press": -1, "wordID": 1124, "type": "PRES_AUD", "trial_index": 183}, "uniqueid": "MTK2962:3ZDAD0O1T2KDT3OEACCLPK9LGDOXTP", "dateTime": 1519602321688}, {"current_trial": 184, "trialdata": {"rt": -1000, "trial_type": "single-audio", "word": "sparrow", "stimulus": "/static/audio/wordpool/SPARROW.wav", "conditions": [24, 800, "a", 24000], "internal_node_id": "0.0-130.0", "trial": 5, "time_elapsed": 1129083, "serialpos": 11, "key_press": -1, "wordID": 1346, "type": "PRES_AUD", "trial_index": 184}, "uniqueid": "MTK2962:3ZDAD0O1T2KDT3OEACCLPK9LGDOXTP", "dateTime": 1519602323576}, {"current_trial": 185, "trialdata": {"rt": -1000, "trial_type": "single-audio", "word": "snake", "stimulus": "/static/audio/wordpool/SNAKE.wav", "conditions": [24, 800, "a", 24000], "internal_node_id": "0.0-131.0", "trial": 5, "time_elapsed": 1131075, "serialpos": 12, "key_press": -1, "wordID": 1332, "type": "PRES_AUD", "trial_index": 185}, "uniqueid": "MTK2962:3ZDAD0O1T2KDT3OEACCLPK9LGDOXTP", "dateTime": 1519602325568}, {"current_trial": 186, "trialdata": {"rt": -1000, "trial_type": "single-audio", "word": "skirt", "stimulus": "/static/audio/wordpool/SKIRT.wav", "conditions": [24, 800, "a", 24000], "internal_node_id": "0.0-132.0", "trial": 5, "time_elapsed": 1132922, "serialpos": 13, "key_press": -1, "wordID": 1318, "type": "PRES_AUD", "trial_index": 186}, "uniqueid": "MTK2962:3ZDAD0O1T2KDT3OEACCLPK9LGDOXTP", "dateTime": 1519602327415}, {"current_trial": 187, "trialdata": {"rt": -1000, "trial_type": "single-audio", "word": "highway", "stimulus": "/static/audio/wordpool/HIGHWAY.wav", "conditions": [24, 800, "a", 24000], "internal_node_id": "0.0-133.0", "trial": 5, "time_elapsed": 1134843, "serialpos": 14, "key_press": -1, "wordID": 706, "type": "PRES_AUD", "trial_index": 187}, "uniqueid": "MTK2962:3ZDAD0O1T2KDT3OEACCLPK9LGDOXTP", "dateTime": 1519602329335}, {"current_trial": 188, "trialdata": {"rt": -1000, "trial_type": "single-audio", "word": "bike", "stimulus": "/static/audio/wordpool/BIKE.wav", "conditions": [24, 800, "a", 24000], "internal_node_id": "0.0-134.0", "trial": 5, "time_elapsed": 1136780, "serialpos": 15, "key_press": -1, "wordID": 124, "type": "PRES_AUD", "trial_index": 188}, "uniqueid": "MTK2962:3ZDAD0O1T2KDT3OEACCLPK9LGDOXTP", "dateTime": 1519602331277}, {"current_trial": 189, "trialdata": {"rt": -1000, "trial_type": "single-audio", "word": "grape", "stimulus": "/static/audio/wordpool/GRAPE.wav", "conditions": [24, 800, "a", 24000], "internal_node_id": "0.0-135.0", "trial": 5, "time_elapsed": 1138662, "serialpos": 16, "key_press": -1, "wordID": 653, "type": "PRES_AUD", "trial_index": 189}, "uniqueid": "MTK2962:3ZDAD0O1T2KDT3OEACCLPK9LGDOXTP", "dateTime": 1519602333154}, {"current_trial": 190, "trialdata": {"rt": -1000, "trial_type": "single-audio", "word": "gymnast", "stimulus": "/static/audio/wordpool/GYMNAST.wav", "conditions": [24, 800, "a", 24000], "internal_node_id": "0.0-136.0", "trial": 5, "time_elapsed": 1140310, "serialpos": 17, "key_press": -1, "wordID": 674, "type": "PRES_AUD", "trial_index": 190}, "uniqueid": "MTK2962:3ZDAD0O1T2KDT3OEACCLPK9LGDOXTP", "dateTime": 1519602334802}, {"current_trial": 191, "trialdata": {"rt": -1000, "trial_type": "single-audio", "word": "tile", "stimulus": "/static/audio/wordpool/TILE.wav", "conditions": [24, 800, "a", 24000], "internal_node_id": "0.0-137.0", "trial": 5, "time_elapsed": 1142104, "serialpos": 18, "key_press": -1, "wordID": 1467, "type": "PRES_AUD", "trial_index": 191}, "uniqueid": "MTK2962:3ZDAD0O1T2KDT3OEACCLPK9LGDOXTP", "dateTime": 1519602336596}, {"current_trial": 192, "trialdata": {"rt": -1000, "trial_type": "single-audio", "word": "omelet", "stimulus": "/static/audio/wordpool/OMELET.wav", "conditions": [24, 800, "a", 24000], "internal_node_id": "0.0-138.0", "trial": 5, "time_elapsed": 1144041, "serialpos": 19, "key_press": -1, "wordID": 975, "type": "PRES_AUD", "trial_index": 192}, "uniqueid": "MTK2962:3ZDAD0O1T2KDT3OEACCLPK9LGDOXTP", "dateTime": 1519602338533}, {"current_trial": 193, "trialdata": {"rt": -1000, "trial_type": "single-audio", "word": "seafood", "stimulus": "/static/audio/wordpool/SEAFOOD.wav", "conditions": [24, 800, "a", 24000], "internal_node_id": "0.0-139.0", "trial": 5, "time_elapsed": 1145765, "serialpos": 20, "key_press": -1, "wordID": 1259, "type": "PRES_AUD", "trial_index": 193}, "uniqueid": "MTK2962:3ZDAD0O1T2KDT3OEACCLPK9LGDOXTP", "dateTime": 1519602340257}, {"current_trial": 194, "trialdata": {"rt": -1000, "trial_type": "single-audio", "word": "cod", "stimulus": "/static/audio/wordpool/COD.wav", "conditions": [24, 800, "a", 24000], "internal_node_id": "0.0-140.0", "trial": 5, "time_elapsed": 1147661, "serialpos": 21, "key_press": -1, "wordID": 339, "type": "PRES_AUD", "trial_index": 194}, "uniqueid": "MTK2962:3ZDAD0O1T2KDT3OEACCLPK9LGDOXTP", "dateTime": 1519602342153}, {"current_trial": 195, "trialdata": {"rt": -1000, "trial_type": "single-audio", "word": "peach", "stimulus": "/static/audio/wordpool/PEACH.wav", "conditions": [24, 800, "a", 24000], "internal_node_id": "0.0-141.0", "trial": 5, "time_elapsed": 1149494, "serialpos": 22, "key_press": -1, "wordID": 1030, "type": "PRES_AUD", "trial_index": 195}, "uniqueid": "MTK2962:3ZDAD0O1T2KDT3OEACCLPK9LGDOXTP", "dateTime": 1519602343987}, {"current_trial": 196, "trialdata": {"rt": -1000, "trial_type": "single-audio", "word": "bacon", "stimulus": "/static/audio/wordpool/BACON.wav", "conditions": [24, 800, "a", 24000], "internal_node_id": "0.0-142.0", "trial": 5, "time_elapsed": 1151327, "serialpos": 23, "key_press": -1, "wordID": 66, "type": "PRES_AUD", "trial_index": 196}, "uniqueid": "MTK2962:3ZDAD0O1T2KDT3OEACCLPK9LGDOXTP", "dateTime": 1519602345819}, {"current_trial": 197, "trialdata": {"rt": -1, "trial_type": "single-stim", "stimulus": "", "internal_node_id": "0.0-143.0-0.0", "time_elapsed": 1152536, "key_press": -1, "type": "PRE_RECALL_DELAY", "trial_index": 197}, "uniqueid": "MTK2962:3ZDAD0O1T2KDT3OEACCLPK9LGDOXTP", "dateTime": 1519602347028}, {"current_trial": 198, "trialdata": {"rt": -1000, "trial_type": "single-audio", "stimulus": "/static/audio/400Hz.wav", "internal_node_id": "0.0-144.0", "time_elapsed": 1153039, "key_press": -1, "type": "PRE_RECALL_ALERT", "trial_index": 198}, "uniqueid": "MTK2962:3ZDAD0O1T2KDT3OEACCLPK9LGDOXTP", "dateTime": 1519602347531}, {"current_trial": 199, "trialdata": {"rt": [8809, 15533, 17256, 24446, 26680, 28323, 33381, 35437, 41308, 44826, 50562, 52656, 54284, 56111, 58565], "recwords": ["razor", "skillet", "muffin", "shortcake", "bucket", "shelter", "spoon", "spider", "typist", "bbinder", "princess", "sparrow", "snake", "skirt", "jighway"], "key_times": [5988, 6116, 6408, 7165, 7430, 7641, 8101, 8809, 11649, 11867, 12009, 12389, 12803, 14373, 14530, 14779, 14947, 15533, 15921, 16179, 16507, 16646, 16759, 16876, 17256, 20036, 20281, 20721, 20904, 21061, 21315, 21459, 21625, 21755, 22105, 22934, 24446, 25070, 25222, 25583, 25763, 25867, 26041, 26680, 27250, 27399, 27584, 27723, 27924, 28077, 28179, 28323, 32478, 32672, 32865, 32980, 33143, 33381, 34434, 34593, 34748, 35047, 35195, 35293, 35437, 36419, 36719, 37063, 40633, 40947, 41153, 41308, 42656, 42846, 43318, 43866, 44060, 44195, 44420, 44603, 44693, 44826, 48677, 48954, 49155, 49643, 49835, 50051, 50232, 50360, 50562, 51111, 51318, 51459, 51675, 51791, 51957, 52483, 52656, 53052, 53203, 53304, 53448, 53877, 54046, 54132, 54284, 54964, 55176, 55326, 55513, 55712, 56111, 56735, 56903, 57141, 57240, 57693, 57778, 58419, 58565], "trial_type": "free-recall", "conditions": [24, 800, "a", 24000], "internal_node_id": "0.0-145.0-0.0", "key_presses": [82, 65, 83, 8, 90, 79, 82, 13, 83, 75, 73, 84, 8, 76, 76, 69, 84, 13, 77, 85, 70, 70, 73, 78, 13, 83, 72, 79, 82, 84, 67, 65, 75, 69, 100, 8, 13, 66, 85, 67, 75, 69, 84, 13, 83, 72, 69, 76, 84, 69, 82, 13, 83, 80, 79, 79, 78, 13, 83, 80, 73, 68, 69, 82, 13, 84, 89, 80, 73, 83, 84, 32, 66, 85, 8, 66, 73, 78, 68, 69, 82, 13, 80, 82, 73, 78, 67, 69, 83, 83, 13, 83, 80, 65, 82, 82, 79, 87, 13, 83, 78, 65, 76, 8, 75, 69, 13, 83, 75, 73, 82, 84, 13, 74, 73, 71, 72, 87, 65, 89, 13], "trial": 5, "time_elapsed": 1213045, "type": "FREE_RECALL", "trial_index": 199}, "uniqueid": "MTK2962:3ZDAD0O1T2KDT3OEACCLPK9LGDOXTP", "dateTime": 1519602407540}, {"current_trial": 200, "trialdata": {"rt": 7345, "trial_type": "text", "internal_node_id": "0.0-146.0", "time_elapsed": 1222393, "key_press": 13, "type": "INSTRUCTIONS", "trial_index": 200}, "uniqueid": "MTK2962:3ZDAD0O1T2KDT3OEACCLPK9LGDOXTP", "dateTime": 1519602416886}, {"current_trial": 201, "trialdata": {"rt": [10369, 15845], "trial_type": "math-distractor", "key_times": [9706, 9869, 10369, 15609, 15845], "responses": ["17", "9"], "num2": [5, 1, 1], "num3": [9, 2, 5], "conditions": [24, 1600, "a", 24000], "internal_node_id": "0.0-147.0", "key_presses": [97, 103, 13, 105, 13], "trial": 6, "time_elapsed": 1248399, "type": "DISTRACTOR", "trial_index": 201, "num1": [3, 6, 4]}, "uniqueid": "MTK2962:3ZDAD0O1T2KDT3OEACCLPK9LGDOXTP", "dateTime": 1519602442891}, {"current_trial": 202, "trialdata": {"rt": -1, "trial_type": "single-stim", "stimulus": "<p id=\"stim\">10</p>", "internal_node_id": "0.0-148.0-0.0", "time_elapsed": 1251399, "key_press": -1, "trial_index": 202}, "uniqueid": "MTK2962:3ZDAD0O1T2KDT3OEACCLPK9LGDOXTP", "dateTime": 1519602445892}, {"current_trial": 203, "trialdata": {"rt": -1, "trial_type": "single-stim", "stimulus": "<p id=\"stim\">9</p>", "internal_node_id": "0.0-148.0-1.0", "time_elapsed": 1252402, "key_press": -1, "trial_index": 203}, "uniqueid": "MTK2962:3ZDAD0O1T2KDT3OEACCLPK9LGDOXTP", "dateTime": 1519602446894}, {"current_trial": 204, "trialdata": {"rt": -1, "trial_type": "single-stim", "stimulus": "<p id=\"stim\">8</p>", "internal_node_id": "0.0-148.0-2.0", "time_elapsed": 1253406, "key_press": -1, "trial_index": 204}, "uniqueid": "MTK2962:3ZDAD0O1T2KDT3OEACCLPK9LGDOXTP", "dateTime": 1519602447898}, {"current_trial": 205, "trialdata": {"rt": -1, "trial_type": "single-stim", "stimulus": "<p id=\"stim\">7</p>", "internal_node_id": "0.0-148.0-3.0", "time_elapsed": 1254408, "key_press": -1, "trial_index": 205}, "uniqueid": "MTK2962:3ZDAD0O1T2KDT3OEACCLPK9LGDOXTP", "dateTime": 1519602448900}, {"current_trial": 206, "trialdata": {"rt": -1, "trial_type": "single-stim", "stimulus": "<p id=\"stim\">6</p>", "internal_node_id": "0.0-148.0-4.0", "time_elapsed": 1255410, "key_press": -1, "trial_index": 206}, "uniqueid": "MTK2962:3ZDAD0O1T2KDT3OEACCLPK9LGDOXTP", "dateTime": 1519602449902}, {"current_trial": 207, "trialdata": {"rt": -1, "trial_type": "single-stim", "stimulus": "<p id=\"stim\">5</p>", "internal_node_id": "0.0-148.0-5.0", "time_elapsed": 1256416, "key_press": -1, "trial_index": 207}, "uniqueid": "MTK2962:3ZDAD0O1T2KDT3OEACCLPK9LGDOXTP", "dateTime": 1519602450908}, {"current_trial": 208, "trialdata": {"rt": -1, "trial_type": "single-stim", "stimulus": "<p id=\"stim\">4</p>", "internal_node_id": "0.0-148.0-6.0", "time_elapsed": 1257417, "key_press": -1, "trial_index": 208}, "uniqueid": "MTK2962:3ZDAD0O1T2KDT3OEACCLPK9LGDOXTP", "dateTime": 1519602451909}, {"current_trial": 209, "trialdata": {"rt": -1, "trial_type": "single-stim", "stimulus": "<p id=\"stim\">3</p>", "internal_node_id": "0.0-148.0-7.0", "time_elapsed": 1258420, "key_press": -1, "trial_index": 209}, "uniqueid": "MTK2962:3ZDAD0O1T2KDT3OEACCLPK9LGDOXTP", "dateTime": 1519602452928}, {"current_trial": 210, "trialdata": {"rt": -1, "trial_type": "single-stim", "stimulus": "<p id=\"stim\">2</p>", "internal_node_id": "0.0-148.0-8.0", "time_elapsed": 1259439, "key_press": -1, "trial_index": 210}, "uniqueid": "MTK2962:3ZDAD0O1T2KDT3OEACCLPK9LGDOXTP", "dateTime": 1519602453931}, {"current_trial": 211, "trialdata": {"rt": -1, "trial_type": "single-stim", "stimulus": "<p id=\"stim\">1</p>", "internal_node_id": "0.0-148.0-9.0", "time_elapsed": 1260441, "key_press": -1, "trial_index": 211}, "uniqueid": "MTK2962:3ZDAD0O1T2KDT3OEACCLPK9LGDOXTP", "dateTime": 1519602454933}, {"current_trial": 212, "trialdata": {"rt": -1, "trial_type": "single-stim", "stimulus": "<p id=\"stim\">+</p>", "internal_node_id": "0.0-149.0-0.0", "time_elapsed": 1261943, "key_press": -1, "type": "FIXATION", "trial_index": 212}, "uniqueid": "MTK2962:3ZDAD0O1T2KDT3OEACCLPK9LGDOXTP", "dateTime": 1519602456435}, {"current_trial": 213, "trialdata": {"rt": -1000, "trial_type": "single-audio", "word": "popcorn", "stimulus": "/static/audio/wordpool/POPCORN.wav", "conditions": [24, 1600, "a", 24000], "internal_node_id": "0.0-150.0", "trial": 6, "time_elapsed": 1264649, "serialpos": 0, "key_press": -1, "wordID": 1103, "type": "PRES_AUD", "trial_index": 213}, "uniqueid": "MTK2962:3ZDAD0O1T2KDT3OEACCLPK9LGDOXTP", "dateTime": 1519602459141}, {"current_trial": 214, "trialdata": {"rt": -1000, "trial_type": "single-audio", "word": "snack", "stimulus": "/static/audio/wordpool/SNACK.wav", "conditions": [24, 1600, "a", 24000], "internal_node_id": "0.0-151.0", "trial": 6, "time_elapsed": 1267146, "serialpos": 1, "key_press": -1, "wordID": 1330, "type": "PRES_AUD", "trial_index": 214}, "uniqueid": "MTK2962:3ZDAD0O1T2KDT3OEACCLPK9LGDOXTP", "dateTime": 1519602461639}, {"current_trial": 215, "trialdata": {"rt": -1000, "trial_type": "single-audio", "word": "spouse", "stimulus": "/static/audio/wordpool/SPOUSE.wav", "conditions": [24, 1600, "a", 24000], "internal_node_id": "0.0-152.0", "trial": 6, "time_elapsed": 1269819, "serialpos": 2, "key_press": -1, "wordID": 1357, "type": "PRES_AUD", "trial_index": 215}, "uniqueid": "MTK2962:3ZDAD0O1T2KDT3OEACCLPK9LGDOXTP", "dateTime": 1519602464311}, {"current_trial": 216, "trialdata": {"rt": -1000, "trial_type": "single-audio", "word": "pepper", "stimulus": "/static/audio/wordpool/PEPPER.wav", "conditions": [24, 1600, "a", 24000], "internal_node_id": "0.0-153.0", "trial": 6, "time_elapsed": 1272356, "serialpos": 3, "key_press": -1, "wordID": 1046, "type": "PRES_AUD", "trial_index": 216}, "uniqueid": "MTK2962:3ZDAD0O1T2KDT3OEACCLPK9LGDOXTP", "dateTime": 1519602466848}, {"current_trial": 217, "trialdata": {"rt": -1000, "trial_type": "single-audio", "word": "sausage", "stimulus": "/static/audio/wordpool/SAUSAGE.wav", "conditions": [24, 1600, "a", 24000], "internal_node_id": "0.0-154.0", "trial": 6, "time_elapsed": 1274917, "serialpos": 4, "key_press": -1, "wordID": 1237, "type": "PRES_AUD", "trial_index": 217}, "uniqueid": "MTK2962:3ZDAD0O1T2KDT3OEACCLPK9LGDOXTP", "dateTime": 1519602469409}, {"current_trial": 218, "trialdata": {"rt": -1000, "trial_type": "single-audio", "word": "blade", "stimulus": "/static/audio/wordpool/BLADE.wav", "conditions": [24, 1600, "a", 24000], "internal_node_id": "0.0-155.0", "trial": 6, "time_elapsed": 1277609, "serialpos": 5, "key_press": -1, "wordID": 133, "type": "PRES_AUD", "trial_index": 218}, "uniqueid": "MTK2962:3ZDAD0O1T2KDT3OEACCLPK9LGDOXTP", "dateTime": 1519602472102}, {"current_trial": 219, "trialdata": {"rt": -1000, "trial_type": "single-audio", "word": "pizza", "stimulus": "/static/audio/wordpool/PIZZA.wav", "conditions": [24, 1600, "a", 24000], "internal_node_id": "0.0-156.0", "trial": 6, "time_elapsed": 1280235, "serialpos": 6, "key_press": -1, "wordID": 1078, "type": "PRES_AUD", "trial_index": 219}, "uniqueid": "MTK2962:3ZDAD0O1T2KDT3OEACCLPK9LGDOXTP", "dateTime": 1519602474727}, {"current_trial": 220, "trialdata": {"rt": -1000, "trial_type": "single-audio", "word": "fragrance", "stimulus": "/static/audio/wordpool/FRAGRANCE.wav", "conditions": [24, 1600, "a", 24000], "internal_node_id": "0.0-157.0", "trial": 6, "time_elapsed": 1282792, "serialpos": 7, "key_press": -1, "wordID": 598, "type": "PRES_AUD", "trial_index": 220}, "uniqueid": "MTK2962:3ZDAD0O1T2KDT3OEACCLPK9LGDOXTP", "dateTime": 1519602477284}, {"current_trial": 221, "trialdata": {"rt": -1000, "trial_type": "single-audio", "word": "pimple", "stimulus": "/static/audio/wordpool/PIMPLE.wav", "conditions": [24, 1600, "a", 24000], "internal_node_id": "0.0-158.0", "trial": 6, "time_elapsed": 1285534, "serialpos": 8, "key_press": -1, "wordID": 1070, "type": "PRES_AUD", "trial_index": 221}, "uniqueid": "MTK2962:3ZDAD0O1T2KDT3OEACCLPK9LGDOXTP", "dateTime": 1519602480026}, {"current_trial": 222, "trialdata": {"rt": -1000, "trial_type": "single-audio", "word": "husband", "stimulus": "/static/audio/wordpool/HUSBAND.wav", "conditions": [24, 1600, "a", 24000], "internal_node_id": "0.0-159.0", "trial": 6, "time_elapsed": 1288004, "serialpos": 9, "key_press": -1, "wordID": 727, "type": "PRES_AUD", "trial_index": 222}, "uniqueid": "MTK2962:3ZDAD0O1T2KDT3OEACCLPK9LGDOXTP", "dateTime": 1519602482500}, {"current_trial": 223, "trialdata": {"rt": -1000, "trial_type": "single-audio", "word": "climber", "stimulus": "/static/audio/wordpool/CLIMBER.wav", "conditions": [24, 1600, "a", 24000], "internal_node_id": "0.0-160.0", "trial": 6, "time_elapsed": 1290590, "serialpos": 10, "key_press": -1, "wordID": 322, "type": "PRES_AUD", "trial_index": 223}, "uniqueid": "MTK2962:3ZDAD0O1T2KDT3OEACCLPK9LGDOXTP", "dateTime": 1519602485082}, {"current_trial": 224, "trialdata": {"rt": -1000, "trial_type": "single-audio", "word": "cobra", "stimulus": "/static/audio/wordpool/COBRA.wav", "conditions": [24, 1600, "a", 24000], "internal_node_id": "0.0-161.0", "trial": 6, "time_elapsed": 1293098, "serialpos": 11, "key_press": -1, "wordID": 335, "type": "PRES_AUD", "trial_index": 224}, "uniqueid": "MTK2962:3ZDAD0O1T2KDT3OEACCLPK9LGDOXTP", "dateTime": 1519602487591}, {"current_trial": 225, "trialdata": {"rt": -1000, "trial_type": "single-audio", "word": "tutu", "stimulus": "/static/audio/wordpool/TUTU.wav", "conditions": [24, 1600, "a", 24000], "internal_node_id": "0.0-162.0", "trial": 6, "time_elapsed": 1295867, "serialpos": 12, "key_press": -1, "wordID": 1523, "type": "PRES_AUD", "trial_index": 225}, "uniqueid": "MTK2962:3ZDAD0O1T2KDT3OEACCLPK9LGDOXTP", "dateTime": 1519602490359}, {"current_trial": 226, "trialdata": {"rt": -1000, "trial_type": "single-audio", "word": "costume", "stimulus": "/static/audio/wordpool/COSTUME.wav", "conditions": [24, 1600, "a", 24000], "internal_node_id": "0.0-163.0", "trial": 6, "time_elapsed": 1298607, "serialpos": 13, "key_press": -1, "wordID": 382, "type": "PRES_AUD", "trial_index": 226}, "uniqueid": "MTK2962:3ZDAD0O1T2KDT3OEACCLPK9LGDOXTP", "dateTime": 1519602493100}, {"current_trial": 227, "trialdata": {"rt": -1000, "trial_type": "single-audio", "word": "venus", "stimulus": "/static/audio/wordpool/VENUS.wav", "conditions": [24, 1600, "a", 24000], "internal_node_id": "0.0-164.0", "trial": 6, "time_elapsed": 1301363, "serialpos": 14, "key_press": -1, "wordID": 1556, "type": "PRES_AUD", "trial_index": 227}, "uniqueid": "MTK2962:3ZDAD0O1T2KDT3OEACCLPK9LGDOXTP", "dateTime": 1519602495855}, {"current_trial": 228, "trialdata": {"rt": -1000, "trial_type": "single-audio", "word": "dress", "stimulus": "/static/audio/wordpool/DRESS.wav", "conditions": [24, 1600, "a", 24000], "internal_node_id": "0.0-165.0", "trial": 6, "time_elapsed": 1303904, "serialpos": 15, "key_press": -1, "wordID": 494, "type": "PRES_AUD", "trial_index": 228}, "uniqueid": "MTK2962:3ZDAD0O1T2KDT3OEACCLPK9LGDOXTP", "dateTime": 1519602498396}, {"current_trial": 229, "trialdata": {"rt": -1000, "trial_type": "single-audio", "word": "body", "stimulus": "/static/audio/wordpool/BODY.wav", "conditions": [24, 1600, "a", 24000], "internal_node_id": "0.0-166.0", "trial": 6, "time_elapsed": 1306486, "serialpos": 16, "key_press": -1, "wordID": 144, "type": "PRES_AUD", "trial_index": 229}, "uniqueid": "MTK2962:3ZDAD0O1T2KDT3OEACCLPK9LGDOXTP", "dateTime": 1519602500978}, {"current_trial": 230, "trialdata": {"rt": -1000, "trial_type": "single-audio", "word": "shoulder", "stimulus": "/static/audio/wordpool/SHOULDER.wav", "conditions": [24, 1600, "a", 24000], "internal_node_id": "0.0-167.0", "trial": 6, "time_elapsed": 1309071, "serialpos": 17, "key_press": -1, "wordID": 1293, "type": "PRES_AUD", "trial_index": 230}, "uniqueid": "MTK2962:3ZDAD0O1T2KDT3OEACCLPK9LGDOXTP", "dateTime": 1519602503563}, {"current_trial": 231, "trialdata": {"rt": -1000, "trial_type": "single-audio", "word": "dresser", "stimulus": "/static/audio/wordpool/DRESSER.wav", "conditions": [24, 1600, "a", 24000], "internal_node_id": "0.0-168.0", "trial": 6, "time_elapsed": 1311721, "serialpos": 18, "key_press": -1, "wordID": 495, "type": "PRES_AUD", "trial_index": 231}, "uniqueid": "MTK2962:3ZDAD0O1T2KDT3OEACCLPK9LGDOXTP", "dateTime": 1519602506214}, {"current_trial": 232, "trialdata": {"rt": -1000, "trial_type": "single-audio", "word": "custard", "stimulus": "/static/audio/wordpool/CUSTARD.wav", "conditions": [24, 1600, "a", 24000], "internal_node_id": "0.0-169.0", "trial": 6, "time_elapsed": 1314435, "serialpos": 19, "key_press": -1, "wordID": 428, "type": "PRES_AUD", "trial_index": 232}, "uniqueid": "MTK2962:3ZDAD0O1T2KDT3OEACCLPK9LGDOXTP", "dateTime": 1519602508927}, {"current_trial": 233, "trialdata": {"rt": -1000, "trial_type": "single-audio", "word": "rebel", "stimulus": "/static/audio/wordpool/REBEL.wav", "conditions": [24, 1600, "a", 24000], "internal_node_id": "0.0-170.0", "trial": 6, "time_elapsed": 1317042, "serialpos": 20, "key_press": -1, "wordID": 1171, "type": "PRES_AUD", "trial_index": 233}, "uniqueid": "MTK2962:3ZDAD0O1T2KDT3OEACCLPK9LGDOXTP", "dateTime": 1519602511534}, {"current_trial": 234, "trialdata": {"rt": -1000, "trial_type": "single-audio", "word": "cupboard", "stimulus": "/static/audio/wordpool/CUPBOARD.wav", "conditions": [24, 1600, "a", 24000], "internal_node_id": "0.0-171.0", "trial": 6, "time_elapsed": 1319703, "serialpos": 21, "key_press": -1, "wordID": 424, "type": "PRES_AUD", "trial_index": 234}, "uniqueid": "MTK2962:3ZDAD0O1T2KDT3OEACCLPK9LGDOXTP", "dateTime": 1519602514195}, {"current_trial": 235, "trialdata": {"rt": -1000, "trial_type": "single-audio", "word": "chipmunk", "stimulus": "/static/audio/wordpool/CHIPMUNK.wav", "conditions": [24, 1600, "a", 24000], "internal_node_id": "0.0-172.0", "trial": 6, "time_elapsed": 1322232, "serialpos": 22, "key_press": -1, "wordID": 303, "type": "PRES_AUD", "trial_index": 235}, "uniqueid": "MTK2962:3ZDAD0O1T2KDT3OEACCLPK9LGDOXTP", "dateTime": 1519602516724}, {"current_trial": 236, "trialdata": {"rt": -1000, "trial_type": "single-audio", "word": "world", "stimulus": "/static/audio/wordpool/WORLD.wav", "conditions": [24, 1600, "a", 24000], "internal_node_id": "0.0-173.0", "trial": 6, "time_elapsed": 1324637, "serialpos": 23, "key_press": -1, "wordID": 1621, "type": "PRES_AUD", "trial_index": 236}, "uniqueid": "MTK2962:3ZDAD0O1T2KDT3OEACCLPK9LGDOXTP", "dateTime": 1519602519129}, {"current_trial": 237, "trialdata": {"rt": -1, "trial_type": "single-stim", "stimulus": "", "internal_node_id": "0.0-174.0-0.0", "time_elapsed": 1325925, "key_press": -1, "type": "PRE_RECALL_DELAY", "trial_index": 237}, "uniqueid": "MTK2962:3ZDAD0O1T2KDT3OEACCLPK9LGDOXTP", "dateTime": 1519602520419}, {"current_trial": 238, "trialdata": {"rt": -1000, "trial_type": "single-audio", "stimulus": "/static/audio/400Hz.wav", "internal_node_id": "0.0-175.0", "time_elapsed": 1326427, "key_press": -1, "type": "PRE_RECALL_ALERT", "trial_index": 238}, "uniqueid": "MTK2962:3ZDAD0O1T2KDT3OEACCLPK9LGDOXTP", "dateTime": 1519602520919}, {"current_trial": 239, "trialdata": {"rt": [7800, 11925, 14824, 17035, 27179, 31190, 33923, 40038, 44255, 46583, 50538, 52348, 56461], "recwords": ["popcorn", "snack", "spouse", "pepper", "sausage", "blade", "pizz", "fragrance", "pimple", "husband", "climber", "cobra", "tutu"], "key_times": [6039, 6187, 6350, 6766, 6958, 7166, 7462, 7800, 10975, 11125, 11217, 11521, 11632, 11925, 13501, 13656, 13923, 14186, 14504, 14632, 14824, 16021, 16403, 16570, 16698, 16792, 16857, 17035, 18925, 20219, 20472, 21644, 21836, 22037, 23424, 23598, 23752, 24768, 25847, 26006, 26071, 27179, 30368, 30611, 30717, 30949, 31082, 31190, 32620, 32817, 33197, 33321, 33923, 36514, 36776, 36919, 38273, 38485, 38568, 39164, 39318, 39446, 40038, 42444, 42644, 42933, 43207, 43308, 43506, 44255, 45320, 45518, 45699, 45953, 46072, 46170, 46335, 46583, 47743, 47946, 48106, 48312, 48703, 48903, 49328, 49756, 50180, 50316, 50375, 50538, 51299, 51506, 51859, 52009, 52117, 52348, 52994, 53386, 53544, 55250, 55494, 55604, 56461, 58584, 58836, 59454, 59754, 59938], "trial_type": "free-recall", "conditions": [24, 1600, "a", 24000], "internal_node_id": "0.0-176.0-0.0", "key_presses": [80, 79, 80, 67, 79, 82, 78, 13, 83, 78, 65, 67, 75, 13, 83, 80, 79, 85, 83, 69, 13, 80, 69, 80, 80, 69, 82, 13, 83, 65, 85, 65, 71, 69, 8, 8, 8, 83, 65, 71, 69, 13, 66, 76, 65, 68, 69, 13, 80, 73, 90, 90, 13, 70, 82, 65, 71, 82, 65, 78, 67, 69, 13, 80, 73, 77, 80, 76, 69, 13, 72, 85, 83, 66, 65, 78, 68, 13, 67, 76, 73, 78, 8, 77, 69, 8, 66, 69, 82, 13, 67, 79, 66, 82, 65, 13, 82, 8, 84, 85, 84, 85, 13, 67, 79, 83, 84, 85], "trial": 6, "time_elapsed": 1386431, "type": "FREE_RECALL", "trial_index": 239}, "uniqueid": "MTK2962:3ZDAD0O1T2KDT3OEACCLPK9LGDOXTP", "dateTime": 1519602580928}, {"current_trial": 240, "trialdata": {"rt": 603763, "trial_type": "text", "internal_node_id": "0.0-177.0", "time_elapsed": 1992202, "key_press": 13, "type": "INSTRUCTIONS", "trial_index": 240}, "uniqueid": "MTK2962:3ZDAD0O1T2KDT3OEACCLPK9LGDOXTP", "dateTime": 1519603186694}, {"current_trial": 241, "trialdata": {"rt": [7435, 11740, 17559, 23237], "trial_type": "math-distractor", "key_times": [4711, 5134, 7435, 10958, 11154, 11740, 16990, 17308, 17559, 22672, 22916, 23237], "responses": ["17", "14", "16", "13"], "num2": [4, 5, 8, 3, 2], "num3": [6, 5, 1, 6, 4], "conditions": [12, 800, "a", 24000], "internal_node_id": "0.0-178.0", "key_presses": [97, 103, 13, 97, 100, 13, 97