{"assignmentId": "33OOO72IVISPQ5DJJGGYB7OBEKQCT5", "workerId": "MTK2667", "questiondata": {"avail_screen_height": 1648, "color_depth": 24, "screen_width": 3072, "pixel_depth": 24, "avail_screen_width": 3072, "screen_height": 1728}, "bonus": 0, "hitId": "3OB6JN3A9QWNWSEO2E0FP4WL06ZRMI", "counterbalance": 548, "useragent": "Mozilla/5.0 (Windows NT 10.0; Win64; x64; rv:58.0) Gecko/20100101 Firefox/58.0", "eventdata": [{"eventtype": "initialized", "interval": 0, "value": null, "timestamp": 1519225252493}, {"eventtype": "window_resize", "interval": 0, "value": [3043, 1499], "timestamp": 1519225252493}, {"eventtype": "focus", "interval": 56741, "value": "off", "timestamp": 1519225309234}, {"eventtype": "focus", "interval": 48151, "value": "on", "timestamp": 1519225357385}, {"eventtype": "focus", "interval": 1390865, "value": "off", "timestamp": 1519226748250}, {"eventtype": "focus", "interval": 4697, "value": "on", "timestamp": 1519226752947}, {"eventtype": "focus", "interval": 114232, "value": "off", "timestamp": 1519226867179}, {"eventtype": "focus", "interval": 4741, "value": "on", "timestamp": 1519226871920}, {"eventtype": "focus", "interval": 8361, "value": "off", "timestamp": 1519226880281}, {"eventtype": "focus", "interval": 1963, "value": "on", "timestamp": 1519226882244}, {"eventtype": "focus", "interval": 647426, "value": "off", "timestamp": 1519227529670}, {"eventtype": "focus", "interval": 11609, "value": "on", "timestamp": 1519227541279}, {"eventtype": "focus", "interval": 33796, "value": "off", "timestamp": 1519227575075}, {"eventtype": "focus", "interval": 4993, "value": "on", "timestamp": 1519227580068}, {"eventtype": "focus", "interval": 353236, "value": "off", "timestamp": 1519227933304}, {"eventtype": "focus", "interval": 7490, "value": "on", "timestamp": 1519227940794}, {"eventtype": "focus", "interval": 54493, "value": "off", "timestamp": 1519227995287}, {"eventtype": "focus", "interval": 53307, "value": "on", "timestamp": 1519228048594}, {"eventtype": "focus", "interval": 92546, "value": "off", "timestamp": 1519228141140}, {"eventtype": "focus", "interval": 9801, "value": "on", "timestamp": 1519228150941}], "data": [{"current_trial": 0, "trialdata": {"rt": 3708, "trial_type": "text", "internal_node_id": "0.0-0.0", "time_elapsed": 3713, "key_press": 74, "type": "INSTRUCTIONS", "trial_index": 0}, "uniqueid": "MTK2667:33OOO72IVISPQ5DJJGGYB7OBEKQCT5", "dateTime": 1519225258292}, {"current_trial": 1, "trialdata": {"rt": 7855, "trial_type": "text", "internal_node_id": "0.0-1.0", "time_elapsed": 11573, "key_press": 183, "type": "INSTRUCTIONS", "trial_index": 1}, "uniqueid": "MTK2667:33OOO72IVISPQ5DJJGGYB7OBEKQCT5", "dateTime": 1519225266152}, {"current_trial": 2, "trialdata": {"rt": [20169], "trial_type": "audio-test", "responses": ["ocean"], "internal_node_id": "0.0-2.0", "time_elapsed": 31774, "type": "AUDIO_TEST", "trial_index": 2}, "uniqueid": "MTK2667:33OOO72IVISPQ5DJJGGYB7OBEKQCT5", "dateTime": 1519225286353}, {"current_trial": 3, "trialdata": {"rt": [11162], "trial_type": "audio-test", "responses": ["crystal"], "internal_node_id": "0.0-3.0", "time_elapsed": 42949, "type": "AUDIO_TEST", "trial_index": 3}, "uniqueid": "MTK2667:33OOO72IVISPQ5DJJGGYB7OBEKQCT5", "dateTime": 1519225297527}, {"current_trial": 4, "trialdata": {"rt": [8652], "trial_type": "audio-test", "responses": ["spice"], "internal_node_id": "0.0-4.0", "time_elapsed": 51614, "type": "AUDIO_TEST", "trial_index": 4}, "uniqueid": "MTK2667:33OOO72IVISPQ5DJJGGYB7OBEKQCT5", "dateTime": 1519225306192}, {"current_trial": 5, "trialdata": {"rt": 70727, "trial_type": "survey-text", "responses": "{\"Q0\":\"9\",\"Q1\":\"7\",\"Q2\":\"5\"}", "internal_node_id": "0.0-5.0", "time_elapsed": 123097, "type": "SLEEP_SURVEY", "trial_index": 5}, "uniqueid": "MTK2667:33OOO72IVISPQ5DJJGGYB7OBEKQCT5", "dateTime": 1519225377675}, {"current_trial": 6, "trialdata": {"rt": 37567, "trial_type": "text", "internal_node_id": "0.0-6.0", "time_elapsed": 161677, "key_press": 32, "type": "INSTRUCTIONS", "trial_index": 6}, "uniqueid": "MTK2667:33OOO72IVISPQ5DJJGGYB7OBEKQCT5", "dateTime": 1519225416256}, {"current_trial": 7, "trialdata": {"rt": 13077, "trial_type": "text", "internal_node_id": "0.0-7.0", "time_elapsed": 175259, "key_press": 32, "type": "INSTRUCTIONS", "trial_index": 7}, "uniqueid": "MTK2667:33OOO72IVISPQ5DJJGGYB7OBEKQCT5", "dateTime": 1519225429837}, {"current_trial": 8, "trialdata": {"rt": 6048, "trial_type": "text", "internal_node_id": "0.0-8.0", "time_elapsed": 181812, "key_press": 32, "type": "INSTRUCTIONS", "trial_index": 8}, "uniqueid": "MTK2667:33OOO72IVISPQ5DJJGGYB7OBEKQCT5", "dateTime": 1519225436391}, {"current_trial": 9, "trialdata": {"rt": [3937, 8330, 10721, 13471, 17536], "trial_type": "math-distractor", "key_times": [2912, 3937, 7177, 7460, 8330, 9847, 10029, 10721, 12683, 12855, 13471, 15200, 15838, 16520, 16859, 17536], "responses": ["9", "13", "12", "12", "17"], "num2": [3, 2, 4, 5, 1, 9], "num3": [5, 6, 2, 3, 7, 3], "conditions": [18, 1200, "v", 18000], "internal_node_id": "0.0-9.0", "key_presses": [57, 13, 49, 51, 13, 49, 50, 13, 49, 50, 13, 49, 56, 8, 55, 13], "trial": 0, "time_elapsed": 200823, "type": "DISTRACTOR", "trial_index": 9, "num1": [1, 5, 6, 4, 9, 9]}, "uniqueid": "MTK2667:33OOO72IVISPQ5DJJGGYB7OBEKQCT5", "dateTime": 1519225455402}, {"current_trial": 10, "trialdata": {"rt": -1, "trial_type": "single-stim", "stimulus": "<p id=\"stim\">10</p>", "internal_node_id": "0.0-10.0-0.0", "time_elapsed": 203828, "key_press": -1, "trial_index": 10}, "uniqueid": "MTK2667:33OOO72IVISPQ5DJJGGYB7OBEKQCT5", "dateTime": 1519225458407}, {"current_trial": 11, "trialdata": {"rt": -1, "trial_type": "single-stim", "stimulus": "<p id=\"stim\">9</p>", "internal_node_id": "0.0-10.0-1.0", "time_elapsed": 204833, "key_press": -1, "trial_index": 11}, "uniqueid": "MTK2667:33OOO72IVISPQ5DJJGGYB7OBEKQCT5", "dateTime": 1519225459411}, {"current_trial": 12, "trialdata": {"rt": -1, "trial_type": "single-stim", "stimulus": "<p id=\"stim\">8</p>", "internal_node_id": "0.0-10.0-2.0", "time_elapsed": 205836, "key_press": -1, "trial_index": 12}, "uniqueid": "MTK2667:33OOO72IVISPQ5DJJGGYB7OBEKQCT5", "dateTime": 1519225460415}, {"current_trial": 13, "trialdata": {"rt": -1, "trial_type": "single-stim", "stimulus": "<p id=\"stim\">7</p>", "internal_node_id": "0.0-10.0-3.0", "time_elapsed": 206840, "key_press": -1, "trial_index": 13}, "uniqueid": "MTK2667:33OOO72IVISPQ5DJJGGYB7OBEKQCT5", "dateTime": 1519225461418}, {"current_trial": 14, "trialdata": {"rt": -1, "trial_type": "single-stim", "stimulus": "<p id=\"stim\">6</p>", "internal_node_id": "0.0-10.0-4.0", "time_elapsed": 207842, "key_press": -1, "trial_index": 14}, "uniqueid": "MTK2667:33OOO72IVISPQ5DJJGGYB7OBEKQCT5", "dateTime": 1519225462420}, {"current_trial": 15, "trialdata": {"rt": -1, "trial_type": "single-stim", "stimulus": "<p id=\"stim\">5</p>", "internal_node_id": "0.0-10.0-5.0", "time_elapsed": 208845, "key_press": -1, "trial_index": 15}, "uniqueid": "MTK2667:33OOO72IVISPQ5DJJGGYB7OBEKQCT5", "dateTime": 1519225463423}, {"current_trial": 16, "trialdata": {"rt": -1, "trial_type": "single-stim", "stimulus": "<p id=\"stim\">4</p>", "internal_node_id": "0.0-10.0-6.0", "time_elapsed": 209846, "key_press": -1, "trial_index": 16}, "uniqueid": "MTK2667:33OOO72IVISPQ5DJJGGYB7OBEKQCT5", "dateTime": 1519225464424}, {"current_trial": 17, "trialdata": {"rt": -1, "trial_type": "single-stim", "stimulus": "<p id=\"stim\">3</p>", "internal_node_id": "0.0-10.0-7.0", "time_elapsed": 210848, "key_press": -1, "trial_index": 17}, "uniqueid": "MTK2667:33OOO72IVISPQ5DJJGGYB7OBEKQCT5", "dateTime": 1519225465427}, {"current_trial": 18, "trialdata": {"rt": -1, "trial_type": "single-stim", "stimulus": "<p id=\"stim\">2</p>", "internal_node_id": "0.0-10.0-8.0", "time_elapsed": 211850, "key_press": -1, "trial_index": 18}, "uniqueid": "MTK2667:33OOO72IVISPQ5DJJGGYB7OBEKQCT5", "dateTime": 1519225466428}, {"current_trial": 19, "trialdata": {"rt": -1, "trial_type": "single-stim", "stimulus": "<p id=\"stim\">1</p>", "internal_node_id": "0.0-10.0-9.0", "time_elapsed": 212852, "key_press": -1, "trial_index": 19}, "uniqueid": "MTK2667:33OOO72IVISPQ5DJJGGYB7OBEKQCT5", "dateTime": 1519225467432}, {"current_trial": 20, "trialdata": {"rt": -1, "trial_type": "single-stim", "stimulus": "<p id=\"stim\">+</p>", "internal_node_id": "0.0-11.0-0.0", "time_elapsed": 214358, "key_press": -1, "type": "FIXATION", "trial_index": 20}, "uniqueid": "MTK2667:33OOO72IVISPQ5DJJGGYB7OBEKQCT5", "dateTime": 1519225468936}, {"current_trial": 21, "trialdata": {"rt": -1, "trial_type": "single-stim", "word": "stone", "stimulus": "<p id=\"stim\">STONE</p>", "conditions": [18, 1200, "v", 18000], "internal_node_id": "0.0-12.0", "trial": 0, "time_elapsed": 215560, "serialpos": 0, "key_press": -1, "wordID": 1384, "type": "PRES_VIS", "trial_index": 21}, "uniqueid": "MTK2667:33OOO72IVISPQ5DJJGGYB7OBEKQCT5", "dateTime": 1519225470138}, {"current_trial": 22, "trialdata": {"rt": -1, "trial_type": "single-stim", "word": "treat", "stimulus": "<p id=\"stim\">TREAT</p>", "conditions": [18, 1200, "v", 18000], "internal_node_id": "0.0-13.0", "trial": 0, "time_elapsed": 217977, "serialpos": 1, "key_press": -1, "wordID": 1500, "type": "PRES_VIS", "trial_index": 22}, "uniqueid": "MTK2667:33OOO72IVISPQ5DJJGGYB7OBEKQCT5", "dateTime": 1519225472557}, {"current_trial": 23, "trialdata": {"rt": -1, "trial_type": "single-stim", "word": "ox", "stimulus": "<p id=\"stim\">OX</p>", "conditions": [18, 1200, "v", 18000], "internal_node_id": "0.0-14.0", "trial": 0, "time_elapsed": 220225, "serialpos": 2, "key_press": -1, "wordID": 993, "type": "PRES_VIS", "trial_index": 23}, "uniqueid": "MTK2667:33OOO72IVISPQ5DJJGGYB7OBEKQCT5", "dateTime": 1519225474805}, {"current_trial": 24, "trialdata": {"rt": -1, "trial_type": "single-stim", "word": "pilot", "stimulus": "<p id=\"stim\">PILOT</p>", "conditions": [18, 1200, "v", 18000], "internal_node_id": "0.0-15.0", "trial": 0, "time_elapsed": 222601, "serialpos": 3, "key_press": -1, "wordID": 1069, "type": "PRES_VIS", "trial_index": 24}, "uniqueid": "MTK2667:33OOO72IVISPQ5DJJGGYB7OBEKQCT5", "dateTime": 1519225477179}, {"current_trial": 25, "trialdata": {"rt": -1, "trial_type": "single-stim", "word": "headband", "stimulus": "<p id=\"stim\">HEADBAND</p>", "conditions": [18, 1200, "v", 18000], "internal_node_id": "0.0-16.0", "trial": 0, "time_elapsed": 224901, "serialpos": 4, "key_press": -1, "wordID": 695, "type": "PRES_VIS", "trial_index": 25}, "uniqueid": "MTK2667:33OOO72IVISPQ5DJJGGYB7OBEKQCT5", "dateTime": 1519225479480}, {"current_trial": 26, "trialdata": {"rt": -1, "trial_type": "single-stim", "word": "lamp", "stimulus": "<p id=\"stim\">LAMP</p>", "conditions": [18, 1200, "v", 18000], "internal_node_id": "0.0-17.0", "trial": 0, "time_elapsed": 227301, "serialpos": 5, "key_press": -1, "wordID": 797, "type": "PRES_VIS", "trial_index": 26}, "uniqueid": "MTK2667:33OOO72IVISPQ5DJJGGYB7OBEKQCT5", "dateTime": 1519225481879}, {"current_trial": 27, "trialdata": {"rt": -1, "trial_type": "single-stim", "word": "silk", "stimulus": "<p id=\"stim\">SILK</p>", "conditions": [18, 1200, "v", 18000], "internal_node_id": "0.0-18.0", "trial": 0, "time_elapsed": 229582, "serialpos": 6, "key_press": -1, "wordID": 1306, "type": "PRES_VIS", "trial_index": 27}, "uniqueid": "MTK2667:33OOO72IVISPQ5DJJGGYB7OBEKQCT5", "dateTime": 1519225484161}, {"current_trial": 28, "trialdata": {"rt": -1, "trial_type": "single-stim", "word": "mask", "stimulus": "<p id=\"stim\">MASK</p>", "conditions": [18, 1200, "v", 18000], "internal_node_id": "0.0-19.0", "trial": 0, "time_elapsed": 231817, "serialpos": 7, "key_press": -1, "wordID": 875, "type": "PRES_VIS", "trial_index": 28}, "uniqueid": "MTK2667:33OOO72IVISPQ5DJJGGYB7OBEKQCT5", "dateTime": 1519225486396}, {"current_trial": 29, "trialdata": {"rt": -1, "trial_type": "single-stim", "word": "pepper", "stimulus": "<p id=\"stim\">PEPPER</p>", "conditions": [18, 1200, "v", 18000], "internal_node_id": "0.0-20.0", "trial": 0, "time_elapsed": 234093, "serialpos": 8, "key_press": -1, "wordID": 1046, "type": "PRES_VIS", "trial_index": 29}, "uniqueid": "MTK2667:33OOO72IVISPQ5DJJGGYB7OBEKQCT5", "dateTime": 1519225488671}, {"current_trial": 30, "trialdata": {"rt": -1, "trial_type": "single-stim", "word": "plate", "stimulus": "<p id=\"stim\">PLATE</p>", "conditions": [18, 1200, "v", 18000], "internal_node_id": "0.0-21.0", "trial": 0, "time_elapsed": 236428, "serialpos": 9, "key_press": -1, "wordID": 1085, "type": "PRES_VIS", "trial_index": 30}, "uniqueid": "MTK2667:33OOO72IVISPQ5DJJGGYB7OBEKQCT5", "dateTime": 1519225491006}, {"current_trial": 31, "trialdata": {"rt": -1, "trial_type": "single-stim", "word": "thief", "stimulus": "<p id=\"stim\">THIEF</p>", "conditions": [18, 1200, "v", 18000], "internal_node_id": "0.0-22.0", "trial": 0, "time_elapsed": 238501, "serialpos": 10, "key_press": -1, "wordID": 1455, "type": "PRES_VIS", "trial_index": 31}, "uniqueid": "MTK2667:33OOO72IVISPQ5DJJGGYB7OBEKQCT5", "dateTime": 1519225493079}, {"current_trial": 32, "trialdata": {"rt": -1, "trial_type": "single-stim", "word": "poet", "stimulus": "<p id=\"stim\">POET</p>", "conditions": [18, 1200, "v", 18000], "internal_node_id": "0.0-23.0", "trial": 0, "time_elapsed": 240767, "serialpos": 11, "key_press": -1, "wordID": 1094, "type": "PRES_VIS", "trial_index": 32}, "uniqueid": "MTK2667:33OOO72IVISPQ5DJJGGYB7OBEKQCT5", "dateTime": 1519225495345}, {"current_trial": 33, "trialdata": {"rt": -1, "trial_type": "single-stim", "word": "turnip", "stimulus": "<p id=\"stim\">TURNIP</p>", "conditions": [18, 1200, "v", 18000], "internal_node_id": "0.0-24.0", "trial": 0, "time_elapsed": 243158, "serialpos": 12, "key_press": -1, "wordID": 1520, "type": "PRES_VIS", "trial_index": 33}, "uniqueid": "MTK2667:33OOO72IVISPQ5DJJGGYB7OBEKQCT5", "dateTime": 1519225497736}, {"current_trial": 34, "trialdata": {"rt": -1, "trial_type": "single-stim", "word": "playground", "stimulus": "<p id=\"stim\">PLAYGROUND</p>", "conditions": [18, 1200, "v", 18000], "internal_node_id": "0.0-25.0", "trial": 0, "time_elapsed": 245402, "serialpos": 13, "key_press": -1, "wordID": 1086, "type": "PRES_VIS", "trial_index": 34}, "uniqueid": "MTK2667:33OOO72IVISPQ5DJJGGYB7OBEKQCT5", "dateTime": 1519225499981}, {"current_trial": 35, "trialdata": {"rt": -1, "trial_type": "single-stim", "word": "dorm", "stimulus": "<p id=\"stim\">DORM</p>", "conditions": [18, 1200, "v", 18000], "internal_node_id": "0.0-26.0", "trial": 0, "time_elapsed": 247470, "serialpos": 14, "key_press": -1, "wordID": 487, "type": "PRES_VIS", "trial_index": 35}, "uniqueid": "MTK2667:33OOO72IVISPQ5DJJGGYB7OBEKQCT5", "dateTime": 1519225502048}, {"current_trial": 36, "trialdata": {"rt": -1, "trial_type": "single-stim", "word": "jungle", "stimulus": "<p id=\"stim\">JUNGLE</p>", "conditions": [18, 1200, "v", 18000], "internal_node_id": "0.0-27.0", "trial": 0, "time_elapsed": 249628, "serialpos": 15, "key_press": -1, "wordID": 763, "type": "PRES_VIS", "trial_index": 36}, "uniqueid": "MTK2667:33OOO72IVISPQ5DJJGGYB7OBEKQCT5", "dateTime": 1519225504206}, {"current_trial": 37, "trialdata": {"rt": -1, "trial_type": "single-stim", "word": "robin", "stimulus": "<p id=\"stim\">ROBIN</p>", "conditions": [18, 1200, "v", 18000], "internal_node_id": "0.0-28.0", "trial": 0, "time_elapsed": 251659, "serialpos": 16, "key_press": -1, "wordID": 1198, "type": "PRES_VIS", "trial_index": 37}, "uniqueid": "MTK2667:33OOO72IVISPQ5DJJGGYB7OBEKQCT5", "dateTime": 1519225506237}, {"current_trial": 38, "trialdata": {"rt": -1, "trial_type": "single-stim", "word": "zebra", "stimulus": "<p id=\"stim\">ZEBRA</p>", "conditions": [18, 1200, "v", 18000], "internal_node_id": "0.0-29.0", "trial": 0, "time_elapsed": 254018, "serialpos": 17, "key_press": -1, "wordID": 1634, "type": "PRES_VIS", "trial_index": 38}, "uniqueid": "MTK2667:33OOO72IVISPQ5DJJGGYB7OBEKQCT5", "dateTime": 1519225508596}, {"current_trial": 39, "trialdata": {"rt": -1, "trial_type": "single-stim", "stimulus": "", "internal_node_id": "0.0-30.0-0.0", "time_elapsed": 256297, "key_press": -1, "type": "PRE_RECALL_DELAY", "trial_index": 39}, "uniqueid": "MTK2667:33OOO72IVISPQ5DJJGGYB7OBEKQCT5", "dateTime": 1519225510875}, {"current_trial": 40, "trialdata": {"rt": -1000, "trial_type": "single-audio", "stimulus": "/static/audio/400Hz.wav", "internal_node_id": "0.0-31.0", "time_elapsed": 256801, "key_press": -1, "type": "PRE_RECALL_ALERT", "trial_index": 40}, "uniqueid": "MTK2667:33OOO72IVISPQ5DJJGGYB7OBEKQCT5", "dateTime": 1519225511379}, {"current_trial": 41, "trialdata": {"rt": [3835, 4970, 5570, 6549, 8093, 9879, 12069, 13406, 29634], "recwords": ["stone", "treat", "ox", "pilot", "headlamp", "pilot", "playground", "headlamp", "lamp"], "key_times": [3264, 3377, 3496, 3549, 3660, 3835, 4429, 4601, 4675, 4781, 4847, 4970, 5232, 5343, 5570, 5795, 5991, 6079, 6289, 6378, 6549, 6840, 6900, 7006, 7117, 7221, 7366, 7737, 7866, 8093, 8935, 9190, 9265, 9555, 9709, 9879, 10878, 11058, 11110, 11210, 11302, 11490, 11526, 11597, 11811, 11894, 12069, 12401, 12454, 12561, 12673, 12797, 12921, 13054, 13169, 13406, 27786, 27973, 28098, 28384, 28543, 28682, 28921, 29078, 29202, 29402, 29634], "trial_type": "free-recall", "conditions": [18, 1200, "v", 18000], "internal_node_id": "0.0-32.0-0.0", "key_presses": [83, 84, 79, 78, 69, 13, 84, 82, 69, 65, 84, 13, 79, 88, 13, 80, 73, 76, 79, 84, 13, 72, 69, 65, 68, 76, 65, 77, 80, 13, 80, 73, 76, 79, 84, 13, 80, 76, 65, 89, 71, 82, 79, 85, 78, 68, 13, 72, 69, 65, 68, 76, 65, 77, 80, 13, 75, 65, 77, 8, 8, 8, 76, 65, 77, 80, 13], "trial": 0, "time_elapsed": 316815, "type": "FREE_RECALL", "trial_index": 41}, "uniqueid": "MTK2667:33OOO72IVISPQ5DJJGGYB7OBEKQCT5", "dateTime": 1519225571404}, {"current_trial": 42, "trialdata": {"rt": 1145, "trial_type": "text", "internal_node_id": "0.0-33.0", "time_elapsed": 319994, "key_press": 32, "type": "INSTRUCTIONS", "trial_index": 42}, "uniqueid": "MTK2667:33OOO72IVISPQ5DJJGGYB7OBEKQCT5", "dateTime": 1519225574572}, {"current_trial": 43, "trialdata": {"rt": [2624, 4808, 6853, 8371, 11947, 14205, 16203, 17959], "trial_type": "math-distractor", "key_times": [2187, 2624, 4180, 4469, 4808, 6243, 6490, 6853, 8134, 8296, 8371, 11517, 11755, 11947, 13361, 13624, 14205, 15268, 15447, 15905, 16023, 16203, 17434, 17578, 17959], "responses": ["8", "14", "17", "17", "23", "15", "14", "14"], "num2": [2, 4, 7, 3, 9, 8, 2, 5, 4], "num3": [1, 8, 4, 8, 8, 3, 4, 5, 4], "conditions": [18, 1200, "v", 18000], "internal_node_id": "0.0-34.0", "key_presses": [56, 13, 49, 52, 13, 49, 55, 13, 49, 55, 13, 50, 51, 13, 49, 53, 13, 49, 53, 8, 52, 13, 49, 52, 13], "trial": 1, "time_elapsed": 340003, "type": "DISTRACTOR", "trial_index": 43, "num1": [5, 3, 6, 6, 6, 4, 8, 4, 1]}, "uniqueid": "MTK2667:33OOO72IVISPQ5DJJGGYB7OBEKQCT5", "dateTime": 1519225594581}, {"current_trial": 44, "trialdata": {"rt": -1, "trial_type": "single-stim", "stimulus": "<p id=\"stim\">10</p>", "internal_node_id": "0.0-35.0-0.0", "time_elapsed": 343007, "key_press": -1, "trial_index": 44}, "uniqueid": "MTK2667:33OOO72IVISPQ5DJJGGYB7OBEKQCT5", "dateTime": 1519225597585}, {"current_trial": 45, "trialdata": {"rt": -1, "trial_type": "single-stim", "stimulus": "<p id=\"stim\">9</p>", "internal_node_id": "0.0-35.0-1.0", "time_elapsed": 344008, "key_press": -1, "trial_index": 45}, "uniqueid": "MTK2667:33OOO72IVISPQ5DJJGGYB7OBEKQCT5", "dateTime": 1519225598587}, {"current_trial": 46, "trialdata": {"rt": -1, "trial_type": "single-stim", "stimulus": "<p id=\"stim\">8</p>", "internal_node_id": "0.0-35.0-2.0", "time_elapsed": 345011, "key_press": -1, "trial_index": 46}, "uniqueid": "MTK2667:33OOO72IVISPQ5DJJGGYB7OBEKQCT5", "dateTime": 1519225599590}, {"current_trial": 47, "trialdata": {"rt": -1, "trial_type": "single-stim", "stimulus": "<p id=\"stim\">7</p>", "internal_node_id": "0.0-35.0-3.0", "time_elapsed": 346014, "key_press": -1, "trial_index": 47}, "uniqueid": "MTK2667:33OOO72IVISPQ5DJJGGYB7OBEKQCT5", "dateTime": 1519225600593}, {"current_trial": 48, "trialdata": {"rt": -1, "trial_type": "single-stim", "stimulus": "<p id=\"stim\">6</p>", "internal_node_id": "0.0-35.0-4.0", "time_elapsed": 347017, "key_press": -1, "trial_index": 48}, "uniqueid": "MTK2667:33OOO72IVISPQ5DJJGGYB7OBEKQCT5", "dateTime": 1519225601595}, {"current_trial": 49, "trialdata": {"rt": -1, "trial_type": "single-stim", "stimulus": "<p id=\"stim\">5</p>", "internal_node_id": "0.0-35.0-5.0", "time_elapsed": 348020, "key_press": -1, "trial_index": 49}, "uniqueid": "MTK2667:33OOO72IVISPQ5DJJGGYB7OBEKQCT5", "dateTime": 1519225602598}, {"current_trial": 50, "trialdata": {"rt": -1, "trial_type": "single-stim", "stimulus": "<p id=\"stim\">4</p>", "internal_node_id": "0.0-35.0-6.0", "time_elapsed": 349022, "key_press": -1, "trial_index": 50}, "uniqueid": "MTK2667:33OOO72IVISPQ5DJJGGYB7OBEKQCT5", "dateTime": 1519225603601}, {"current_trial": 51, "trialdata": {"rt": -1, "trial_type": "single-stim", "stimulus": "<p id=\"stim\">3</p>", "internal_node_id": "0.0-35.0-7.0", "time_elapsed": 350025, "key_press": -1, "trial_index": 51}, "uniqueid": "MTK2667:33OOO72IVISPQ5DJJGGYB7OBEKQCT5", "dateTime": 1519225604604}, {"current_trial": 52, "trialdata": {"rt": -1, "trial_type": "single-stim", "stimulus": "<p id=\"stim\">2</p>", "internal_node_id": "0.0-35.0-8.0", "time_elapsed": 351029, "key_press": -1, "trial_index": 52}, "uniqueid": "MTK2667:33OOO72IVISPQ5DJJGGYB7OBEKQCT5", "dateTime": 1519225605608}, {"current_trial": 53, "trialdata": {"rt": -1, "trial_type": "single-stim", "stimulus": "<p id=\"stim\">1</p>", "internal_node_id": "0.0-35.0-9.0", "time_elapsed": 352032, "key_press": -1, "trial_index": 53}, "uniqueid": "MTK2667:33OOO72IVISPQ5DJJGGYB7OBEKQCT5", "dateTime": 1519225606611}, {"current_trial": 54, "trialdata": {"rt": -1, "trial_type": "single-stim", "stimulus": "<p id=\"stim\">+</p>", "internal_node_id": "0.0-36.0-0.0", "time_elapsed": 353535, "key_press": -1, "type": "FIXATION", "trial_index": 54}, "uniqueid": "MTK2667:33OOO72IVISPQ5DJJGGYB7OBEKQCT5", "dateTime": 1519225608113}, {"current_trial": 55, "trialdata": {"rt": -1, "trial_type": "single-stim", "word": "slime", "stimulus": "<p id=\"stim\">SLIME</p>", "conditions": [18, 1200, "v", 18000], "internal_node_id": "0.0-37.0", "trial": 1, "time_elapsed": 354736, "serialpos": 0, "key_press": -1, "wordID": 1326, "type": "PRES_VIS", "trial_index": 55}, "uniqueid": "MTK2667:33OOO72IVISPQ5DJJGGYB7OBEKQCT5", "dateTime": 1519225609315}, {"current_trial": 56, "trialdata": {"rt": -1, "trial_type": "single-stim", "word": "tart", "stimulus": "<p id=\"stim\">TART</p>", "conditions": [18, 1200, "v", 18000], "internal_node_id": "0.0-38.0", "trial": 1, "time_elapsed": 357097, "serialpos": 1, "key_press": -1, "wordID": 1435, "type": "PRES_VIS", "trial_index": 56}, "uniqueid": "MTK2667:33OOO72IVISPQ5DJJGGYB7OBEKQCT5", "dateTime": 1519225611675}, {"current_trial": 57, "trialdata": {"rt": -1, "trial_type": "single-stim", "word": "raft", "stimulus": "<p id=\"stim\">RAFT</p>", "conditions": [18, 1200, "v", 18000], "internal_node_id": "0.0-39.0", "trial": 1, "time_elapsed": 359485, "serialpos": 2, "key_press": -1, "wordID": 1158, "type": "PRES_VIS", "trial_index": 57}, "uniqueid": "MTK2667:33OOO72IVISPQ5DJJGGYB7OBEKQCT5", "dateTime": 1519225614064}, {"current_trial": 58, "trialdata": {"rt": -1, "trial_type": "single-stim", "word": "hound", "stimulus": "<p id=\"stim\">HOUND</p>", "conditions": [18, 1200, "v", 18000], "internal_node_id": "0.0-40.0", "trial": 1, "time_elapsed": 361640, "serialpos": 3, "key_press": -1, "wordID": 723, "type": "PRES_VIS", "trial_index": 58}, "uniqueid": "MTK2667:33OOO72IVISPQ5DJJGGYB7OBEKQCT5", "dateTime": 1519225616218}, {"current_trial": 59, "trialdata": {"rt": -1, "trial_type": "single-stim", "word": "sword", "stimulus": "<p id=\"stim\">SWORD</p>", "conditions": [18, 1200, "v", 18000], "internal_node_id": "0.0-41.0", "trial": 1, "time_elapsed": 363667, "serialpos": 4, "key_press": -1, "wordID": 1422, "type": "PRES_VIS", "trial_index": 59}, "uniqueid": "MTK2667:33OOO72IVISPQ5DJJGGYB7OBEKQCT5", "dateTime": 1519225618245}, {"current_trial": 60, "trialdata": {"rt": -1, "trial_type": "single-stim", "word": "monster", "stimulus": "<p id=\"stim\">MONSTER</p>", "conditions": [18, 1200, "v", 18000], "internal_node_id": "0.0-42.0", "trial": 1, "time_elapsed": 366039, "serialpos": 5, "key_press": -1, "wordID": 911, "type": "PRES_VIS", "trial_index": 60}, "uniqueid": "MTK2667:33OOO72IVISPQ5DJJGGYB7OBEKQCT5", "dateTime": 1519225620617}, {"current_trial": 61, "trialdata": {"rt": -1, "trial_type": "single-stim", "word": "milk", "stimulus": "<p id=\"stim\">MILK</p>", "conditions": [18, 1200, "v", 18000], "internal_node_id": "0.0-43.0", "trial": 1, "time_elapsed": 368051, "serialpos": 6, "key_press": -1, "wordID": 894, "type": "PRES_VIS", "trial_index": 61}, "uniqueid": "MTK2667:33OOO72IVISPQ5DJJGGYB7OBEKQCT5", "dateTime": 1519225622629}, {"current_trial": 62, "trialdata": {"rt": -1, "trial_type": "single-stim", "word": "canal", "stimulus": "<p id=\"stim\">CANAL</p>", "conditions": [18, 1200, "v", 18000], "internal_node_id": "0.0-44.0", "trial": 1, "time_elapsed": 370398, "serialpos": 7, "key_press": -1, "wordID": 225, "type": "PRES_VIS", "trial_index": 62}, "uniqueid": "MTK2667:33OOO72IVISPQ5DJJGGYB7OBEKQCT5", "dateTime": 1519225624976}, {"current_trial": 63, "trialdata": {"rt": -1, "trial_type": "single-stim", "word": "briefcase", "stimulus": "<p id=\"stim\">BRIEFCASE</p>", "conditions": [18, 1200, "v", 18000], "internal_node_id": "0.0-45.0", "trial": 1, "time_elapsed": 372716, "serialpos": 8, "key_press": -1, "wordID": 174, "type": "PRES_VIS", "trial_index": 63}, "uniqueid": "MTK2667:33OOO72IVISPQ5DJJGGYB7OBEKQCT5", "dateTime": 1519225627294}, {"current_trial": 64, "trialdata": {"rt": -1, "trial_type": "single-stim", "word": "patrol", "stimulus": "<p id=\"stim\">PATROL</p>", "conditions": [18, 1200, "v", 18000], "internal_node_id": "0.0-46.0", "trial": 1, "time_elapsed": 375056, "serialpos": 9, "key_press": -1, "wordID": 1026, "type": "PRES_VIS", "trial_index": 64}, "uniqueid": "MTK2667:33OOO72IVISPQ5DJJGGYB7OBEKQCT5", "dateTime": 1519225629634}, {"current_trial": 65, "trialdata": {"rt": -1, "trial_type": "single-stim", "word": "maple", "stimulus": "<p id=\"stim\">MAPLE</p>", "conditions": [18, 1200, "v", 18000], "internal_node_id": "0.0-47.0", "trial": 1, "time_elapsed": 377106, "serialpos": 10, "key_press": -1, "wordID": 865, "type": "PRES_VIS", "trial_index": 65}, "uniqueid": "MTK2667:33OOO72IVISPQ5DJJGGYB7OBEKQCT5", "dateTime": 1519225631684}, {"current_trial": 66, "trialdata": {"rt": -1, "trial_type": "single-stim", "word": "chauffeur", "stimulus": "<p id=\"stim\">CHAUFFEUR</p>", "conditions": [18, 1200, "v", 18000], "internal_node_id": "0.0-48.0", "trial": 1, "time_elapsed": 379192, "serialpos": 11, "key_press": -1, "wordID": 282, "type": "PRES_VIS", "trial_index": 66}, "uniqueid": "MTK2667:33OOO72IVISPQ5DJJGGYB7OBEKQCT5", "dateTime": 1519225633770}, {"current_trial": 67, "trialdata": {"rt": -1, "trial_type": "single-stim", "word": "bunny", "stimulus": "<p id=\"stim\">BUNNY</p>", "conditions": [18, 1200, "v", 18000], "internal_node_id": "0.0-49.0", "trial": 1, "time_elapsed": 381488, "serialpos": 12, "key_press": -1, "wordID": 197, "type": "PRES_VIS", "trial_index": 67}, "uniqueid": "MTK2667:33OOO72IVISPQ5DJJGGYB7OBEKQCT5", "dateTime": 1519225636068}, {"current_trial": 68, "trialdata": {"rt": -1, "trial_type": "single-stim", "word": "package", "stimulus": "<p id=\"stim\">PACKAGE</p>", "conditions": [18, 1200, "v", 18000], "internal_node_id": "0.0-50.0", "trial": 1, "time_elapsed": 383709, "serialpos": 13, "key_press": -1, "wordID": 996, "type": "PRES_VIS", "trial_index": 68}, "uniqueid": "MTK2667:33OOO72IVISPQ5DJJGGYB7OBEKQCT5", "dateTime": 1519225638289}, {"current_trial": 69, "trialdata": {"rt": -1, "trial_type": "single-stim", "word": "peanut", "stimulus": "<p id=\"stim\">PEANUT</p>", "conditions": [18, 1200, "v", 18000], "internal_node_id": "0.0-51.0", "trial": 1, "time_elapsed": 386110, "serialpos": 14, "key_press": -1, "wordID": 1031, "type": "PRES_VIS", "trial_index": 69}, "uniqueid": "MTK2667:33OOO72IVISPQ5DJJGGYB7OBEKQCT5", "dateTime": 1519225640688}, {"current_trial": 70, "trialdata": {"rt": -1, "trial_type": "single-stim", "word": "drill", "stimulus": "<p id=\"stim\">DRILL</p>", "conditions": [18, 1200, "v", 18000], "internal_node_id": "0.0-52.0", "trial": 1, "time_elapsed": 388147, "serialpos": 15, "key_press": -1, "wordID": 496, "type": "PRES_VIS", "trial_index": 70}, "uniqueid": "MTK2667:33OOO72IVISPQ5DJJGGYB7OBEKQCT5", "dateTime": 1519225642726}, {"current_trial": 71, "trialdata": {"rt": -1, "trial_type": "single-stim", "word": "husband", "stimulus": "<p id=\"stim\">HUSBAND</p>", "conditions": [18, 1200, "v", 18000], "internal_node_id": "0.0-53.0", "trial": 1, "time_elapsed": 390324, "serialpos": 16, "key_press": -1, "wordID": 727, "type": "PRES_VIS", "trial_index": 71}, "uniqueid": "MTK2667:33OOO72IVISPQ5DJJGGYB7OBEKQCT5", "dateTime": 1519225644903}, {"current_trial": 72, "trialdata": {"rt": -1, "trial_type": "single-stim", "word": "tribe", "stimulus": "<p id=\"stim\">TRIBE</p>", "conditions": [18, 1200, "v", 18000], "internal_node_id": "0.0-54.0", "trial": 1, "time_elapsed": 392493, "serialpos": 17, "key_press": -1, "wordID": 1504, "type": "PRES_VIS", "trial_index": 72}, "uniqueid": "MTK2667:33OOO72IVISPQ5DJJGGYB7OBEKQCT5", "dateTime": 1519225647072}, {"current_trial": 73, "trialdata": {"rt": -1, "trial_type": "single-stim", "stimulus": "", "internal_node_id": "0.0-55.0-0.0", "time_elapsed": 394957, "key_press": -1, "type": "PRE_RECALL_DELAY", "trial_index": 73}, "uniqueid": "MTK2667:33OOO72IVISPQ5DJJGGYB7OBEKQCT5", "dateTime": 1519225649535}, {"current_trial": 74, "trialdata": {"rt": -1000, "trial_type": "single-audio", "stimulus": "/static/audio/400Hz.wav", "internal_node_id": "0.0-56.0", "time_elapsed": 395461, "key_press": -1, "type": "PRE_RECALL_ALERT", "trial_index": 74}, "uniqueid": "MTK2667:33OOO72IVISPQ5DJJGGYB7OBEKQCT5", "dateTime": 1519225650040}, {"current_trial": 75, "trialdata": {"rt": [3366, 4298, 5550, 8448, 9445, 10389, 19600, 23155], "recwords": ["slime", "tart", "monster", "chaeffuer", "marble", "package", "handle", "briefcase"], "key_times": [2697, 2834, 2939, 3030, 3161, 3366, 3598, 3800, 3931, 4139, 4298, 4731, 4846, 4950, 5061, 5179, 5313, 5389, 5550, 6119, 6171, 6394, 6962, 7300, 7503, 7642, 7790, 7875, 8448, 8835, 8906, 8985, 9093, 9224, 9314, 9445, 9650, 9748, 9925, 9996, 10082, 10200, 10285, 10389, 18967, 19072, 19183, 19287, 19372, 19484, 19600, 21869, 22009, 22097, 22346, 22490, 22745, 22817, 22955, 23060, 23155], "trial_type": "free-recall", "conditions": [18, 1200, "v", 18000], "internal_node_id": "0.0-57.0-0.0", "key_presses": [83, 76, 73, 77, 69, 13, 84, 65, 82, 84, 13, 77, 79, 78, 83, 84, 69, 82, 13, 67, 72, 65, 69, 70, 70, 85, 69, 82, 13, 77, 65, 82, 66, 76, 69, 13, 80, 65, 67, 75, 65, 71, 69, 13, 72, 65, 78, 68, 76, 69, 13, 66, 82, 73, 69, 70, 67, 65, 83, 69, 13], "trial": 1, "time_elapsed": 455472, "type": "FREE_RECALL", "trial_index": 75}, "uniqueid": "MTK2667:33OOO72IVISPQ5DJJGGYB7OBEKQCT5", "dateTime": 1519225710060}, {"current_trial": 76, "trialdata": {"rt": 2252, "trial_type": "text", "internal_node_id": "0.0-58.0", "time_elapsed": 459736, "key_press": 32, "type": "INSTRUCTIONS", "trial_index": 76}, "uniqueid": "MTK2667:33OOO72IVISPQ5DJJGGYB7OBEKQCT5", "dateTime": 1519225714315}, {"current_trial": 77, "trialdata": {"rt": [5972, 8208, 10003, 11599, 13811, 16214, 17956, 20259, 22712], "trial_type": "math-distractor", "key_times": [5226, 5650, 5972, 7727, 7934, 8208, 9478, 9695, 10003, 11094, 11331, 11599, 13376, 13526, 13811, 15742, 15886, 16214, 17478, 17708, 17956, 19253, 19730, 19956, 20259, 21522, 22215, 22712, 23835, 23980], "responses": ["20", "23", "15", "15", "23", "12", "14", "9", "17"], "num2": [7, 9, 7, 3, 9, 5, 6, 1, 5, 3], "num3": [5, 6, 4, 3, 7, 6, 1, 3, 6, 9], "conditions": [24, 1600, "v", 24000], "internal_node_id": "0.0-59.0", "key_presses": [50, 48, 13, 50, 51, 13, 49, 53, 13, 49, 53, 13, 50, 51, 13, 49, 50, 13, 49, 52, 13, 56, 8, 57, 13, 49, 55, 13, 49, 51], "trial": 2, "time_elapsed": 484753, "type": "DISTRACTOR", "trial_index": 77, "num1": [8, 8, 4, 9, 7, 1, 7, 5, 6, 1]}, "uniqueid": "MTK2667:33OOO72IVISPQ5DJJGGYB7OBEKQCT5", "dateTime": 1519225739332}, {"current_trial": 78, "trialdata": {"rt": -1, "trial_type": "single-stim", "stimulus": "<p id=\"stim\">10</p>", "internal_node_id": "0.0-60.0-0.0", "time_elapsed": 487757, "key_press": -1, "trial_index": 78}, "uniqueid": "MTK2667:33OOO72IVISPQ5DJJGGYB7OBEKQCT5", "dateTime": 1519225742337}, {"current_trial": 79, "trialdata": {"rt": -1, "trial_type": "single-stim", "stimulus": "<p id=\"stim\">9</p>", "internal_node_id": "0.0-60.0-1.0", "time_elapsed": 488761, "key_press": -1, "trial_index": 79}, "uniqueid": "MTK2667:33OOO72IVISPQ5DJJGGYB7OBEKQCT5", "dateTime": 1519225743340}, {"current_trial": 80, "trialdata": {"rt": -1, "trial_type": "single-stim", "stimulus": "<p id=\"stim\">8</p>", "internal_node_id": "0.0-60.0-2.0", "time_elapsed": 489775, "key_press": -1, "trial_index": 80}, "uniqueid": "MTK2667:33OOO72IVISPQ5DJJGGYB7OBEKQCT5", "dateTime": 1519225744354}, {"current_trial": 81, "trialdata": {"rt": -1, "trial_type": "single-stim", "stimulus": "<p id=\"stim\">7</p>", "internal_node_id": "0.0-60.0-3.0", "time_elapsed": 490779, "key_press": -1, "trial_index": 81}, "uniqueid": "MTK2667:33OOO72IVISPQ5DJJGGYB7OBEKQCT5", "dateTime": 1519225745357}, {"current_trial": 82, "trialdata": {"rt": -1, "trial_type": "single-stim", "stimulus": "<p id=\"stim\">6</p>", "internal_node_id": "0.0-60.0-4.0", "time_elapsed": 491781, "key_press": -1, "trial_index": 82}, "uniqueid": "MTK2667:33OOO72IVISPQ5DJJGGYB7OBEKQCT5", "dateTime": 1519225746359}, {"current_trial": 83, "trialdata": {"rt": -1, "trial_type": "single-stim", "stimulus": "<p id=\"stim\">5</p>", "internal_node_id": "0.0-60.0-5.0", "time_elapsed": 492783, "key_press": -1, "trial_index": 83}, "uniqueid": "MTK2667:33OOO72IVISPQ5DJJGGYB7OBEKQCT5", "dateTime": 1519225747362}, {"current_trial": 84, "trialdata": {"rt": -1, "trial_type": "single-stim", "stimulus": "<p id=\"stim\">4</p>", "internal_node_id": "0.0-60.0-6.0", "time_elapsed": 493787, "key_press": -1, "trial_index": 84}, "uniqueid": "MTK2667:33OOO72IVISPQ5DJJGGYB7OBEKQCT5", "dateTime": 1519225748365}, {"current_trial": 85, "trialdata": {"rt": -1, "trial_type": "single-stim", "stimulus": "<p id=\"stim\">3</p>", "internal_node_id": "0.0-60.0-7.0", "time_elapsed": 494790, "key_press": -1, "trial_index": 85}, "uniqueid": "MTK2667:33OOO72IVISPQ5DJJGGYB7OBEKQCT5", "dateTime": 1519225749369}, {"current_trial": 86, "trialdata": {"rt": -1, "trial_type": "single-stim", "stimulus": "<p id=\"stim\">2</p>", "internal_node_id": "0.0-60.0-8.0", "time_elapsed": 495793, "key_press": -1, "trial_index": 86}, "uniqueid": "MTK2667:33OOO72IVISPQ5DJJGGYB7OBEKQCT5", "dateTime": 1519225750371}, {"current_trial": 87, "trialdata": {"rt": -1, "trial_type": "single-stim", "stimulus": "<p id=\"stim\">1</p>", "internal_node_id": "0.0-60.0-9.0", "time_elapsed": 496795, "key_press": -1, "trial_index": 87}, "uniqueid": "MTK2667:33OOO72IVISPQ5DJJGGYB7OBEKQCT5", "dateTime": 1519225751373}, {"current_trial": 88, "trialdata": {"rt": -1, "trial_type": "single-stim", "stimulus": "<p id=\"stim\">+</p>", "internal_node_id": "0.0-61.0-0.0", "time_elapsed": 498299, "key_press": -1, "type": "FIXATION", "trial_index": 88}, "uniqueid": "MTK2667:33OOO72IVISPQ5DJJGGYB7OBEKQCT5", "dateTime": 1519225752877}, {"current_trial": 89, "trialdata": {"rt": -1, "trial_type": "single-stim", "word": "statue", "stimulus": "<p id=\"stim\">STATUE</p>", "conditions": [24, 1600, "v", 24000], "internal_node_id": "0.0-62.0", "trial": 2, "time_elapsed": 499905, "serialpos": 0, "key_press": -1, "wordID": 1373, "type": "PRES_VIS", "trial_index": 89}, "uniqueid": "MTK2667:33OOO72IVISPQ5DJJGGYB7OBEKQCT5", "dateTime": 1519225754484}, {"current_trial": 90, "trialdata": {"rt": -1, "trial_type": "single-stim", "word": "robot", "stimulus": "<p id=\"stim\">ROBOT</p>", "conditions": [24, 1600, "v", 24000], "internal_node_id": "0.0-63.0", "trial": 2, "time_elapsed": 502414, "serialpos": 1, "key_press": -1, "wordID": 1199, "type": "PRES_VIS", "trial_index": 90}, "uniqueid": "MTK2667:33OOO72IVISPQ5DJJGGYB7OBEKQCT5", "dateTime": 1519225756993}, {"current_trial": 91, "trialdata": {"rt": -1, "trial_type": "single-stim", "word": "fleet", "stimulus": "<p id=\"stim\">FLEET</p>", "conditions": [24, 1600, "v", 24000], "internal_node_id": "0.0-64.0", "trial": 2, "time_elapsed": 505078, "serialpos": 2, "key_press": -1, "wordID": 577, "type": "PRES_VIS", "trial_index": 91}, "uniqueid": "MTK2667:33OOO72IVISPQ5DJJGGYB7OBEKQCT5", "dateTime": 1519225759656}, {"current_trial": 92, "trialdata": {"rt": -1, "trial_type": "single-stim", "word": "sphinx", "stimulus": "<p id=\"stim\">SPHINX</p>", "conditions": [24, 1600, "v", 24000], "internal_node_id": "0.0-65.0", "trial": 2, "time_elapsed": 507597, "serialpos": 3, "key_press": -1, "wordID": 1348, "type": "PRES_VIS", "trial_index": 92}, "uniqueid": "MTK2667:33OOO72IVISPQ5DJJGGYB7OBEKQCT5", "dateTime": 1519225762176}, {"current_trial": 93, "trialdata": {"rt": -1, "trial_type": "single-stim", "word": "perch", "stimulus": "<p id=\"stim\">PERCH</p>", "conditions": [24, 1600, "v", 24000], "internal_node_id": "0.0-66.0", "trial": 2, "time_elapsed": 510313, "serialpos": 4, "key_press": -1, "wordID": 1047, "type": "PRES_VIS", "trial_index": 93}, "uniqueid": "MTK2667:33OOO72IVISPQ5DJJGGYB7OBEKQCT5", "dateTime": 1519225764891}, {"current_trial": 94, "trialdata": {"rt": -1, "trial_type": "single-stim", "word": "stove", "stimulus": "<p id=\"stim\">STOVE</p>", "conditions": [24, 1600, "v", 24000], "internal_node_id": "0.0-67.0", "trial": 2, "time_elapsed": 513094, "serialpos": 5, "key_press": -1, "wordID": 1387, "type": "PRES_VIS", "trial_index": 94}, "uniqueid": "MTK2667:33OOO72IVISPQ5DJJGGYB7OBEKQCT5", "dateTime": 1519225767672}, {"current_trial": 95, "trialdata": {"rt": -1, "trial_type": "single-stim", "word": "toaster", "stimulus": "<p id=\"stim\">TOASTER</p>", "conditions": [24, 1600, "v", 24000], "internal_node_id": "0.0-68.0", "trial": 2, "time_elapsed": 515838, "serialpos": 6, "key_press": -1, "wordID": 1471, "type": "PRES_VIS", "trial_index": 95}, "uniqueid": "MTK2667:33OOO72IVISPQ5DJJGGYB7OBEKQCT5", "dateTime": 1519225770417}, {"current_trial": 96, "trialdata": {"rt": -1, "trial_type": "single-stim", "word": "proton", "stimulus": "<p id=\"stim\">PROTON</p>", "conditions": [24, 1600, "v", 24000], "internal_node_id": "0.0-69.0", "trial": 2, "time_elapsed": 518273, "serialpos": 7, "key_press": -1, "wordID": 1131, "type": "PRES_VIS", "trial_index": 96}, "uniqueid": "MTK2667:33OOO72IVISPQ5DJJGGYB7OBEKQCT5", "dateTime": 1519225772853}, {"current_trial": 97, "trialdata": {"rt": -1, "trial_type": "single-stim", "word": "turtle", "stimulus": "<p id=\"stim\">TURTLE</p>", "conditions": [24, 1600, "v", 24000], "internal_node_id": "0.0-70.0", "trial": 2, "time_elapsed": 520761, "serialpos": 8, "key_press": -1, "wordID": 1521, "type": "PRES_VIS", "trial_index": 97}, "uniqueid": "MTK2667:33OOO72IVISPQ5DJJGGYB7OBEKQCT5", "dateTime": 1519225775340}, {"current_trial": 98, "trialdata": {"rt": -1, "trial_type": "single-stim", "word": "mattress", "stimulus": "<p id=\"stim\">MATTRESS</p>", "conditions": [24, 1600, "v", 24000], "internal_node_id": "0.0-71.0", "trial": 2, "time_elapsed": 523225, "serialpos": 9, "key_press": -1, "wordID": 878, "type": "PRES_VIS", "trial_index": 98}, "uniqueid": "MTK2667:33OOO72IVISPQ5DJJGGYB7OBEKQCT5", "dateTime": 1519225777803}, {"current_trial": 99, "trialdata": {"rt": -1, "trial_type": "single-stim", "word": "tombstone", "stimulus": "<p id=\"stim\">TOMBSTONE</p>", "conditions": [24, 1600, "v", 24000], "internal_node_id": "0.0-72.0", "trial": 2, "time_elapsed": 526032, "serialpos": 10, "key_press": -1, "wordID": 1477, "type": "PRES_VIS", "trial_index": 99}, "uniqueid": "MTK2667:33OOO72IVISPQ5DJJGGYB7OBEKQCT5", "dateTime": 1519225780611}, {"current_trial": 100, "trialdata": {"rt": -1, "trial_type": "single-stim", "word": "valve", "stimulus": "<p id=\"stim\">VALVE</p>", "conditions": [24, 1600, "v", 24000], "internal_node_id": "0.0-73.0", "trial": 2, "time_elapsed": 528641, "serialpos": 11, "key_press": -1, "wordID": 1545, "type": "PRES_VIS", "trial_index": 100}, "uniqueid": "MTK2667:33OOO72IVISPQ5DJJGGYB7OBEKQCT5", "dateTime": 1519225783220}, {"current_trial": 101, "trialdata": {"rt": -1, "trial_type": "single-stim", "word": "omelet", "stimulus": "<p id=\"stim\">OMELET</p>", "conditions": [24, 1600, "v", 24000], "internal_node_id": "0.0-74.0", "trial": 2, "time_elapsed": 531167, "serialpos": 12, "key_press": -1, "wordID": 975, "type": "PRES_VIS", "trial_index": 101}, "uniqueid": "MTK2667:33OOO72IVISPQ5DJJGGYB7OBEKQCT5", "dateTime": 1519225785745}, {"current_trial": 102, "trialdata": {"rt": -1, "trial_type": "single-stim", "word": "custard", "stimulus": "<p id=\"stim\">CUSTARD</p>", "conditions": [24, 1600, "v", 24000], "internal_node_id": "0.0-75.0", "trial": 2, "time_elapsed": 533710, "serialpos": 13, "key_press": -1, "wordID": 428, "type": "PRES_VIS", "trial_index": 102}, "uniqueid": "MTK2667:33OOO72IVISPQ5DJJGGYB7OBEKQCT5", "dateTime": 1519225788289}, {"current_trial": 103, "trialdata": {"rt": -1, "trial_type": "single-stim", "word": "clamp", "stimulus": "<p id=\"stim\">CLAMP</p>", "conditions": [24, 1600, "v", 24000], "internal_node_id": "0.0-76.0", "trial": 2, "time_elapsed": 536181, "serialpos": 14, "key_press": -1, "wordID": 315, "type": "PRES_VIS", "trial_index": 103}, "uniqueid": "MTK2667:33OOO72IVISPQ5DJJGGYB7OBEKQCT5", "dateTime": 1519225790760}, {"current_trial": 104, "trialdata": {"rt": -1, "trial_type": "single-stim", "word": "fruit", "stimulus": "<p id=\"stim\">FRUIT</p>", "conditions": [24, 1600, "v", 24000], "internal_node_id": "0.0-77.0", "trial": 2, "time_elapsed": 538879, "serialpos": 15, "key_press": -1, "wordID": 609, "type": "PRES_VIS", "trial_index": 104}, "uniqueid": "MTK2667:33OOO72IVISPQ5DJJGGYB7OBEKQCT5", "dateTime": 1519225793457}, {"current_trial": 105, "trialdata": {"rt": -1, "trial_type": "single-stim", "word": "orchid", "stimulus": "<p id=\"stim\">ORCHID</p>", "conditions": [24, 1600, "v", 24000], "internal_node_id": "0.0-78.0", "trial": 2, "time_elapsed": 541546, "serialpos": 16, "key_press": -1, "wordID": 981, "type": "PRES_VIS", "trial_index": 105}, "uniqueid": "MTK2667:33OOO72IVISPQ5DJJGGYB7OBEKQCT5", "dateTime": 1519225796125}, {"current_trial": 106, "trialdata": {"rt": -1, "trial_type": "single-stim", "word": "hawk", "stimulus": "<p id=\"stim\">HAWK</p>", "conditions": [24, 1600, "v", 24000], "internal_node_id": "0.0-79.0", "trial": 2, "time_elapsed": 544051, "serialpos": 17, "key_press": -1, "wordID": 691, "type": "PRES_VIS", "trial_index": 106}, "uniqueid": "MTK2667:33OOO72IVISPQ5DJJGGYB7OBEKQCT5", "dateTime": 1519225798629}, {"current_trial": 107, "trialdata": {"rt": -1, "trial_type": "single-stim", "word": "jury", "stimulus": "<p id=\"stim\">JURY</p>", "conditions": [24, 1600, "v", 24000], "internal_node_id": "0.0-80.0", "trial": 2, "time_elapsed": 546507, "serialpos": 18, "key_press": -1, "wordID": 765, "type": "PRES_VIS", "trial_index": 107}, "uniqueid": "MTK2667:33OOO72IVISPQ5DJJGGYB7OBEKQCT5", "dateTime": 1519225801085}, {"current_trial": 108, "trialdata": {"rt": -1, "trial_type": "single-stim", "word": "convict", "stimulus": "<p id=\"stim\">CONVICT</p>", "conditions": [24, 1600, "v", 24000], "internal_node_id": "0.0-81.0", "trial": 2, "time_elapsed": 549052, "serialpos": 19, "key_press": -1, "wordID": 370, "type": "PRES_VIS", "trial_index": 108}, "uniqueid": "MTK2667:33OOO72IVISPQ5DJJGGYB7OBEKQCT5", "dateTime": 1519225803630}, {"current_trial": 109, "trialdata": {"rt": -1, "trial_type": "single-stim", "word": "trombone", "stimulus": "<p id=\"stim\">TROMBONE</p>", "conditions": [24, 1600, "v", 24000], "internal_node_id": "0.0-82.0", "trial": 2, "time_elapsed": 551600, "serialpos": 20, "key_press": -1, "wordID": 1507, "type": "PRES_VIS", "trial_index": 109}, "uniqueid": "MTK2667:33OOO72IVISPQ5DJJGGYB7OBEKQCT5", "dateTime": 1519225806180}, {"current_trial": 110, "trialdata": {"rt": -1, "trial_type": "single-stim", "word": "flower", "stimulus": "<p id=\"stim\">FLOWER</p>", "conditions": [24, 1600, "v", 24000], "internal_node_id": "0.0-83.0", "trial": 2, "time_elapsed": 554298, "serialpos": 21, "key_press": -1, "wordID": 583, "type": "PRES_VIS", "trial_index": 110}, "uniqueid": "MTK2667:33OOO72IVISPQ5DJJGGYB7OBEKQCT5", "dateTime": 1519225808877}, {"current_trial": 111, "trialdata": {"rt": -1, "trial_type": "single-stim", "word": "leopard", "stimulus": "<p id=\"stim\">LEOPARD</p>", "conditions": [24, 1600, "v", 24000], "internal_node_id": "0.0-84.0", "trial": 2, "time_elapsed": 557070, "serialpos": 22, "key_press": -1, "wordID": 811, "type": "PRES_VIS", "trial_index": 111}, "uniqueid": "MTK2667:33OOO72IVISPQ5DJJGGYB7OBEKQCT5", "dateTime": 1519225811649}, {"current_trial": 112, "trialdata": {"rt": -1, "trial_type": "single-stim", "word": "puddle", "stimulus": "<p id=\"stim\">PUDDLE</p>", "conditions": [24, 1600, "v", 24000], "internal_node_id": "0.0-85.0", "trial": 2, "time_elapsed": 559525, "serialpos": 23, "key_press": -1, "wordID": 1139, "type": "PRES_VIS", "trial_index": 112}, "uniqueid": "MTK2667:33OOO72IVISPQ5DJJGGYB7OBEKQCT5", "dateTime": 1519225814104}, {"current_trial": 113, "trialdata": {"rt": -1, "trial_type": "single-stim", "stimulus": "", "internal_node_id": "0.0-86.0-0.0", "time_elapsed": 561722, "key_press": -1, "type": "PRE_RECALL_DELAY", "trial_index": 113}, "uniqueid": "MTK2667:33OOO72IVISPQ5DJJGGYB7OBEKQCT5", "dateTime": 1519225816301}, {"current_trial": 114, "trialdata": {"rt": -1000, "trial_type": "single-audio", "stimulus": "/static/audio/400Hz.wav", "internal_node_id": "0.0-87.0", "time_elapsed": 562225, "key_press": -1, "type": "PRE_RECALL_ALERT", "trial_index": 114}, "uniqueid": "MTK2667:33OOO72IVISPQ5DJJGGYB7OBEKQCT5", "dateTime": 1519225816803}, {"current_trial": 115, "trialdata": {"rt": [1791, 3323, 4599, 5820, 6794, 10735, 12289, 13283, 17278], "recwords": ["statue", "sphinx", "orchid", "omelet", "hawk", "tombstone", "trombone", "convict", "robot"], "key_times": [829, 1010, 1110, 1220, 1300, 1433, 1791, 2062, 2124, 2309, 2760, 2992, 3153, 3323, 3786, 3881, 4069, 4099, 4144, 4375, 4599, 4861, 4998, 5149, 5312, 5431, 5632, 5820, 6069, 6133, 6272, 6437, 6794, 7115, 7189, 7283, 7409, 7522, 7647, 7740, 8340, 8733, 8902, 9063, 9224, 9502, 9590, 9761, 9919, 10078, 10246, 10261, 10359, 10560, 10735, 11310, 11496, 11546, 11633, 11861, 11968, 12056, 12127, 12289, 12457, 12556, 12634, 12766, 12877, 12982, 13178, 13283, 16581, 16673, 16816, 16959, 17096, 17278], "trial_type": "free-recall", "conditions": [24, 1600, "v", 24000], "internal_node_id": "0.0-88.0-0.0", "key_presses": [83, 84, 65, 84, 85, 69, 13, 83, 80, 72, 73, 78, 88, 13, 79, 82, 67, 72, 73, 68, 13, 79, 77, 69, 76, 69, 84, 13, 72, 65, 87, 75, 13, 84, 79, 77, 83, 84, 79, 78, 69, 8, 8, 8, 8, 66, 8, 8, 66, 83, 84, 79, 78, 69, 13, 84, 82, 79, 77, 66, 79, 78, 69, 13, 67, 79, 78, 86, 73, 67, 84, 13, 82, 79, 66, 79, 84, 13], "trial": 2, "time_elapsed": 622229, "type": "FREE_RECALL", "trial_index": 115}, "uniqueid": "MTK2667:33OOO72IVISPQ5DJJGGYB7OBEKQCT5", "dateTime": 1519225876813}, {"current_trial": 116, "trialdata": {"rt": 9215, "trial_type": "text", "internal_node_id": "0.0-89.0", "time_elapsed": 633453, "key_press": 32, "type": "INSTRUCTIONS", "trial_index": 116}, "uniqueid": "MTK2667:33OOO72IVISPQ5DJJGGYB7OBEKQCT5", "dateTime": 1519225888032}, {"current_trial": 117, "trialdata": {"rt": [11468, 21253, 23045], "trial_type": "math-distractor", "key_times": [10450, 10788, 11468, 20911, 21253, 22702, 22828, 23045], "responses": ["13", "9", "21"], "num2": [2, 1, 7, 6], "num3": [9, 5, 7, 7], "conditions": [12, 800, "v", 24000], "internal_node_id": "0.0-90.0", "key_presses": [49, 51, 13, 57, 13, 50, 49, 13], "trial": 3, "time_elapsed": 659465, "type": "DISTRACTOR", "trial_index": 117, "num1": [2, 3, 7, 8]}, "uniqueid": "MTK2667:33OOO72IVISPQ5DJJGGYB7OBEKQCT5", "dateTime": 1519225914044}, {"current_trial": 118, "trialdata": {"rt": -1, "trial_type": "single-stim", "stimulus": "<p id=\"stim\">10</p>", "internal_node_id": "0.0-91.0-0.0", "time_elapsed": 662473, "key_press": -1, "trial_index": 118}, "uniqueid": "MTK2667:33OOO72IVISPQ5DJJGGYB7OBEKQCT5", "dateTime": 1519225917052}, {"current_trial": 119, "trialdata": {"rt": -1, "trial_type": "single-stim", "stimulus": "<p id=\"stim\">9</p>", "internal_node_id": "0.0-91.0-1.0", "time_elapsed": 663479, "key_press": -1, "trial_index": 119}, "uniqueid": "MTK2667:33OOO72IVISPQ5DJJGGYB7OBEKQCT5", "dateTime": 1519225918058}, {"current_trial": 120, "trialdata": {"rt": -1, "trial_type": "single-stim", "stimulus": "<p id=\"stim\">8</p>", "internal_node_id": "0.0-91.0-2.0", "time_elapsed": 664484, "key_press": -1, "trial_index": 120}, "uniqueid": "MTK2667:33OOO72IVISPQ5DJJGGYB7OBEKQCT5", "dateTime": 1519225919063}, {"current_trial": 121, "trialdata": {"rt": -1, "trial_type": "single-stim", "stimulus": "<p id=\"stim\">7</p>", "internal_node_id": "0.0-91.0-3.0", "time_elapsed": 665489, "key_press": -1, "trial_index": 121}, "uniqueid": "MTK2667:33OOO72IVISPQ5DJJGGYB7OBEKQCT5", "dateTime": 1519225920069}, {"current_trial": 122, "trialdata": {"rt": -1, "trial_type": "single-stim", "stimulus": "<p id=\"stim\">6</p>", "internal_node_id": "0.0-91.0-4.0", "time_elapsed": 666493, "key_press": -1, "trial_index": 122}, "uniqueid": "MTK2667:33OOO72IVISPQ5DJJGGYB7OBEKQCT5", "dateTime": 1519225921072}, {"current_trial": 123, "trialdata": {"rt": -1, "trial_type": "single-stim", "stimulus": "<p id=\"stim\">5</p>", "internal_node_id": "0.0-91.0-5.0", "time_elapsed": 667497, "key_press": -1, "trial_index": 123}, "uniqueid": "MTK2667:33OOO72IVISPQ5DJJGGYB7OBEKQCT5", "dateTime": 1519225922075}, {"current_trial": 124, "trialdata": {"rt": -1, "trial_type": "single-stim", "stimulus": "<p id=\"stim\">4</p>", "internal_node_id": "0.0-91.0-6.0", "time_elapsed": 668499, "key_press": -1, "trial_index": 124}, "uniqueid": "MTK2667:33OOO72IVISPQ5DJJGGYB7OBEKQCT5", "dateTime": 1519225923077}, {"current_trial": 125, "trialdata": {"rt": -1, "trial_type": "single-stim", "stimulus": "<p id=\"stim\">3</p>", "internal_node_id": "0.0-91.0-7.0", "time_elapsed": 669501, "key_press": -1, "trial_index": 125}, "uniqueid": "MTK2667:33OOO72IVISPQ5DJJGGYB7OBEKQCT5", "dateTime": 1519225924080}, {"current_trial": 126, "trialdata": {"rt": -1, "trial_type": "single-stim", "stimulus": "<p id=\"stim\">2</p>", "internal_node_id": "0.0-91.0-8.0", "time_elapsed": 670503, "key_press": -1, "trial_index": 126}, "uniqueid": "MTK2667:33OOO72IVISPQ5DJJGGYB7OBEKQCT5", "dateTime": 1519225925081}, {"current_trial": 127, "trialdata": {"rt": -1, "trial_type": "single-stim", "stimulus": "<p id=\"stim\">1</p>", "internal_node_id": "0.0-91.0-9.0", "time_elapsed": 671506, "key_press": -1, "trial_index": 127}, "uniqueid": "MTK2667:33OOO72IVISPQ5DJJGGYB7OBEKQCT5", "dateTime": 1519225926084}, {"current_trial": 128, "trialdata": {"rt": -1, "trial_type": "single-stim", "stimulus": "<p id=\"stim\">+</p>", "internal_node_id": "0.0-92.0-0.0", "time_elapsed": 673010, "key_press": -1, "type": "FIXATION", "trial_index": 128}, "uniqueid": "MTK2667:33OOO72IVISPQ5DJJGGYB7OBEKQCT5", "dateTime": 1519225927590}, {"current_trial": 129, "trialdata": {"rt": -1, "trial_type": "single-stim", "word": "river", "stimulus": "<p id=\"stim\">RIVER</p>", "conditions": [12, 800, "v", 24000], "internal_node_id": "0.0-93.0", "trial": 3, "time_elapsed": 673813, "serialpos": 0, "key_press": -1, "wordID": 1193, "type": "PRES_VIS", "trial_index": 129}, "uniqueid": "MTK2667:33OOO72IVISPQ5DJJGGYB7OBEKQCT5", "dateTime": 1519225928391}, {"current_trial": 130, "trialdata": {"rt": -1, "trial_type": "single-stim", "word": "paddle", "stimulus": "<p id=\"stim\">PADDLE</p>", "conditions": [12, 800, "v", 24000], "internal_node_id": "0.0-94.0", "trial": 3, "time_elapsed": 675432, "serialpos": 1, "key_press": -1, "wordID": 999, "type": "PRES_VIS", "trial_index": 130}, "uniqueid": "MTK2667:33OOO72IVISPQ5DJJGGYB7OBEKQCT5", "dateTime": 1519225930010}, {"current_trial": 131, "trialdata": {"rt": -1, "trial_type": "single-stim", "word": "jelly", "stimulus": "<p id=\"stim\">JELLY</p>", "conditions": [12, 800, "v", 24000], "internal_node_id": "0.0-95.0", "trial": 3, "time_elapsed": 677179, "serialpos": 2, "key_press": -1, "wordID": 754, "type": "PRES_VIS", "trial_index": 131}, "uniqueid": "MTK2667:33OOO72IVISPQ5DJJGGYB7OBEKQCT5", "dateTime": 1519225931758}, {"current_trial": 132, "trialdata": {"rt": -1, "trial_type": "single-stim", "word": "fireman", "stimulus": "<p id=\"stim\">FIREMAN</p>", "conditions": [12, 800, "v", 24000], "internal_node_id": "0.0-96.0", "trial": 3, "time_elapsed": 679091, "serialpos": 3, "key_press": -1, "wordID": 568, "type": "PRES_VIS", "trial_index": 132}, "uniqueid": "MTK2667:33OOO72IVISPQ5DJJGGYB7OBEKQCT5", "dateTime": 1519225933669}, {"current_trial": 133, "trialdata": {"rt": -1, "trial_type": "single-stim", "word": "plaid", "stimulus": "<p id=\"stim\">PLAID</p>", "conditions": [12, 800, "v", 24000], "internal_node_id": "0.0-97.0", "trial": 3, "time_elapsed": 680814, "serialpos": 4, "key_press": -1, "wordID": 1079, "type": "PRES_VIS", "trial_index": 133}, "uniqueid": "MTK2667:33OOO72IVISPQ5DJJGGYB7OBEKQCT5", "dateTime": 1519225935392}, {"current_trial": 134, "trialdata": {"rt": -1, "trial_type": "single-stim", "word": "transplant", "stimulus": "<p id=\"stim\">TRANSPLANT</p>", "conditions": [12, 800, "v", 24000], "internal_node_id": "0.0-98.0", "trial": 3, "time_elapsed": 682610, "serialpos": 5, "key_press": -1, "wordID": 1495, "type": "PRES_VIS", "trial_index": 134}, "uniqueid": "MTK2667:33OOO72IVISPQ5DJJGGYB7OBEKQCT5", "dateTime": 1519225937188}, {"current_trial": 135, "trialdata": {"rt": -1, "trial_type": "single-stim", "word": "kidney", "stimulus": "<p id=\"stim\">KIDNEY</p>", "conditions": [12, 800, "v", 24000], "internal_node_id": "0.0-99.0", "trial": 3, "time_elapsed": 684270, "serialpos": 6, "key_press": -1, "wordID": 775, "type": "PRES_VIS", "trial_index": 135}, "uniqueid": "MTK2667:33OOO72IVISPQ5DJJGGYB7OBEKQCT5", "dateTime": 1519225938849}, {"current_trial": 136, "trialdata": {"rt": -1, "trial_type": "single-stim", "word": "gift", "stimulus": "<p id=\"stim\">GIFT</p>", "conditions": [12, 800, "v", 24000], "internal_node_id": "0.0-100.0", "trial": 3, "time_elapsed": 685939, "serialpos": 7, "key_press": -1, "wordID": 634, "type": "PRES_VIS", "trial_index": 136}, "uniqueid": "MTK2667:33OOO72IVISPQ5DJJGGYB7OBEKQCT5", "dateTime": 1519225940517}, {"current_trial": 137, "trialdata": {"rt": -1, "trial_type": "single-stim", "word": "lapel", "stimulus": "<p id=\"stim\">LAPEL</p>", "conditions": [12, 800, "v", 24000], "internal_node_id": "0.0-101.0", "trial": 3, "time_elapsed": 687543, "serialpos": 8, "key_press": -1, "wordID": 799, "type": "PRES_VIS", "trial_index": 137}, "uniqueid": "MTK2667:33OOO72IVISPQ5DJJGGYB7OBEKQCT5", "dateTime": 1519225942121}, {"current_trial": 138, "trialdata": {"rt": -1, "trial_type": "single-stim", "word": "pastry", "stimulus": "<p id=\"stim\">PASTRY</p>", "conditions": [12, 800, "v", 24000], "internal_node_id": "0.0-102.0", "trial": 3, "time_elapsed": 689149, "serialpos": 9, "key_press": -1, "wordID": 1021, "type": "PRES_VIS", "trial_index": 138}, "uniqueid": "MTK2667:33OOO72IVISPQ5DJJGGYB7OBEKQCT5", "dateTime": 1519225943727}, {"current_trial": 139, "trialdata": {"rt": -1, "trial_type": "single-stim", "word": "daughter", "stimulus": "<p id=\"stim\">DAUGHTER</p>", "conditions": [12, 800, "v", 24000], "internal_node_id": "0.0-103.0", "trial": 3, "time_elapsed": 690825, "serialpos": 10, "key_press": -1, "wordID": 441, "type": "PRES_VIS", "trial_index": 139}, "uniqueid": "MTK2667:33OOO72IVISPQ5DJJGGYB7OBEKQCT5", "dateTime": 1519225945404}, {"current_trial": 140, "trialdata": {"rt": -1, "trial_type": "single-stim", "word": "jello", "stimulus": "<p id=\"stim\">JELLO</p>", "conditions": [12, 800, "v", 24000], "internal_node_id": "0.0-104.0", "trial": 3, "time_elapsed": 692825, "serialpos": 11, "key_press": -1, "wordID": 753, "type": "PRES_VIS", "trial_index": 140}, "uniqueid": "MTK2667:33OOO72IVISPQ5DJJGGYB7OBEKQCT5", "dateTime": 1519225947403}, {"current_trial": 141, "trialdata": {"rt": -1, "trial_type": "single-stim", "stimulus": "", "internal_node_id": "0.0-105.0-0.0", "time_elapsed": 695311, "key_press": -1, "type": "PRE_RECALL_DELAY", "trial_index": 141}, "uniqueid": "MTK2667:33OOO72IVISPQ5DJJGGYB7OBEKQCT5", "dateTime": 1519225949890}, {"current_trial": 142, "trialdata": {"rt": -1000, "trial_type": "single-audio", "stimulus": "/static/audio/400Hz.wav", "internal_node_id": "0.0-106.0", "time_elapsed": 695814, "key_press": -1, "type": "PRE_RECALL_ALERT", "trial_index": 142}, "uniqueid": "MTK2667:33OOO72IVISPQ5DJJGGYB7OBEKQCT5", "dateTime": 1519225950393}, {"current_trial": 143, "trialdata": {"rt": [1475, 2381, 3440, 5965, 7942, 9030, 10827, 11951], "recwords": ["river", "paddle", "jelly", "fireman", "jello", "daughter", "transplant", "kidney"], "key_times": [814, 936, 1088, 1224, 1283, 1475, 1699, 1804, 1895, 2051, 2117, 2240, 2381, 2630, 2807, 2878, 3015, 3182, 3440, 3757, 3849, 4452, 4592, 5234, 5310, 5404, 5466, 5559, 5664, 5771, 5965, 7078, 7242, 7353, 7519, 7708, 7942, 8104, 8212, 8289, 8360, 8478, 8597, 8792, 8875, 9030, 9684, 9845, 9876, 9962, 10093, 10209, 10379, 10434, 10557, 10674, 10827, 11038, 11230, 11315, 11434, 11578, 11724, 11951], "trial_type": "free-recall", "conditions": [12, 800, "v", 24000], "internal_node_id": "0.0-107.0-0.0", "key_presses": [82, 73, 86, 69, 82, 13, 80, 65, 68, 68, 76, 69, 13, 74, 69, 76, 76, 89, 13, 76, 69, 8, 8, 70, 73, 82, 69, 77, 65, 78, 13, 74, 69, 76, 76, 79, 13, 68, 65, 85, 71, 72, 84, 69, 82, 13, 84, 82, 65, 78, 83, 80, 76, 65, 78, 84, 13, 75, 73, 68, 78, 69, 89, 13], "trial": 3, "time_elapsed": 755824, "type": "FREE_RECALL", "trial_index": 143}, "uniqueid": "MTK2667:33OOO72IVISPQ5DJJGGYB7OBEKQCT5", "dateTime": 1519226010413}, {"current_trial": 144, "trialdata": {"rt": 89560, "trial_type": "text", "internal_node_id": "0.0-108.0", "time_elapsed": 847400, "key_press": 32, "type": "INSTRUCTIONS", "trial_index": 144}, "uniqueid": "MTK2667:33OOO72IVISPQ5DJJGGYB7OBEKQCT5", "dateTime": 1519226101980}, {"current_trial": 145, "trialdata": {"rt": [3069, 5972, 9367], "trial_type": "math-distractor", "key_times": [1799, 2209, 3069, 4198, 4604, 5388, 5556, 5972, 8991, 9367], "responses": ["15", "16", "9"], "num2": [4, 9, 2, 5], "num3": [2, 6, 3, 6], "conditions": [24, 800, "v", 12000], "internal_node_id": "0.0-109.0", "key_presses": [49, 53, 13, 49, 53, 8, 54, 13, 57, 13], "trial": 4, "time_elapsed": 861410, "type": "DISTRACTOR", "trial_index": 145, "num1": [9, 1, 4, 2]}, "uniqueid": "MTK2667:33OOO72IVISPQ5DJJGGYB7OBEKQCT5", "dateTime": 1519226115989}, {"current_trial": 146, "trialdata": {"rt": -1, "trial_type": "single-stim", "stimulus": "<p id=\"stim\">10</p>", "internal_node_id": "0.0-110.0-0.0", "time_elapsed": 864414, "key_press": -1, "trial_index": 146}, "uniqueid": "MTK2667:33OOO72IVISPQ5DJJGGYB7OBEKQCT5", "dateTime": 1519226118993}, {"current_trial": 147, "trialdata": {"rt": -1, "trial_type": "single-stim", "stimulus": "<p id=\"stim\">9</p>", "internal_node_id": "0.0-110.0-1.0", "time_elapsed": 865418, "key_press": -1, "trial_index": 147}, "uniqueid": "MTK2667:33OOO72IVISPQ5DJJGGYB7OBEKQCT5", "dateTime": 1519226119997}, {"current_trial": 148, "trialdata": {"rt": -1, "trial_type": "single-stim", "stimulus": "<p id=\"stim\">8</p>", "internal_node_id": "0.0-110.0-2.0", "time_elapsed": 866421, "key_press": -1, "trial_index": 148}, "uniqueid": "MTK2667:33OOO72IVISPQ5DJJGGYB7OBEKQCT5", "dateTime": 1519226121000}, {"current_trial": 149, "trialdata": {"rt": -1, "trial_type": "single-stim", "stimulus": "<p id=\"stim\">7</p>", "internal_node_id": "0.0-110.0-3.0", "time_elapsed": 867424, "key_press": -1, "trial_index": 149}, "uniqueid": "MTK2667:33OOO72IVISPQ5DJJGGYB7OBEKQCT5", "dateTime": 1519226122002}, {"current_trial": 150, "trialdata": {"rt": -1, "trial_type": "single-stim", "stimulus": "<p id=\"stim\">6</p>", "internal_node_id": "0.0-110.0-4.0", "time_elapsed": 868476, "key_press": -1, "trial_index": 150}, "uniqueid": "MTK2667:33OOO72IVISPQ5DJJGGYB7OBEKQCT5", "dateTime": 1519226123054}, {"current_trial": 151, "trialdata": {"rt": -1, "trial_type": "single-stim", "stimulus": "<p id=\"stim\">5</p>", "internal_node_id": "0.0-110.0-5.0", "time_elapsed": 869479, "key_press": -1, "trial_index": 151}, "uniqueid": "MTK2667:33OOO72IVISPQ5DJJGGYB7OBEKQCT5", "dateTime": 1519226124057}, {"current_trial": 152, "trialdata": {"rt": -1, "trial_type": "single-stim", "stimulus": "<p id=\"stim\">4</p>", "internal_node_id": "0.0-110.0-6.0", "time_elapsed": 870480, "key_press": -1, "trial_index": 152}, "uniqueid": "MTK2667:33OOO72IVISPQ5DJJGGYB7OBEKQCT5", "dateTime": 1519226125059}, {"current_trial": 153, "trialdata": {"rt": -1, "trial_type": "single-stim", "stimulus": "<p id=\"stim\">3</p>", "internal_node_id": "0.0-110.0-7.0", "time_elapsed": 871483, "key_press": -1, "trial_index": 153}, "uniqueid": "MTK2667:33OOO72IVISPQ5DJJGGYB7OBEKQCT5", "dateTime": 1519226126061}, {"current_trial": 154, "trialdata": {"rt": -1, "trial_type": "single-stim", "stimulus": "<p id=\"stim\">2</p>", "internal_node_id": "0.0-110.0-8.0", "time_elapsed": 872490, "key_press": -1, "trial_index": 154}, "uniqueid": "MTK2667:33OOO72IVISPQ5DJJGGYB7OBEKQCT5", "dateTime": 1519226127068}, {"current_trial": 155, "trialdata": {"rt": -1, "trial_type": "single-stim", "stimulus": "<p id=\"stim\">1</p>", "internal_node_id": "0.0-110.0-9.0", "time_elapsed": 873494, "key_press": -1, "trial_index": 155}, "uniqueid": "MTK2667:33OOO72IVISPQ5DJJGGYB7OBEKQCT5", "dateTime": 1519226128073}, {"current_trial": 156, "trialdata": {"rt": -1, "trial_type": "single-stim", "stimulus": "<p id=\"stim\">+</p>", "internal_node_id": "0.0-111.0-0.0", "time_elapsed": 874999, "key_press": -1, "type": "FIXATION", "trial_index": 156}, "uniqueid": "MTK2667:33OOO72IVISPQ5DJJGGYB7OBEKQCT5", "dateTime": 1519226129578}, {"current_trial": 157, "trialdata": {"rt": -1, "trial_type": "single-stim", "word": "grave", "stimulus": "<p id=\"stim\">GRAVE</p>", "conditions": [24, 800, "v", 12000], "internal_node_id": "0.0-112.0", "trial": 4, "time_elapsed": 875801, "serialpos": 0, "key_press": -1, "wordID": 657, "type": "PRES_VIS", "trial_index": 157}, "uniqueid": "MTK2667:33OOO72IVISPQ5DJJGGYB7OBEKQCT5", "dateTime": 1519226130380}, {"current_trial": 158, "trialdata": {"rt": -1, "trial_type": "single-stim", "word": "ulcer", "stimulus": "<p id=\"stim\">ULCER</p>", "conditions": [24, 800, "v", 12000], "internal_node_id": "0.0-113.0", "trial": 4, "time_elapsed": 877611, "serialpos": 1, "key_press": -1, "wordID": 1532, "type": "PRES_VIS", "trial_index": 158}, "uniqueid": "MTK2667:33OOO72IVISPQ5DJJGGYB7OBEKQCT5", "dateTime": 1519226132190}, {"current_trial": 159, "trialdata": {"rt": -1, "trial_type": "single-stim", "word": "fiddle", "stimulus": "<p id=\"stim\">FIDDLE</p>", "conditions": [24, 800, "v", 12000], "internal_node_id": "0.0-114.0", "trial": 4, "time_elapsed": 879348, "serialpos": 2, "key_press": -1, "wordID": 560, "type": "PRES_VIS", "trial_index": 159}, "uniqueid": "MTK2667:33OOO72IVISPQ5DJJGGYB7OBEKQCT5", "dateTime": 1519226133926}, {"current_trial": 160, "trialdata": {"rt": -1, "trial_type": "single-stim", "word": "badge", "stimulus": "<p id=\"stim\">BADGE</p>", "conditions": [24, 800, "v", 12000], "internal_node_id": "0.0-115.0", "trial": 4, "time_elapsed": 881037, "serialpos": 3, "key_press": -1, "wordID": 67, "type": "PRES_VIS", "trial_index": 160}, "uniqueid": "MTK2667:33OOO72IVISPQ5DJJGGYB7OBEKQCT5", "dateTime": 1519226135616}, {"current_trial": 161, "trialdata": {"rt": -1, "trial_type": "single-stim", "word": "sponge", "stimulus": "<p id=\"stim\">SPONGE</p>", "conditions": [24, 800, "v", 12000], "internal_node_id": "0.0-116.0", "trial": 4, "time_elapsed": 882970, "serialpos": 4, "key_press": -1, "wordID": 1354, "type": "PRES_VIS", "trial_index": 161}, "uniqueid": "MTK2667:33OOO72IVISPQ5DJJGGYB7OBEKQCT5", "dateTime": 1519226137548}, {"current_trial": 162, "trialdata": {"rt": -1, "trial_type": "single-stim", "word": "motor", "stimulus": "<p id=\"stim\">MOTOR</p>", "conditions": [24, 800, "v", 12000], "internal_node_id": "0.0-117.0", "trial": 4, "time_elapsed": 884720, "serialpos": 5, "key_press": -1, "wordID": 921, "type": "PRES_VIS", "trial_index": 162}, "uniqueid": "MTK2667:33OOO72IVISPQ5DJJGGYB7OBEKQCT5", "dateTime": 1519226139299}, {"current_trial": 163, "trialdata": {"rt": -1, "trial_type": "single-stim", "word": "handbag", "stimulus": "<p id=\"stim\">HANDBAG</p>", "conditions": [24, 800, "v", 12000], "internal_node_id": "0.0-118.0", "trial": 4, "time_elapsed": 886632, "serialpos": 6, "key_press": -1, "wordID": 683, "type": "PRES_VIS", "trial_index": 163}, "uniqueid": "MTK2667:33OOO72IVISPQ5DJJGGYB7OBEKQCT5", "dateTime": 1519226141210}, {"current_trial": 164, "trialdata": {"rt": -1, "trial_type": "single-stim", "word": "banjo", "stimulus": "<p id=\"stim\">BANJO</p>", "conditions": [24, 800, "v", 12000], "internal_node_id": "0.0-119.0", "trial": 4, "time_elapsed": 888315, "serialpos": 7, "key_press": -1, "wordID": 81, "type": "PRES_VIS", "trial_index": 164}, "uniqueid": "MTK2667:33OOO72IVISPQ5DJJGGYB7OBEKQCT5", "dateTime": 1519226142894}, {"current_trial": 165, "trialdata": {"rt": -1, "trial_type": "single-stim", "word": "suitcase", "stimulus": "<p id=\"stim\">SUITCASE</p>", "conditions": [24, 800, "v", 12000], "internal_node_id": "0.0-120.0", "trial": 4, "time_elapsed": 889972, "serialpos": 8, "key_press": -1, "wordID": 1402, "type": "PRES_VIS", "trial_index": 165}, "uniqueid": "MTK2667:33OOO72IVISPQ5DJJGGYB7OBEKQCT5", "dateTime": 1519226144551}, {"current_trial": 166, "trialdata": {"rt": -1, "trial_type": "single-stim", "word": "garbage", "stimulus": "<p id=\"stim\">GARBAGE</p>", "conditions": [24, 800, "v", 12000], "internal_node_id": "0.0-121.0", "trial": 4, "time_elapsed": 891625, "serialpos": 9, "key_press": -1, "wordID": 621, "type": "PRES_VIS", "trial_index": 166}, "uniqueid": "MTK2667:33OOO72IVISPQ5DJJGGYB7OBEKQCT5", "dateTime": 1519226146203}, {"current_trial": 167, "trialdata": {"rt": -1, "trial_type": "single-stim", "word": "snack", "stimulus": "<p id=\"stim\">SNACK</p>", "conditions": [24, 800, "v", 12000], "internal_node_id": "0.0-122.0", "trial": 4, "time_elapsed": 893607, "serialpos": 10, "key_press": -1, "wordID": 1330, "type": "PRES_VIS", "trial_index": 167}, "uniqueid": "MTK2667:33OOO72IVISPQ5DJJGGYB7OBEKQCT5", "dateTime": 1519226148186}, {"current_trial": 168, "trialdata": {"rt": -1, "trial_type": "single-stim", "word": "muffin", "stimulus": "<p id=\"stim\">MUFFIN</p>", "conditions": [24, 800, "v", 12000], "internal_node_id": "0.0-123.0", "trial": 4, "time_elapsed": 895273, "serialpos": 11, "key_press": -1, "wordID": 928, "type": "PRES_VIS", "trial_index": 168}, "uniqueid": "MTK2667:33OOO72IVISPQ5DJJGGYB7OBEKQCT5", "dateTime": 1519226149852}, {"current_trial": 169, "trialdata": {"rt": -1, "trial_type": "single-stim", "word": "clothes", "stimulus": "<p id=\"stim\">CLOTHES</p>", "conditions": [24, 800, "v", 12000], "internal_node_id": "0.0-124.0", "trial": 4, "time_elapsed": 897150, "serialpos": 12, "key_press": -1, "wordID": 326, "type": "PRES_VIS", "trial_index": 169}, "uniqueid": "MTK2667:33OOO72IVISPQ5DJJGGYB7OBEKQCT5", "dateTime": 1519226151729}, {"current_trial": 170, "trialdata": {"rt": -1, "trial_type": "single-stim", "word": "chipmunk", "stimulus": "<p id=\"stim\">CHIPMUNK</p>", "conditions": [24, 800, "v", 12000], "internal_node_id": "0.0-125.0", "trial": 4, "time_elapsed": 899009, "serialpos": 13, "key_press": -1, "wordID": 303, "type": "PRES_VIS", "trial_index": 170}, "uniqueid": "MTK2667:33OOO72IVISPQ5DJJGGYB7OBEKQCT5", "dateTime": 1519226153588}, {"current_trial": 171, "trialdata": {"rt": -1, "trial_type": "single-stim", "word": "spider", "stimulus": "<p id=\"stim\">SPIDER</p>", "conditions": [24, 800, "v", 12000], "internal_node_id": "0.0-126.0", "trial": 4, "time_elapsed": 900948, "serialpos": 14, "key_press": -1, "wordID": 1350, "type": "PRES_VIS", "trial_index": 171}, "uniqueid": "MTK2667:33OOO72IVISPQ5DJJGGYB7OBEKQCT5", "dateTime": 1519226155526}, {"current_trial": 172, "trialdata": {"rt": -1, "trial_type": "single-stim", "word": "chapel", "stimulus": "<p id=\"stim\">CHAPEL</p>", "conditions": [24, 800, "v", 12000], "internal_node_id": "0.0-127.0", "trial": 4, "time_elapsed": 902826, "serialpos": 15, "key_press": -1, "wordID": 279, "type": "PRES_VIS", "trial_index": 172}, "uniqueid": "MTK2667:33OOO72IVISPQ5DJJGGYB7OBEKQCT5", "dateTime": 1519226157405}, {"current_trial": 173, "trialdata": {"rt": -1, "trial_type": "single-stim", "word": "lunch", "stimulus": "<p id=\"stim\">LUNCH</p>", "conditions": [24, 800, "v", 12000], "internal_node_id": "0.0-128.0", "trial": 4, "time_elapsed": 904719, "serialpos": 16, "key_press": -1, "wordID": 848, "type": "PRES_VIS", "trial_index": 173}, "uniqueid": "MTK2667:33OOO72IVISPQ5DJJGGYB7OBEKQCT5", "dateTime": 1519226159298}, {"current_trial": 174, "trialdata": {"rt": -1, "trial_type": "single-stim", "word": "dresser", "stimulus": "<p id=\"stim\">DRESSER</p>", "conditions": [24, 800, "v", 12000], "internal_node_id": "0.0-129.0", "trial": 4, "time_elapsed": 906591, "serialpos": 17, "key_press": -1, "wordID": 495, "type": "PRES_VIS", "trial_index": 174}, "uniqueid": "MTK2667:33OOO72IVISPQ5DJJGGYB7OBEKQCT5", "dateTime": 1519226161169}, {"current_trial": 175, "trialdata": {"rt": -1, "trial_type": "single-stim", "word": "spoon", "stimulus": "<p id=\"stim\">SPOON</p>", "conditions": [24, 800, "v", 12000], "internal_node_id": "0.0-130.0", "trial": 4, "time_elapsed": 908422, "serialpos": 18, "key_press": -1, "wordID": 1356, "type": "PRES_VIS", "trial_index": 175}, "uniqueid": "MTK2667:33OOO72IVISPQ5DJJGGYB7OBEKQCT5", "dateTime": 1519226163001}, {"current_trial": 176, "trialdata": {"rt": -1, "trial_type": "single-stim", "word": "branch", "stimulus": "<p id=\"stim\">BRANCH</p>", "conditions": [24, 800, "v", 12000], "internal_node_id": "0.0-131.0", "trial": 4, "time_elapsed": 910048, "serialpos": 19, "key_press": -1, "wordID": 167, "type": "PRES_VIS", "trial_index": 176}, "uniqueid": "MTK2667:33OOO72IVISPQ5DJJGGYB7OBEKQCT5", "dateTime": 1519226164627}, {"current_trial": 177, "trialdata": {"rt": -1, "trial_type": "single-stim", "word": "camel", "stimulus": "<p id=\"stim\">CAMEL</p>", "conditions": [24, 800, "v", 12000], "internal_node_id": "0.0-132.0", "trial": 4, "time_elapsed": 911851, "serialpos": 20, "key_press": -1, "wordID": 222, "type": "PRES_VIS", "trial_index": 177}, "uniqueid": "MTK2667:33OOO72IVISPQ5DJJGGYB7OBEKQCT5", "dateTime": 1519226166430}, {"current_trial": 178, "trialdata": {"rt": -1, "trial_type": "single-stim", "word": "donkey", "stimulus": "<p id=\"stim\">DONKEY</p>", "conditions": [24, 800, "v", 12000], "internal_node_id": "0.0-133.0", "trial": 4, "time_elapsed": 913849, "serialpos": 21, "key_press": -1, "wordID": 483, "type": "PRES_VIS", "trial_index": 178}, "uniqueid": "MTK2667:33OOO72IVISPQ5DJJGGYB7OBEKQCT5", "dateTime": 1519226168427}, {"current_trial": 179, "trialdata": {"rt": -1, "trial_type": "single-stim", "word": "flask", "stimulus": "<p id=\"stim\">FLASK</p>", "conditions": [24, 800, "v", 12000], "internal_node_id": "0.0-134.0", "trial": 4, "time_elapsed": 915773, "serialpos": 22, "key_press": -1, "wordID": 575, "type": "PRES_VIS", "trial_index": 179}, "uniqueid": "MTK2667:33OOO72IVISPQ5DJJGGYB7OBEKQCT5", "dateTime": 1519226170351}, {"current_trial": 180, "trialdata": {"rt": -1, "trial_type": "single-stim", "word": "skillet", "stimulus": "<p id=\"stim\">SKILLET</p>", "conditions": [24, 800, "v", 12000], "internal_node_id": "0.0-135.0", "trial": 4, "time_elapsed": 917604, "serialpos": 23, "key_press": -1, "wordID": 1316, "type": "PRES_VIS", "trial_index": 180}, "uniqueid": "MTK2667:33OOO72IVISPQ5DJJGGYB7OBEKQCT5", "dateTime": 1519226172182}, {"current_trial": 181, "trialdata": {"rt": -1, "trial_type": "single-stim", "stimulus": "", "internal_node_id": "0.0-136.0-0.0", "time_elapsed": 919868, "key_press": -1, "type": "PRE_RECALL_DELAY", "trial_index": 181}, "uniqueid": "MTK2667:33OOO72IVISPQ5DJJGGYB7OBEKQCT5", "dateTime": 1519226174446}, {"current_trial": 182, "trialdata": {"rt": -1000, "trial_type": "single-audio", "stimulus": "/static/audio/400Hz.wav", "internal_node_id": "0.0-137.0", "time_elapsed": 920370, "key_press": -1, "type": "PRE_RECALL_ALERT", "trial_index": 182}, "uniqueid": "MTK2667:33OOO72IVISPQ5DJJGGYB7OBEKQCT5", "dateTime": 1519226174948}, {"current_trial": 183, "trialdata": {"rt": [6335, 7195, 8288, 9345, 10303, 12280, 13342, 14504, 15508, 16431, 18481], "recwords": ["grave", "ulcer", "fiddle", "badge", "sponge", "chipmunk", "donkey", "camel", "lunch", "spoon", "snack"], "key_times": [5765, 5958, 6042, 6168, 6260, 6335, 6614, 6762, 6920, 7002, 7099, 7195, 7359, 7478, 7860, 8017, 8082, 8201, 8288, 8503, 8602, 8894, 9089, 9197, 9345, 9558, 9655, 9837, 9919, 10005, 10131, 10303, 10662, 10747, 10819, 11178, 11565, 11827, 12015, 12112, 12280, 12527, 12620, 12717, 12888, 13026, 13163, 13342, 13734, 13871, 13976, 14112, 14216, 14504, 14850, 14989, 15178, 15262, 15342, 15508, 15676, 15809, 15991, 16132, 16236, 16431, 17887, 18017, 18111, 18236, 18316, 18481], "trial_type": "free-recall", "conditions": [24, 800, "v", 12000], "internal_node_id": "0.0-138.0-0.0", "key_presses": [71, 82, 65, 86, 69, 13, 85, 76, 67, 69, 82, 13, 70, 73, 68, 68, 76, 69, 13, 66, 65, 68, 71, 69, 13, 83, 80, 79, 78, 71, 69, 13, 67, 72, 73, 80, 77, 85, 78, 75, 13, 68, 79, 78, 75, 69, 89, 13, 67, 65, 77, 69, 76, 13, 76, 85, 78, 67, 72, 13, 83, 80, 79, 79, 78, 13, 83, 78, 65, 67, 75, 13], "trial": 4, "time_elapsed": 980380, "type": "FREE_RECALL", "trial_index": 183}, "uniqueid": "MTK2667:33OOO72IVISPQ5DJJGGYB7OBEKQCT5", "dateTime": 1519226234970}, {"current_trial": 184, "trialdata": {"rt": 1538, "trial_type": "text", "internal_node_id": "0.0-139.0", "time_elapsed": 983934, "key_press": 32, "type": "INSTRUCTIONS", "trial_index": 184}, "uniqueid": "MTK2667:33OOO72IVISPQ5DJJGGYB7OBEKQCT5", "dateTime": 1519226238513}, {"current_trial": 185, "trialdata": {"rt": [4520, 8906, 11510, 14394, 19225], "trial_type": "math-distractor", "key_times": [3080, 3654, 4520, 6205, 6818, 7742, 8219, 8906, 10330, 10605, 11510, 13868, 14093, 14394, 17301, 18069, 18513, 19225, 23325, 23891], "responses": ["18", "17", "13", "19", "9"], "num2": [2, 9, 4, 8, 4, 2], "num3": [7, 5, 4, 5, 3, 1], "conditions": [24, 1600, "v", 24000], "internal_node_id": "0.0-140.0", "key_presses": [49, 56, 13, 49, 56, 8, 55, 13, 49, 51, 13, 49, 57, 13, 56, 8, 57, 13, 49, 48], "trial": 5, "time_elapsed": 1009956, "type": "DISTRACTOR", "trial_index": 185, "num1": [9, 3, 5, 6, 2, 7]}, "uniqueid": "MTK2667:33OOO72IVISPQ5DJJGGYB7OBEKQCT5", "dateTime": 1519226264534}, {"current_trial": 186, "trialdata": {"rt": -1, "trial_type": "single-stim", "stimulus": "<p id=\"stim\">10</p>", "internal_node_id": "0.0-141.0-0.0", "time_elapsed": 1012960, "key_press": -1, "trial_index": 186}, "uniqueid": "MTK2667:33OOO72IVISPQ5DJJGGYB7OBEKQCT5", "dateTime": 1519226267539}, {"current_trial": 187, "trialdata": {"rt": -1, "trial_type": "single-stim", "stimulus": "<p id=\"stim\">9</p>", "internal_node_id": "0.0-141.0-1.0", "time_elapsed": 1013965, "key_press": -1, "trial_index": 187}, "uniqueid": "MTK2667:33OOO72IVISPQ5DJJGGYB7OBEKQCT5", "dateTime": 1519226268545}, {"current_trial": 188, "trialdata": {"rt": -1, "trial_type": "single-stim", "stimulus": "<p id=\"stim\">8</p>", "internal_node_id": "0.0-141.0-2.0", "time_elapsed": 1014969, "key_press": -1, "trial_index": 188}, "uniqueid": "MTK2667:33OOO72IVISPQ5DJJGGYB7OBEKQCT5", "dateTime": 1519226269549}, {"current_trial": 189, "trialdata": {"rt": -1, "trial_type": "single-stim", "stimulus": "<p id=\"stim\">7</p>", "internal_node_id": "0.0-141.0-3.0", "time_elapsed": 1015975, "key_press": -1, "trial_index": 189}, "uniqueid": "MTK2667:33OOO72IVISPQ5DJJGGYB7OBEKQCT5", "dateTime": 1519226270553}, {"current_trial": 190, "trialdata": {"rt": -1, "trial_type": "single-stim", "stimulus": "<p id=\"stim\">6</p>", "internal_node_id": "0.0-141.0-4.0", "time_elapsed": 1016977, "key_press": -1, "trial_index": 190}, "uniqueid": "MTK2667:33OOO72IVISPQ5DJJGGYB7OBEKQCT5", "dateTime": 1519226271555}, {"current_trial": 191, "trialdata": {"rt": -1, "trial_type": "single-stim", "stimulus": "<p id=\"stim\">5</p>", "internal_node_id": "0.0-141.0-5.0", "time_elapsed": 1017980, "key_press": -1, "trial_index": 191}, "uniqueid": "MTK2667:33OOO72IVISPQ5DJJGGYB7OBEKQCT5", "dateTime": 1519226272558}, {"current_trial": 192, "trialdata": {"rt": -1, "trial_type": "single-stim", "stimulus": "<p id=\"stim\">4</p>", "internal_node_id": "0.0-141.0-6.0", "time_elapsed": 1018981, "key_press": -1, "trial_index": 192}, "uniqueid": "MTK2667:33OOO72IVISPQ5DJJGGYB7OBEKQCT5", "dateTime": 1519226273560}, {"current_trial": 193, "trialdata": {"rt": -1, "trial_type": "single-stim", "stimulus": "<p id=\"stim\">3</p>", "internal_node_id": "0.0-141.0-7.0", "time_elapsed": 1019984, "key_press": -1, "trial_index": 193}, "uniqueid": "MTK2667:33OOO72IVISPQ5DJJGGYB7OBEKQCT5", "dateTime": 1519226274562}, {"current_trial": 194, "trialdata": {"rt": -1, "trial_type": "single-stim", "stimulus": "<p id=\"stim\">2</p>", "internal_node_id": "0.0-141.0-8.0", "time_elapsed": 1020986, "key_press": -1, "trial_index": 194}, "uniqueid": "MTK2667:33OOO72IVISPQ5DJJGGYB7OBEKQCT5", "dateTime": 1519226275565}, {"current_trial": 195, "trialdata": {"rt": -1, "trial_type": "single-stim", "stimulus": "<p id=\"stim\">1</p>", "internal_node_id": "0.0-141.0-9.0", "time_elapsed": 1021990, "key_press": -1, "trial_index": 195}, "uniqueid": "MTK2667:33OOO72IVISPQ5DJJGGYB7OBEKQCT5", "dateTime": 1519226276569}, {"current_trial": 196, "trialdata": {"rt": -1, "trial_type": "single-stim", "stimulus": "<p id=\"stim\">+</p>", "internal_node_id": "0.0-142.0-0.0", "time_elapsed": 1023494, "key_press": -1, "type": "FIXATION", "trial_index": 196}, "uniqueid": "MTK2667:33OOO72IVISPQ5DJJGGYB7OBEKQCT5", "dateTime": 1519226278072}, {"current_trial": 197, "trialdata": {"rt": -1, "trial_type": "single-stim", "word": "chest", "stimulus": "<p id=\"stim\">CHEST</p>", "conditions": [24, 1600, "v", 24000], "internal_node_id": "0.0-143.0", "trial": 5, "time_elapsed": 1025096, "serialpos": 0, "key_press": -1, "wordID": 294, "type": "PRES_VIS", "trial_index": 197}, "uniqueid": "MTK2667:33OOO72IVISPQ5DJJGGYB7OBEKQCT5", "dateTime": 1519226279675}, {"current_trial": 198, "trialdata": {"rt": -1, "trial_type": "single-stim", "word": "typist", "stimulus": "<p id=\"stim\">TYPIST</p>", "conditions": [24, 1600, "v", 24000], "internal_node_id": "0.0-144.0", "trial": 5, "time_elapsed": 1027750, "serialpos": 1, "key_press": -1, "wordID": 1531, "type": "PRES_VIS", "trial_index": 198}, "uniqueid": "MTK2667:33OOO72IVISPQ5DJJGGYB7OBEKQCT5", "dateTime": 1519226282328}, {"current_trial": 199, "trialdata": {"rt": -1, "trial_type": "single-stim", "word": "flipper", "stimulus": "<p id=\"stim\">FLIPPER</p>", "conditions": [24, 1600, "v", 24000], "internal_node_id": "0.0-145.0", "trial": 5, "time_elapsed": 1030196, "serialpos": 2, "key_press": -1, "wordID": 579, "type": "PRES_VIS", "trial_index": 199}, "uniqueid": "MTK2667:33OOO72IVISPQ5DJJGGYB7OBEKQCT5", "dateTime": 1519226284774}, {"current_trial": 200, "trialdata": {"rt": -1, "trial_type": "single-stim", "word": "forehead", "stimulus": "<p id=\"stim\">FOREHEAD</p>", "conditions": [24, 1600, "v", 24000], "internal_node_id": "0.0-146.0", "trial": 5, "time_elapsed": 1032633, "serialpos": 3, "key_press": -1, "wordID": 591, "type": "PRES_VIS", "trial_index": 200}, "uniqueid": "MTK2667:33OOO72IVISPQ5DJJGGYB7OBEKQCT5", "dateTime": 1519226287212}, {"current_trial": 201, "trialdata": {"rt": -1, "trial_type": "single-stim", "word": "parrot", "stimulus": "<p id=\"stim\">PARROT</p>", "conditions": [24, 1600, "v", 24000], "internal_node_id": "0.0-147.0", "trial": 5, "time_elapsed": 1035397, "serialpos": 4, "key_press": -1, "wordID": 1014, "type": "PRES_VIS", "trial_index": 201}, "uniqueid": "MTK2667:33OOO72IVISPQ5DJJGGYB7OBEKQCT5", "dateTime": 1519226289975}, {"current_trial": 202, "trialdata": {"rt": -1, "trial_type": "single-stim", "word": "slope", "stimulus": "<p id=\"stim\">SLOPE</p>", "conditions": [24, 1600, "v", 24000], "internal_node_id": "0.0-148.0", "trial": 5, "time_elapsed": 1037962, "serialpos": 5, "key_press": -1, "wordID": 1327, "type": "PRES_VIS", "trial_index": 202}, "uniqueid": "MTK2667:33OOO72IVISPQ5DJJGGYB7OBEKQCT5", "dateTime": 1519226292541}, {"current_trial": 203, "trialdata": {"rt": -1, "trial_type": "single-stim", "word": "dragon", "stimulus": "<p id=\"stim\">DRAGON</p>", "conditions": [24, 1600, "v", 24000], "internal_node_id": "0.0-149.0", "trial": 5, "time_elapsed": 1040456, "serialpos": 6, "key_press": -1, "wordID": 491, "type": "PRES_VIS", "trial_index": 203}, "uniqueid": "MTK2667:33OOO72IVISPQ5DJJGGYB7OBEKQCT5", "dateTime": 1519226295034}, {"current_trial": 204, "trialdata": {"rt": -1, "trial_type": "single-stim", "word": "gravel", "stimulus": "<p id=\"stim\">GRAVEL</p>", "conditions": [24, 1600, "v", 24000], "internal_node_id": "0.0-150.0", "trial": 5, "time_elapsed": 1043210, "serialpos": 7, "key_press": -1, "wordID": 658, "type": "PRES_VIS", "trial_index": 204}, "uniqueid": "MTK2667:33OOO72IVISPQ5DJJGGYB7OBEKQCT5", "dateTime": 1519226297788}, {"current_trial": 205, "trialdata": {"rt": -1, "trial_type": "single-stim", "word": "radish", "stimulus": "<p id=\"stim\">RADISH</p>", "conditions": [24, 1600, "v", 24000], "internal_node_id": "0.0-151.0", "trial": 5, "time_elapsed": 1045696, "serialpos": 8, "key_press": -1, "wordID": 1157, "type": "PRES_VIS", "trial_index": 205}, "uniqueid": "MTK2667:33OOO72IVISPQ5DJJGGYB7OBEKQCT5", "dateTime": 1519226300275}, {"current_trial": 206, "trialdata": {"rt": -1, "trial_type": "single-stim", "word": "parsley", "stimulus": "<p id=\"stim\">PARSLEY</p>", "conditions": [24, 1600, "v", 24000], "internal_node_id": "0.0-152.0", "trial": 5, "time_elapsed": 1048356, "serialpos": 9, "key_press": -1, "wordID": 1015, "type": "PRES_VIS", "trial_index": 206}, "uniqueid": "MTK2667:33OOO72IVISPQ5DJJGGYB7OBEKQCT5", "dateTime": 1519226302934}, {"current_trial": 207, "trialdata": {"rt": -1, "trial_type": "single-stim", "word": "tunnel", "stimulus": "<p id=\"stim\">TUNNEL</p>", "conditions": [24, 1600, "v", 24000], "internal_node_id": "0.0-153.0", "trial": 5, "time_elapsed": 1051023, "serialpos": 10, "key_press": -1, "wordID": 1518, "type": "PRES_VIS", "trial_index": 207}, "uniqueid": "MTK2667:33OOO72IVISPQ5DJJGGYB7OBEKQCT5", "dateTime": 1519226305601}, {"current_trial": 208, "trialdata": {"rt": -1, "trial_type": "single-stim", "word": "brother", "stimulus": "<p id=\"stim\">BROTHER</p>", "conditions": [24, 1600, "v", 24000], "internal_node_id": "0.0-154.0", "trial": 5, "time_elapsed": 1053542, "serialpos": 11, "key_press": -1, "wordID": 178, "type": "PRES_VIS", "trial_index": 208}, "uniqueid": "MTK2667:33OOO72IVISPQ5DJJGGYB7OBEKQCT5", "dateTime": 1519226308120}, {"current_trial": 209, "trialdata": {"rt": -1, "trial_type": "single-stim", "word": "supper", "stimulus": "<p id=\"stim\">SUPPER</p>", "conditions": [24, 1600, "v", 24000], "internal_node_id": "0.0-155.0", "trial": 5, "time_elapsed": 1056143, "serialpos": 12, "key_press": -1, "wordID": 1410, "type": "PRES_VIS", "trial_index": 209}, "uniqueid": "MTK2667:33OOO72IVISPQ5DJJGGYB7OBEKQCT5", "dateTime": 1519226310721}, {"current_trial": 210, "trialdata": {"rt": -1, "trial_type": "single-stim", "word": "pork", "stimulus": "<p id=\"stim\">PORK</p>", "conditions": [24, 1600, "v", 24000], "internal_node_id": "0.0-156.0", "trial": 5, "time_elapsed": 1058858, "serialpos": 13, "key_press": -1, "wordID": 1107, "type": "PRES_VIS", "trial_index": 210}, "uniqueid": "MTK2667:33OOO72IVISPQ5DJJGGYB7OBEKQCT5", "dateTime": 1519226313437}, {"current_trial": 211, "trialdata": {"rt": -1, "trial_type": "single-stim", "word": "paper", "stimulus": "<p id=\"stim\">PAPER</p>", "conditions": [24, 1600, "v", 24000], "internal_node_id": "0.0-157.0", "trial": 5, "time_elapsed": 1061400, "serialpos": 14, "key_press": -1, "wordID": 1010, "type": "PRES_VIS", "trial_index": 211}, "uniqueid": "MTK2667:33OOO72IVISPQ5DJJGGYB7OBEKQCT5", "dateTime": 1519226315980}, {"current_trial": 212, "trialdata": {"rt": -1, "trial_type": "single-stim", "word": "spool", "stimulus": "<p id=\"stim\">SPOOL</p>", "conditions": [24, 1600, "v", 24000], "internal_node_id": "0.0-158.0", "trial": 5, "time_elapsed": 1063873, "serialpos": 15, "key_press": -1, "wordID": 1355, "type": "PRES_VIS", "trial_index": 212}, "uniqueid": "MTK2667:33OOO72IVISPQ5DJJGGYB7OBEKQCT5", "dateTime": 1519226318452}, {"current_trial": 213, "trialdata": {"rt": -1, "trial_type": "single-stim", "word": "relish", "stimulus": "<p id=\"stim\">RELISH</p>", "conditions": [24, 1600, "v", 24000], "internal_node_id": "0.0-159.0", "trial": 5, "time_elapsed": 1066566, "serialpos": 16, "key_press": -1, "wordID": 1182, "type": "PRES_VIS", "trial_index": 213}, "uniqueid": "MTK2667:33OOO72IVISPQ5DJJGGYB7OBEKQCT5", "dateTime": 1519226321146}, {"current_trial": 214, "trialdata": {"rt": -1, "trial_type": "single-stim", "word": "tablet", "stimulus": "<p id=\"stim\">TABLET</p>", "conditions": [24, 1600, "v", 24000], "internal_node_id": "0.0-160.0", "trial": 5, "time_elapsed": 1069198, "serialpos": 17, "key_press": -1, "wordID": 1426, "type": "PRES_VIS", "trial_index": 214}, "uniqueid": "MTK2667:33OOO72IVISPQ5DJJGGYB7OBEKQCT5", "dateTime": 1519226323777}, {"current_trial": 215, "trialdata": {"rt": -1, "trial_type": "single-stim", "word": "breast", "stimulus": "<p id=\"stim\">BREAST</p>", "conditions": [24, 1600, "v", 24000], "internal_node_id": "0.0-161.0", "trial": 5, "time_elapsed": 1071822, "serialpos": 18, "key_press": -1, "wordID": 170, "type": "PRES_VIS", "trial_index": 215}, "uniqueid": "MTK2667:33OOO72IVISPQ5DJJGGYB7OBEKQCT5", "dateTime": 1519226326401}, {"current_trial": 216, "trialdata": {"rt": -1, "trial_type": "single-stim", "word": "harp", "stimulus": "<p id=\"stim\">HARP</p>", "conditions": [24, 1600, "v", 24000], "internal_node_id": "0.0-162.0", "trial": 5, "time_elapsed": 1074434, "serialpos": 19, "key_press": -1, "wordID": 688, "type": "PRES_VIS", "trial_index": 216}, "uniqueid": "MTK2667:33OOO72IVISPQ5DJJGGYB7OBEKQCT5", "dateTime": 1519226329013}, {"current_trial": 217, "trialdata": {"rt": -1, "trial_type": "single-stim", "word": "sausage", "stimulus": "<p id=\"stim\">SAUSAGE</p>", "conditions": [24, 1600, "v", 24000], "internal_node_id": "0.0-163.0", "trial": 5, "time_elapsed": 1077049, "serialpos": 20, "key_press": -1, "wordID": 1237, "type": "PRES_VIS", "trial_index": 217}, "uniqueid": "MTK2667:33OOO72IVISPQ5DJJGGYB7OBEKQCT5", "dateTime": 1519226331627}, {"current_trial": 218, "trialdata": {"rt": -1, "trial_type": "single-stim", "word": "rocket", "stimulus": "<p id=\"stim\">ROCKET</p>", "conditions": [24, 1600, "v", 24000], "internal_node_id": "0.0-164.0", "trial": 5, "time_elapsed": 1079640, "serialpos": 21, "key_press": -1, "wordID": 1201, "type": "PRES_VIS", "trial_index": 218}, "uniqueid": "MTK2667:33OOO72IVISPQ5DJJGGYB7OBEKQCT5", "dateTime": 1519226334218}, {"current_trial": 219, "trialdata": {"rt": -1, "trial_type": "single-stim", "word": "missile", "stimulus": "<p id=\"stim\">MISSILE</p>", "conditions": [24, 1600, "v", 24000], "internal_node_id": "0.0-165.0", "trial": 5, "time_elapsed": 1082350, "serialpos": 22, "key_press": -1, "wordID": 899, "type": "PRES_VIS", "trial_index": 219}, "uniqueid": "MTK2667:33OOO72IVISPQ5DJJGGYB7OBEKQCT5", "dateTime": 1519226336929}, {"current_trial": 220, "trialdata": {"rt": -1, "trial_type": "single-stim", "word": "cocktail", "stimulus": "<p id=\"stim\">COCKTAIL</p>", "conditions": [24, 1600, "v", 24000], "internal_node_id": "0.0-166.0", "trial": 5, "time_elapsed": 1084908, "serialpos": 23, "key_press": -1, "wordID": 337, "type": "PRES_VIS", "trial_index": 220}, "uniqueid": "MTK2667:33OOO72IVISPQ5DJJGGYB7OBEKQCT5", "dateTime": 1519226339488}, {"current_trial": 221, "trialdata": {"rt": -1, "trial_type": "single-stim", "stimulus": "", "internal_node_id": "0.0-167.0-0.0", "time_elapsed": 1087307, "key_press": -1, "type": "PRE_RECALL_DELAY", "trial_index": 221}, "uniqueid": "MTK2667:33OOO72IVISPQ5DJJGGYB7OBEKQCT5", "dateTime": 1519226341885}, {"current_trial": 222, "trialdata": {"rt": -1000, "trial_type": "single-audio", "stimulus": "/static/audio/400Hz.wav", "internal_node_id": "0.0-168.0", "time_elapsed": 1087809, "key_press": -1, "type": "PRE_RECALL_ALERT", "trial_index": 222}, "uniqueid": "MTK2667:33OOO72IVISPQ5DJJGGYB7OBEKQCT5", "dateTime": 1519226342388}, {"current_trial": 223, "trialdata": {"rt": [1466, 2589, 3873, 4735, 6142, 7454, 8541, 14182, 17924], "recwords": ["chest", "typist", "forehead", "gravel", "brother", "radish", "relish", "pork", "sausage"], "key_times": [678, 976, 1056, 1205, 1276, 1466, 1737, 1817, 1969, 2167, 2317, 2439, 2589, 2844, 2928, 3001, 3092, 3196, 3296, 3605, 3741, 3873, 4018, 4185, 4242, 4373, 4460, 4532, 4735, 5466, 5545, 5670, 5773, 5859, 5926, 5999, 6142, 6701, 6851, 6969, 7068, 7196, 7265, 7454, 7687, 7909, 8042, 8126, 8265, 8364, 8541, 13623, 13809, 13896, 13988, 14182, 17057, 17216, 17328, 17496, 17623, 17742, 17831, 17924], "trial_type": "free-recall", "conditions": [24, 1600, "v", 24000], "internal_node_id": "0.0-169.0-0.0", "key_presses": [67, 72, 69, 83, 84, 13, 84, 89, 80, 73, 83, 84, 13, 70, 79, 82, 69, 72, 69, 65, 68, 13, 71, 82, 65, 86, 69, 76, 13, 66, 82, 79, 84, 72, 69, 82, 13, 82, 65, 68, 73, 83, 72, 13, 82, 69, 76, 73, 83, 72, 13, 80, 79, 82, 75, 13, 83, 65, 85, 83, 65, 71, 69, 13], "trial": 5, "time_elapsed": 1147819, "type": "FREE_RECALL", "trial_index": 223}, "uniqueid": "MTK2667:33OOO72IVISPQ5DJJGGYB7OBEKQCT5", "dateTime": 1519226402411}, {"current_trial": 224, "trialdata": {"rt": 21759, "trial_type": "text", "internal_node_id": "0.0-170.0", "time_elapsed": 1171598, "key_press": 32, "type": "INSTRUCTIONS", "trial_index": 224}, "uniqueid": "MTK2667:33OOO72IVISPQ5DJJGGYB7OBEKQCT5", "dateTime": 1519226426177}, {"current_trial": 225, "trialdata": {"rt": [], "trial_type": "math-distractor", "key_times": [9291, 10976], "responses": [], "num2": [8], "num3": [7], "conditions": [12, 1600, "v", 12000], "internal_node_id": "0.0-171.0", "key_presses": [50, 52], "trial": 6, "time_elapsed": 1185609, "type": "DISTRACTOR", "trial_index": 225, "num1": [9]}, "uniqueid": "MTK2667:33OOO72IVISPQ5DJJGGYB7OBEKQCT5", "dateTime": 1519226440188}, {"current_trial": 226, "trialdata": {"rt": -1, "trial_type": "single-stim", "stimulus": "<p id=\"stim\">10</p>", "internal_node_id": "0.0-172.0-0.0", "time_elapsed": 1188615, "key_press": -1, "trial_index": 226}, "uniqueid": "MTK2667:33OOO72IVISPQ5DJJGGYB7OBEKQCT5", "dateTime": 1519226443194}, {"current_trial": 227, "trialdata": {"rt": -1, "trial_type": "single-stim", "stimulus": "<p id=\"stim\">9</p>", "internal_node_id": "0.0-172.0-1.0", "time_elapsed": 1189621, "key_press": -1, "trial_index": 227}, "uniqueid": "MTK2667:33OOO72IVISPQ5DJJGGYB7OBEKQCT5", "dateTime": 1519226444200}, {"current_trial": 228, "trialdata": {"rt": -1, "trial_type": "single-stim", "stimulus": "<p id=\"stim\">8</p>", "internal_node_id": "0.0-172.0-2.0", "time_elapsed": 1190637, "key_press": -1, "trial_index": 228}, "uniqueid": "MTK2667:33OOO72IVISPQ5DJJGGYB7OBEKQCT5", "dateTime": 1519226445215}, {"current_trial": 229, "trialdata": {"rt": -1, "trial_type": "single-stim", "stimulus": "<p id=\"stim\">7</p>", "internal_node_id": "0.0-172.0-3.0", "time_elapsed": 1191655, "key_press": -1, "trial_index": 229}, "uniqueid": "MTK2667:33OOO72IVISPQ5DJJGGYB7OBEKQCT5", "dateTime": 1519226446233}, {"current_trial": 230, "trialdata": {"rt": -1, "trial_type": "single-stim", "stimulus": "<p id=\"stim\">6</p>", "internal_node_id": "0.0-172.0-4.0", "time_elapsed": 1192657, "key_press": -1, "trial_index": 230}, "uniqueid": "MTK2667:33OOO72IVISPQ5DJJGGYB7OBEKQCT5", "dateTime": 1519226447236}, {"current_trial": 231, "trialdata": {"rt": -1, "trial_type": "single-stim", "stimulus": "<p id=\"stim\">5</p>", "internal_node_id": "0.0-172.0-5.0", "time_elapsed": 1193689, "key_press": -1, "trial_index": 231}, "uniqueid": "MTK2667:33OOO72IVISPQ5DJJGGYB7OBEKQCT5", "dateTime": 1519226448269}, {"current_trial": 232, "trialdata": {"rt": -1, "trial_type": "single-stim", "stimulus": "<p id=\"stim\">4</p>", "internal_node_id": "0.0-172.0-6.0", "time_elapsed": 1194696, "key_press": -1, "trial_index": 232}, "uniqueid": "MTK2667:33OOO72IVISPQ5DJJGGYB7OBEKQCT5", "dateTime": 1519226449276}, {"current_trial": 233, "trialdata": {"rt": -1, "trial_type": "single-stim", "stimulus": "<p id=\"stim\">3</p>", "internal_node_id": "0.0-172.0-7.0", "time_elapsed": 1195710, "key_press": -1, "trial_index": 233}, "uniqueid": "MTK2667:33OOO72IVISPQ5DJJGGYB7OBEKQCT5", "dateTime": 1519226450288}, {"current_trial": 234, "trialdata": {"rt": -1, "trial_type": "single-stim", "stimulus": "<p id=\"stim\">2</p>", "internal_node_id": "0.0-172.0-8.0", "time_elapsed": 1196726, "key_press": -1, "trial_index": 234}, "uniqueid": "MTK2667:33OOO72IVISPQ5DJJGGYB7OBEKQCT5", "dateTime": 1519226451305}, {"current_trial": 235, "trialdata": {"rt": -1, "trial_type": "single-stim", "stimulus": "<p id=\"stim\">1</p>", "internal_node_id": "0.0-172.0-9.0", "time_elapsed": 1197734, "key_press": -1, "trial_index": 235}, "uniqueid": "MTK2667:33OOO72IVISPQ5DJJGGYB7OBEKQCT5", "dateTime": 1519226452312}, {"current_trial": 236, "trialdata": {"rt": -1, "trial_type": "single-stim", "stimulus": "<p id=\"stim\">+</p>", "internal_node_id": "0.0-173.0-0.0", "time_elapsed": 1199236, "key_press": -1, "type": "FIXATION", "trial_index": 236}, "uniqueid": "MTK2667:33OOO72IVISPQ5DJJGGYB7OBEKQCT5", "dateTime": 1519226453815}, {"current_trial": 237, "trialdata": {"rt": -1, "trial_type": "single-stim", "word": "pecan", "stimulus": "<p id=\"stim\">PECAN</p>", "conditions": [12, 1600, "v", 12000], "internal_node_id": "0.0-174.0", "trial": 6, "time_elapsed": 1200851, "serialpos": 0, "key_press": -1, "wordID": 1035, "type": "PRES_VIS", "trial_index": 237}, "uniqueid": "MTK2667:33OOO72IVISPQ5DJJGGYB7OBEKQCT5", "dateTime": 1519226455430}, {"current_trial": 238, "trialdata": {"rt": -1, "trial_type": "single-stim", "word": "soda", "stimulus": "<p id=\"stim\">SODA</p>", "conditions": [12, 1600, "v", 12000], "internal_node_id": "0.0-175.0", "trial": 6, "time_elapsed": 1203328, "serialpos": 1, "key_press": -1, "wordID": 1340, "type": "PRES_VIS", "trial_index": 238}, "uniqueid": "MTK2667:33OOO72IVISPQ5DJJGGYB7OBEKQCT5", "dateTime": 1519226457907}, {"current_trial": 239, "trialdata": {"rt": -1, "trial_type": "single-stim", "word": "luggage", "stimulus": "<p id=\"stim\">LUGGAGE</p>", "conditions": [12, 1600, "v", 12000], "internal_node_id": "0.0-176.0", "trial": 6, "time_elapsed": 1206004, "serialpos": 2, "key_press": -1, "wordID": 846, "type": "PRES_VIS", "trial_index": 239}, "uniqueid": "MTK2667:33OOO72IVISPQ5DJJGGYB7OBEKQCT5", "dateTime": 1519226460583}, {"current_trial": 240, "trialdata": {"rt": -1, "trial_type": "single-stim", "word": "belly", "stimulus": "<p id=\"stim\">BELLY</p>", "conditions": [12, 1600, "v", 12000], "internal_node_id": "0.0-177.0", "trial": 6, "time_elapsed": 1208718, "serialpos": 3, "key_press": -1, "wordID": 118, "type": "PRES_VIS", "trial_index": 240}, "uniqueid": "MTK2667:33OOO72IVISPQ5DJJGGYB7OBEKQCT5", "dateTime": 1519226463297}, {"current_trial": 241, "trialdata": {"rt": -1, "trial_type": "single-stim", "word": "diver", "stimulus": "<p id=\"stim\">DIVER</p>", "conditions": [12, 1600, "v", 12000], "internal_node_id": "0.0-178.0", "trial": 6, "time_elapsed": 1211449, "serialpos": 4, "key_press": -1, "wordID": 475, "type": "PRES_VIS", "trial_index": 241}, "uniqueid": "MTK2667:33OOO72IVISPQ5DJJGGYB7OBEKQCT5", "dateTime": 1519226466027}, {"current_trial": 242, "trialdata": {"rt": -1, "trial_type": "single-stim", "word": "ankle", "stimulus": "<p id=\"stim\">ANKLE</p>", "conditions": [12, 1600, "v", 12000], "internal_node_id": "0.0-179.0", "trial": 6, "time_elapsed": 1213939, "serialpos": 5, "key_press": -1, "wordID": 23, "type": "PRES_VIS", "trial_index": 242}, "uniqueid": "MTK2667:33OOO72IVISPQ5DJJGGYB7OBEKQCT5", "dateTime": 1519226468518}, {"current_trial": 243, "trialdata": {"rt": -1, "trial_type": "single-stim", "word": "shirt", "stimulus": "<p id=\"stim\">SHIRT</p>", "conditions": [12, 1600, "v", 12000], "internal_node_id": "0.0-180.0", "trial": 6, "time_elapsed": 1216725, "serialpos": 6, "key_press": -1, "wordID": 1286, "type": "PRES_VIS", "trial_index": 243}, "uniqueid": "MTK2667:33OOO72IVISPQ5DJJGGYB7OBEKQCT5", "dateTime": 1519226471303}, {"current_trial": 244, "trialdata": {"rt": -1, "trial_type": "single-stim", "word": "peach", "stimulus": "<p id=\"stim\">PEACH</p>", "conditions": [12, 1600, "v", 12000], "internal_node_id": "0.0-181.0", "trial": 6, "time_elapsed": 1219520, "serialpos": 7, "key_press": -1, "wordID": 1030, "type": "PRES_VIS", "trial_index": 244}, "uniqueid": "MTK2667:33OOO72IVISPQ5DJJGGYB7OBEKQCT5", "dateTime": 1519226474098}, {"current_trial": 245, "trialdata": {"rt": -1, "trial_type": "single-stim", "word": "lady", "stimulus": "<p id=\"stim\">LADY</p>", "conditions": [12, 1600, "v", 12000], "internal_node_id": "0.0-182.0", "trial": 6, "time_elapsed": 1221952, "serialpos": 8, "key_press": -1, "wordID": 793, "type": "PRES_VIS", "trial_index": 245}, "uniqueid": "MTK2667:33OOO72IVISPQ5DJJGGYB7OBEKQCT5", "dateTime": 1519226476531}, {"current_trial": 246, "trialdata": {"rt": -1, "trial_type": "single-stim", "word": "woman", "stimulus": "<p id=\"stim\">WOMAN</p>", "conditions": [12, 1600, "v", 12000], "internal_node_id": "0.0-183.0", "trial": 6, "time_elapsed": 1224610, "serialpos": 9, "key_press": -1, "wordID": 1619, "type": "PRES_VIS", "trial_index": 246}, "uniqueid": "MTK2667:33OOO72IVISPQ5DJJGGYB7OBEKQCT5", "dateTime": 1519226479188}, {"current_trial": 247, "trialdata": {"rt": -1, "trial_type": "single-stim", "word": "mailbox", "stimulus": "<p id=\"stim\">MAILBOX</p>", "conditions": [12, 1600, "v", 12000], "internal_node_id": "0.0-184.0", "trial": 6, "time_elapsed": 1227135, "serialpos": 10, "key_press": -1, "wordID": 856, "type": "PRES_VIS", "trial_index": 247}, "uniqueid": "MTK2667:33OOO72IVISPQ5DJJGGYB7OBEKQCT5", "dateTime": 1519226481714}, {"current_trial": 248, "trialdata": {"rt": -1, "trial_type": "single-stim", "word": "apron", "stimulus": "<p id=\"stim\">APRON</p>", "conditions": [12, 1600, "v", 12000], "internal_node_id": "0.0-185.0", "trial": 6, "time_elapsed": 1229752, "serialpos": 11, "key_press": -1, "wordID": 34, "type": "PRES_VIS", "trial_index": 248}, "uniqueid": "MTK2667:33OOO72IVISPQ5DJJGGYB7OBEKQCT5", "dateTime": 1519226484330}, {"current_trial": 249, "trialdata": {"rt": -1, "trial_type": "single-stim", "stimulus": "", "internal_node_id": "0.0-186.0-0.0", "time_elapsed": 1231929, "key_press": -1, "type": "PRE_RECALL_DELAY", "trial_index": 249}, "uniqueid": "MTK2667:33OOO72IVISPQ5DJJGGYB7OBEKQCT5", "dateTime": 1519226486507}, {"current_trial": 250, "trialdata": {"rt": -1000, "trial_type": "single-audio", "stimulus": "/static/audio/400Hz.wav", "internal_node_id": "0.0-187.0", "time_elapsed": 1232432, "key_press": -1, "type": "PRE_RECALL_ALERT", "trial_index": 250}, "uniqueid": "MTK2667:33OOO72IVISPQ5DJJGGYB7OBEKQCT5", "dateTime": 1519226487010}, {"current_trial": 251, "trialdata": {"rt": [2800, 3643, 4674, 5429], "recwords": ["pecan", "diver", "lady", "woman"], "key_times": [1219, 2235, 2417, 2502, 2574, 2800, 3053, 3153, 3270, 3414, 3486, 3643, 4046, 4130, 4261, 4421, 4674, 4785, 4929, 5008, 5147, 5245, 5429], "trial_type": "free-recall", "conditions": [12, 1600, "v", 12000], "internal_node_id": "0.0-188.0-0.0", "key_presses": [80, 69, 67, 65, 78, 13, 68, 73, 86, 69, 82, 13, 76, 65, 68, 89, 13, 8