{"assignmentId": "3TR2532VIQ16WL8DXVPRN19SILFJ6I", "workerId": "MTK2103", "questiondata": {"origin": "United States", "strat-rehearsal": "96", "marital": "Single", "education": "Some graduate education", "ethnicity": "Not Hispanic", "color_depth": 24, "distracted": "No", "wrote-notes": "Yes", "strat-other": "I would recite words as they appear and write down at least one or two from the list and try to associate other words with it.", "screen_width": 1280, "avail_screen_width": 1280, "avail_screen_height": 690, "strat-image": "16", "language": "english", "gender": "Female", "age": "24", "gender_other": "", "race": ["White"], "strat-categorize": "91", "pixel_depth": 24, "strat-spatial": "6", "strat-story": "75", "race_other": "", "screen_height": 800}, "bonus": 0, "hitId": "3VQTAXTYN3SJTT28FJ5BGZ8BVJWUBN", "counterbalance": 2564, "useragent": "Mozilla/5.0 (Macintosh; Intel Mac OS X 10_11_6) AppleWebKit/537.36 (KHTML, like Gecko) Chrome/63.0.3239.132 Safari/537.36", "eventdata": [{"eventtype": "initialized", "interval": 0, "value": null, "timestamp": 1516729012983}, {"eventtype": "window_resize", "interval": 0, "value": [1280, 639], "timestamp": 1516729012983}, {"eventtype": "focus", "interval": 1002272, "value": "off", "timestamp": 1516730015255}, {"eventtype": "focus", "interval": 47852, "value": "on", "timestamp": 1516730063107}, {"eventtype": "focus", "interval": 300664, "value": "off", "timestamp": 1516730363771}, {"eventtype": "focus", "interval": 54894, "value": "on", "timestamp": 1516730418665}, {"eventtype": "focus", "interval": 26637, "value": "off", "timestamp": 1516730445302}, {"eventtype": "focus", "interval": 66669, "value": "on", "timestamp": 1516730511971}, {"eventtype": "focus", "interval": 315416, "value": "off", "timestamp": 1516730827387}, {"eventtype": "focus", "interval": 1, "value": "on", "timestamp": 1516730827388}], "data": [{"current_trial": 0, "trialdata": {"rt": 1328, "trial_type": "text", "internal_node_id": "0.0-0.0", "time_elapsed": 1332, "key_press": 32, "type": "INSTRUCTIONS", "trial_index": 0}, "uniqueid": "MTK2103:3TR2532VIQ16WL8DXVPRN19SILFJ6I", "dateTime": 1516729014976}, {"current_trial": 1, "trialdata": {"rt": 12071, "trial_type": "text", "internal_node_id": "0.0-1.0", "time_elapsed": 13405, "key_press": 32, "type": "INSTRUCTIONS", "trial_index": 1}, "uniqueid": "MTK2103:3TR2532VIQ16WL8DXVPRN19SILFJ6I", "dateTime": 1516729027049}, {"current_trial": 2, "trialdata": {"rt": [17027], "trial_type": "audio-test", "responses": ["ocean"], "internal_node_id": "0.0-2.0", "time_elapsed": 30448, "type": "AUDIO_TEST", "trial_index": 2}, "uniqueid": "MTK2103:3TR2532VIQ16WL8DXVPRN19SILFJ6I", "dateTime": 1516729044091}, {"current_trial": 3, "trialdata": {"rt": [10042], "trial_type": "audio-test", "responses": ["crystal"], "internal_node_id": "0.0-3.0", "time_elapsed": 40497, "type": "AUDIO_TEST", "trial_index": 3}, "uniqueid": "MTK2103:3TR2532VIQ16WL8DXVPRN19SILFJ6I", "dateTime": 1516729054140}, {"current_trial": 4, "trialdata": {"rt": [4951], "trial_type": "audio-test", "responses": ["spice"], "internal_node_id": "0.0-4.0", "time_elapsed": 45455, "type": "AUDIO_TEST", "trial_index": 4}, "uniqueid": "MTK2103:3TR2532VIQ16WL8DXVPRN19SILFJ6I", "dateTime": 1516729059098}, {"current_trial": 5, "trialdata": {"rt": 20765, "trial_type": "survey-text", "responses": "{\"Q0\":\"10:00\",\"Q1\":\"6:00\",\"Q2\":\"4\"}", "internal_node_id": "0.0-5.0", "time_elapsed": 66977, "type": "SLEEP_SURVEY", "trial_index": 5}, "uniqueid": "MTK2103:3TR2532VIQ16WL8DXVPRN19SILFJ6I", "dateTime": 1516729080620}, {"current_trial": 6, "trialdata": {"rt": 33412, "trial_type": "text", "internal_node_id": "0.0-6.0", "time_elapsed": 101391, "key_press": 32, "type": "INSTRUCTIONS", "trial_index": 6}, "uniqueid": "MTK2103:3TR2532VIQ16WL8DXVPRN19SILFJ6I", "dateTime": 1516729115034}, {"current_trial": 7, "trialdata": {"rt": 40518, "trial_type": "text", "internal_node_id": "0.0-7.0", "time_elapsed": 142415, "key_press": 32, "type": "INSTRUCTIONS", "trial_index": 7}, "uniqueid": "MTK2103:3TR2532VIQ16WL8DXVPRN19SILFJ6I", "dateTime": 1516729156058}, {"current_trial": 8, "trialdata": {"rt": 7001, "trial_type": "text", "internal_node_id": "0.0-8.0", "time_elapsed": 149918, "key_press": 32, "type": "INSTRUCTIONS", "trial_index": 8}, "uniqueid": "MTK2103:3TR2532VIQ16WL8DXVPRN19SILFJ6I", "dateTime": 1516729163562}, {"current_trial": 9, "trialdata": {"rt": [2193, 4409, 6505, 9433, 11739, 13776], "trial_type": "math-distractor", "key_times": [1619, 1890, 2193, 3857, 4281, 4409, 6025, 6385, 6505, 8945, 9289, 9433, 11353, 11617, 11739, 13257, 13673, 13776], "responses": ["20", "14", "20", "15", "16", "17"], "num2": [4, 4, 4, 5, 2, 9, 8], "num3": [8, 3, 8, 8, 8, 3, 8], "conditions": [18, 1200, "v", 18000], "internal_node_id": "0.0-9.0", "key_presses": [50, 48, 13, 49, 52, 13, 50, 48, 13, 49, 53, 13, 49, 54, 13, 49, 55, 13], "trial": 0, "time_elapsed": 168925, "type": "DISTRACTOR", "trial_index": 9, "num1": [6, 8, 8, 2, 6, 5, 3]}, "uniqueid": "MTK2103:3TR2532VIQ16WL8DXVPRN19SILFJ6I", "dateTime": 1516729182568}, {"current_trial": 10, "trialdata": {"rt": -1, "trial_type": "single-stim", "stimulus": "<p id=\"stim\">10</p>", "internal_node_id": "0.0-10.0-0.0", "time_elapsed": 171932, "key_press": -1, "trial_index": 10}, "uniqueid": "MTK2103:3TR2532VIQ16WL8DXVPRN19SILFJ6I", "dateTime": 1516729185575}, {"current_trial": 11, "trialdata": {"rt": -1, "trial_type": "single-stim", "stimulus": "<p id=\"stim\">9</p>", "internal_node_id": "0.0-10.0-1.0", "time_elapsed": 172935, "key_press": -1, "trial_index": 11}, "uniqueid": "MTK2103:3TR2532VIQ16WL8DXVPRN19SILFJ6I", "dateTime": 1516729186578}, {"current_trial": 12, "trialdata": {"rt": -1, "trial_type": "single-stim", "stimulus": "<p id=\"stim\">8</p>", "internal_node_id": "0.0-10.0-2.0", "time_elapsed": 173941, "key_press": -1, "trial_index": 12}, "uniqueid": "MTK2103:3TR2532VIQ16WL8DXVPRN19SILFJ6I", "dateTime": 1516729187584}, {"current_trial": 13, "trialdata": {"rt": -1, "trial_type": "single-stim", "stimulus": "<p id=\"stim\">7</p>", "internal_node_id": "0.0-10.0-3.0", "time_elapsed": 174943, "key_press": -1, "trial_index": 13}, "uniqueid": "MTK2103:3TR2532VIQ16WL8DXVPRN19SILFJ6I", "dateTime": 1516729188587}, {"current_trial": 14, "trialdata": {"rt": -1, "trial_type": "single-stim", "stimulus": "<p id=\"stim\">6</p>", "internal_node_id": "0.0-10.0-4.0", "time_elapsed": 175947, "key_press": -1, "trial_index": 14}, "uniqueid": "MTK2103:3TR2532VIQ16WL8DXVPRN19SILFJ6I", "dateTime": 1516729189591}, {"current_trial": 15, "trialdata": {"rt": -1, "trial_type": "single-stim", "stimulus": "<p id=\"stim\">5</p>", "internal_node_id": "0.0-10.0-5.0", "time_elapsed": 176951, "key_press": -1, "trial_index": 15}, "uniqueid": "MTK2103:3TR2532VIQ16WL8DXVPRN19SILFJ6I", "dateTime": 1516729190595}, {"current_trial": 16, "trialdata": {"rt": -1, "trial_type": "single-stim", "stimulus": "<p id=\"stim\">4</p>", "internal_node_id": "0.0-10.0-6.0", "time_elapsed": 177956, "key_press": -1, "trial_index": 16}, "uniqueid": "MTK2103:3TR2532VIQ16WL8DXVPRN19SILFJ6I", "dateTime": 1516729191599}, {"current_trial": 17, "trialdata": {"rt": -1, "trial_type": "single-stim", "stimulus": "<p id=\"stim\">3</p>", "internal_node_id": "0.0-10.0-7.0", "time_elapsed": 178961, "key_press": -1, "trial_index": 17}, "uniqueid": "MTK2103:3TR2532VIQ16WL8DXVPRN19SILFJ6I", "dateTime": 1516729192604}, {"current_trial": 18, "trialdata": {"rt": -1, "trial_type": "single-stim", "stimulus": "<p id=\"stim\">2</p>", "internal_node_id": "0.0-10.0-8.0", "time_elapsed": 179964, "key_press": -1, "trial_index": 18}, "uniqueid": "MTK2103:3TR2532VIQ16WL8DXVPRN19SILFJ6I", "dateTime": 1516729193607}, {"current_trial": 19, "trialdata": {"rt": -1, "trial_type": "single-stim", "stimulus": "<p id=\"stim\">1</p>", "internal_node_id": "0.0-10.0-9.0", "time_elapsed": 180970, "key_press": -1, "trial_index": 19}, "uniqueid": "MTK2103:3TR2532VIQ16WL8DXVPRN19SILFJ6I", "dateTime": 1516729194613}, {"current_trial": 20, "trialdata": {"rt": -1, "trial_type": "single-stim", "stimulus": "<p id=\"stim\">+</p>", "internal_node_id": "0.0-11.0-0.0", "time_elapsed": 182477, "key_press": -1, "type": "FIXATION", "trial_index": 20}, "uniqueid": "MTK2103:3TR2532VIQ16WL8DXVPRN19SILFJ6I", "dateTime": 1516729196120}, {"current_trial": 21, "trialdata": {"rt": -1, "trial_type": "single-stim", "word": "flipper", "stimulus": "<p id=\"stim\">FLIPPER</p>", "conditions": [18, 1200, "v", 18000], "internal_node_id": "0.0-12.0", "trial": 0, "time_elapsed": 183683, "serialpos": 0, "key_press": -1, "wordID": 579, "type": "PRES_VIS", "trial_index": 21}, "uniqueid": "MTK2103:3TR2532VIQ16WL8DXVPRN19SILFJ6I", "dateTime": 1516729197326}, {"current_trial": 22, "trialdata": {"rt": -1, "trial_type": "single-stim", "word": "seagull", "stimulus": "<p id=\"stim\">SEAGULL</p>", "conditions": [18, 1200, "v", 18000], "internal_node_id": "0.0-13.0", "trial": 0, "time_elapsed": 185797, "serialpos": 1, "key_press": -1, "wordID": 1260, "type": "PRES_VIS", "trial_index": 22}, "uniqueid": "MTK2103:3TR2532VIQ16WL8DXVPRN19SILFJ6I", "dateTime": 1516729199440}, {"current_trial": 23, "trialdata": {"rt": -1, "trial_type": "single-stim", "word": "lagoon", "stimulus": "<p id=\"stim\">LAGOON</p>", "conditions": [18, 1200, "v", 18000], "internal_node_id": "0.0-14.0", "trial": 0, "time_elapsed": 188060, "serialpos": 2, "key_press": -1, "wordID": 794, "type": "PRES_VIS", "trial_index": 23}, "uniqueid": "MTK2103:3TR2532VIQ16WL8DXVPRN19SILFJ6I", "dateTime": 1516729201703}, {"current_trial": 24, "trialdata": {"rt": -1, "trial_type": "single-stim", "word": "author", "stimulus": "<p id=\"stim\">AUTHOR</p>", "conditions": [18, 1200, "v", 18000], "internal_node_id": "0.0-15.0", "trial": 0, "time_elapsed": 190115, "serialpos": 3, "key_press": -1, "wordID": 60, "type": "PRES_VIS", "trial_index": 24}, "uniqueid": "MTK2103:3TR2532VIQ16WL8DXVPRN19SILFJ6I", "dateTime": 1516729203758}, {"current_trial": 25, "trialdata": {"rt": -1, "trial_type": "single-stim", "word": "pimple", "stimulus": "<p id=\"stim\">PIMPLE</p>", "conditions": [18, 1200, "v", 18000], "internal_node_id": "0.0-16.0", "trial": 0, "time_elapsed": 192419, "serialpos": 4, "key_press": -1, "wordID": 1070, "type": "PRES_VIS", "trial_index": 25}, "uniqueid": "MTK2103:3TR2532VIQ16WL8DXVPRN19SILFJ6I", "dateTime": 1516729206062}, {"current_trial": 26, "trialdata": {"rt": -1, "trial_type": "single-stim", "word": "smog", "stimulus": "<p id=\"stim\">SMOG</p>", "conditions": [18, 1200, "v", 18000], "internal_node_id": "0.0-17.0", "trial": 0, "time_elapsed": 194462, "serialpos": 5, "key_press": -1, "wordID": 1329, "type": "PRES_VIS", "trial_index": 26}, "uniqueid": "MTK2103:3TR2532VIQ16WL8DXVPRN19SILFJ6I", "dateTime": 1516729208105}, {"current_trial": 27, "trialdata": {"rt": -1, "trial_type": "single-stim", "word": "pasta", "stimulus": "<p id=\"stim\">PASTA</p>", "conditions": [18, 1200, "v", 18000], "internal_node_id": "0.0-18.0", "trial": 0, "time_elapsed": 196510, "serialpos": 6, "key_press": -1, "wordID": 1020, "type": "PRES_VIS", "trial_index": 27}, "uniqueid": "MTK2103:3TR2532VIQ16WL8DXVPRN19SILFJ6I", "dateTime": 1516729210154}, {"current_trial": 28, "trialdata": {"rt": -1, "trial_type": "single-stim", "word": "taxi", "stimulus": "<p id=\"stim\">TAXI</p>", "conditions": [18, 1200, "v", 18000], "internal_node_id": "0.0-19.0", "trial": 0, "time_elapsed": 198681, "serialpos": 7, "key_press": -1, "wordID": 1437, "type": "PRES_VIS", "trial_index": 28}, "uniqueid": "MTK2103:3TR2532VIQ16WL8DXVPRN19SILFJ6I", "dateTime": 1516729212324}, {"current_trial": 29, "trialdata": {"rt": -1, "trial_type": "single-stim", "word": "convict", "stimulus": "<p id=\"stim\">CONVICT</p>", "conditions": [18, 1200, "v", 18000], "internal_node_id": "0.0-20.0", "trial": 0, "time_elapsed": 200962, "serialpos": 8, "key_press": -1, "wordID": 370, "type": "PRES_VIS", "trial_index": 29}, "uniqueid": "MTK2103:3TR2532VIQ16WL8DXVPRN19SILFJ6I", "dateTime": 1516729214605}, {"current_trial": 30, "trialdata": {"rt": -1, "trial_type": "single-stim", "word": "daughter", "stimulus": "<p id=\"stim\">DAUGHTER</p>", "conditions": [18, 1200, "v", 18000], "internal_node_id": "0.0-21.0", "trial": 0, "time_elapsed": 203057, "serialpos": 9, "key_press": -1, "wordID": 441, "type": "PRES_VIS", "trial_index": 30}, "uniqueid": "MTK2103:3TR2532VIQ16WL8DXVPRN19SILFJ6I", "dateTime": 1516729216700}, {"current_trial": 31, "trialdata": {"rt": -1, "trial_type": "single-stim", "word": "briefcase", "stimulus": "<p id=\"stim\">BRIEFCASE</p>", "conditions": [18, 1200, "v", 18000], "internal_node_id": "0.0-22.0", "trial": 0, "time_elapsed": 205376, "serialpos": 10, "key_press": -1, "wordID": 174, "type": "PRES_VIS", "trial_index": 31}, "uniqueid": "MTK2103:3TR2532VIQ16WL8DXVPRN19SILFJ6I", "dateTime": 1516729219019}, {"current_trial": 32, "trialdata": {"rt": -1, "trial_type": "single-stim", "word": "frame", "stimulus": "<p id=\"stim\">FRAME</p>", "conditions": [18, 1200, "v", 18000], "internal_node_id": "0.0-23.0", "trial": 0, "time_elapsed": 207687, "serialpos": 11, "key_press": -1, "wordID": 599, "type": "PRES_VIS", "trial_index": 32}, "uniqueid": "MTK2103:3TR2532VIQ16WL8DXVPRN19SILFJ6I", "dateTime": 1516729221330}, {"current_trial": 33, "trialdata": {"rt": -1, "trial_type": "single-stim", "word": "cabin", "stimulus": "<p id=\"stim\">CABIN</p>", "conditions": [18, 1200, "v", 18000], "internal_node_id": "0.0-24.0", "trial": 0, "time_elapsed": 209830, "serialpos": 12, "key_press": -1, "wordID": 210, "type": "PRES_VIS", "trial_index": 33}, "uniqueid": "MTK2103:3TR2532VIQ16WL8DXVPRN19SILFJ6I", "dateTime": 1516729223473}, {"current_trial": 34, "trialdata": {"rt": -1, "trial_type": "single-stim", "word": "skillet", "stimulus": "<p id=\"stim\">SKILLET</p>", "conditions": [18, 1200, "v", 18000], "internal_node_id": "0.0-25.0", "trial": 0, "time_elapsed": 212007, "serialpos": 13, "key_press": -1, "wordID": 1316, "type": "PRES_VIS", "trial_index": 34}, "uniqueid": "MTK2103:3TR2532VIQ16WL8DXVPRN19SILFJ6I", "dateTime": 1516729225650}, {"current_trial": 35, "trialdata": {"rt": -1, "trial_type": "single-stim", "word": "rattle", "stimulus": "<p id=\"stim\">RATTLE</p>", "conditions": [18, 1200, "v", 18000], "internal_node_id": "0.0-26.0", "trial": 0, "time_elapsed": 214262, "serialpos": 14, "key_press": -1, "wordID": 1169, "type": "PRES_VIS", "trial_index": 35}, "uniqueid": "MTK2103:3TR2532VIQ16WL8DXVPRN19SILFJ6I", "dateTime": 1516729227905}, {"current_trial": 36, "trialdata": {"rt": -1, "trial_type": "single-stim", "word": "shortcake", "stimulus": "<p id=\"stim\">SHORTCAKE</p>", "conditions": [18, 1200, "v", 18000], "internal_node_id": "0.0-27.0", "trial": 0, "time_elapsed": 216369, "serialpos": 15, "key_press": -1, "wordID": 1291, "type": "PRES_VIS", "trial_index": 36}, "uniqueid": "MTK2103:3TR2532VIQ16WL8DXVPRN19SILFJ6I", "dateTime": 1516729230012}, {"current_trial": 37, "trialdata": {"rt": -1, "trial_type": "single-stim", "word": "actor", "stimulus": "<p id=\"stim\">ACTOR</p>", "conditions": [18, 1200, "v", 18000], "internal_node_id": "0.0-28.0", "trial": 0, "time_elapsed": 218745, "serialpos": 16, "key_press": -1, "wordID": 4, "type": "PRES_VIS", "trial_index": 37}, "uniqueid": "MTK2103:3TR2532VIQ16WL8DXVPRN19SILFJ6I", "dateTime": 1516729232388}, {"current_trial": 38, "trialdata": {"rt": -1, "trial_type": "single-stim", "word": "tutu", "stimulus": "<p id=\"stim\">TUTU</p>", "conditions": [18, 1200, "v", 18000], "internal_node_id": "0.0-29.0", "trial": 0, "time_elapsed": 221113, "serialpos": 17, "key_press": -1, "wordID": 1523, "type": "PRES_VIS", "trial_index": 38}, "uniqueid": "MTK2103:3TR2532VIQ16WL8DXVPRN19SILFJ6I", "dateTime": 1516729234756}, {"current_trial": 39, "trialdata": {"rt": -1, "trial_type": "single-stim", "stimulus": "", "internal_node_id": "0.0-30.0-0.0", "time_elapsed": 223516, "key_press": -1, "type": "PRE_RECALL_DELAY", "trial_index": 39}, "uniqueid": "MTK2103:3TR2532VIQ16WL8DXVPRN19SILFJ6I", "dateTime": 1516729237159}, {"current_trial": 40, "trialdata": {"rt": -1000, "trial_type": "single-audio", "stimulus": "/static/audio/400Hz.wav", "internal_node_id": "0.0-31.0", "time_elapsed": 224019, "key_press": -1, "type": "PRE_RECALL_ALERT", "trial_index": 40}, "uniqueid": "MTK2103:3TR2532VIQ16WL8DXVPRN19SILFJ6I", "dateTime": 1516729237662}, {"current_trial": 41, "trialdata": {"rt": [4187, 6355, 7619, 9355, 11114, 12907, 18505], "recwords": ["smog", "briefcase", "taxi", "seagull", "flipper", "lagoon", "taxi"], "key_times": [1844, 2218, 2747, 2931, 3019, 3187, 3763, 4027, 4187, 4706, 4818, 4939, 5219, 5459, 5691, 5843, 6067, 6210, 6355, 6499, 6659, 7251, 7379, 7619, 7930, 8131, 8315, 8515, 8794, 9019, 9179, 9355, 9603, 9730, 9931, 10563, 10762, 10843, 10954, 11114, 11362, 11515, 11738, 11835, 12020, 12195, 12907, 17665, 17809, 18233, 18337, 18505], "trial_type": "free-recall", "conditions": [18, 1200, "v", 18000], "internal_node_id": "0.0-32.0-0.0", "key_presses": [65, 8, 83, 77, 79, 72, 8, 71, 13, 66, 82, 73, 69, 70, 67, 65, 83, 69, 13, 84, 65, 88, 73, 13, 83, 69, 65, 71, 85, 76, 76, 13, 70, 76, 73, 80, 80, 69, 82, 13, 76, 65, 71, 79, 79, 78, 13, 84, 65, 88, 73, 13], "trial": 0, "time_elapsed": 284026, "type": "FREE_RECALL", "trial_index": 41}, "uniqueid": "MTK2103:3TR2532VIQ16WL8DXVPRN19SILFJ6I", "dateTime": 1516729297671}, {"current_trial": 42, "trialdata": {"rt": 16496, "trial_type": "text", "internal_node_id": "0.0-33.0", "time_elapsed": 302529, "key_press": 32, "type": "INSTRUCTIONS", "trial_index": 42}, "uniqueid": "MTK2103:3TR2532VIQ16WL8DXVPRN19SILFJ6I", "dateTime": 1516729316172}, {"current_trial": 43, "trialdata": {"rt": [3232, 7591, 12650, 17202], "trial_type": "math-distractor", "key_times": [2400, 2568, 3232, 6872, 7591, 11347, 11482, 12650, 16826, 17050, 17202], "responses": ["19", "6", "11", "19"], "num2": [8, 1, 9, 5, 1], "num3": [2, 1, 1, 7, 2], "conditions": [18, 1200, "v", 18000], "internal_node_id": "0.0-34.0", "key_presses": [49, 57, 13, 54, 13, 49, 49, 13, 49, 57, 13], "trial": 1, "time_elapsed": 322540, "type": "DISTRACTOR", "trial_index": 43, "num1": [9, 4, 7, 9, 8]}, "uniqueid": "MTK2103:3TR2532VIQ16WL8DXVPRN19SILFJ6I", "dateTime": 1516729336183}, {"current_trial": 44, "trialdata": {"rt": -1, "trial_type": "single-stim", "stimulus": "<p id=\"stim\">10</p>", "internal_node_id": "0.0-35.0-0.0", "time_elapsed": 325545, "key_press": -1, "trial_index": 44}, "uniqueid": "MTK2103:3TR2532VIQ16WL8DXVPRN19SILFJ6I", "dateTime": 1516729339188}, {"current_trial": 45, "trialdata": {"rt": -1, "trial_type": "single-stim", "stimulus": "<p id=\"stim\">9</p>", "internal_node_id": "0.0-35.0-1.0", "time_elapsed": 326549, "key_press": -1, "trial_index": 45}, "uniqueid": "MTK2103:3TR2532VIQ16WL8DXVPRN19SILFJ6I", "dateTime": 1516729340193}, {"current_trial": 46, "trialdata": {"rt": -1, "trial_type": "single-stim", "stimulus": "<p id=\"stim\">8</p>", "internal_node_id": "0.0-35.0-2.0", "time_elapsed": 327554, "key_press": -1, "trial_index": 46}, "uniqueid": "MTK2103:3TR2532VIQ16WL8DXVPRN19SILFJ6I", "dateTime": 1516729341197}, {"current_trial": 47, "trialdata": {"rt": -1, "trial_type": "single-stim", "stimulus": "<p id=\"stim\">7</p>", "internal_node_id": "0.0-35.0-3.0", "time_elapsed": 328557, "key_press": -1, "trial_index": 47}, "uniqueid": "MTK2103:3TR2532VIQ16WL8DXVPRN19SILFJ6I", "dateTime": 1516729342201}, {"current_trial": 48, "trialdata": {"rt": -1, "trial_type": "single-stim", "stimulus": "<p id=\"stim\">6</p>", "internal_node_id": "0.0-35.0-4.0", "time_elapsed": 329561, "key_press": -1, "trial_index": 48}, "uniqueid": "MTK2103:3TR2532VIQ16WL8DXVPRN19SILFJ6I", "dateTime": 1516729343204}, {"current_trial": 49, "trialdata": {"rt": -1, "trial_type": "single-stim", "stimulus": "<p id=\"stim\">5</p>", "internal_node_id": "0.0-35.0-5.0", "time_elapsed": 330565, "key_press": -1, "trial_index": 49}, "uniqueid": "MTK2103:3TR2532VIQ16WL8DXVPRN19SILFJ6I", "dateTime": 1516729344209}, {"current_trial": 50, "trialdata": {"rt": -1, "trial_type": "single-stim", "stimulus": "<p id=\"stim\">4</p>", "internal_node_id": "0.0-35.0-6.0", "time_elapsed": 331570, "key_press": -1, "trial_index": 50}, "uniqueid": "MTK2103:3TR2532VIQ16WL8DXVPRN19SILFJ6I", "dateTime": 1516729345213}, {"current_trial": 51, "trialdata": {"rt": -1, "trial_type": "single-stim", "stimulus": "<p id=\"stim\">3</p>", "internal_node_id": "0.0-35.0-7.0", "time_elapsed": 332574, "key_press": -1, "trial_index": 51}, "uniqueid": "MTK2103:3TR2532VIQ16WL8DXVPRN19SILFJ6I", "dateTime": 1516729346217}, {"current_trial": 52, "trialdata": {"rt": -1, "trial_type": "single-stim", "stimulus": "<p id=\"stim\">2</p>", "internal_node_id": "0.0-35.0-8.0", "time_elapsed": 333578, "key_press": -1, "trial_index": 52}, "uniqueid": "MTK2103:3TR2532VIQ16WL8DXVPRN19SILFJ6I", "dateTime": 1516729347221}, {"current_trial": 53, "trialdata": {"rt": -1, "trial_type": "single-stim", "stimulus": "<p id=\"stim\">1</p>", "internal_node_id": "0.0-35.0-9.0", "time_elapsed": 334582, "key_press": -1, "trial_index": 53}, "uniqueid": "MTK2103:3TR2532VIQ16WL8DXVPRN19SILFJ6I", "dateTime": 1516729348225}, {"current_trial": 54, "trialdata": {"rt": -1, "trial_type": "single-stim", "stimulus": "<p id=\"stim\">+</p>", "internal_node_id": "0.0-36.0-0.0", "time_elapsed": 336085, "key_press": -1, "type": "FIXATION", "trial_index": 54}, "uniqueid": "MTK2103:3TR2532VIQ16WL8DXVPRN19SILFJ6I", "dateTime": 1516729349729}, {"current_trial": 55, "trialdata": {"rt": -1, "trial_type": "single-stim", "word": "thread", "stimulus": "<p id=\"stim\">THREAD</p>", "conditions": [18, 1200, "v", 18000], "internal_node_id": "0.0-37.0", "trial": 1, "time_elapsed": 337292, "serialpos": 0, "key_press": -1, "wordID": 1459, "type": "PRES_VIS", "trial_index": 55}, "uniqueid": "MTK2103:3TR2532VIQ16WL8DXVPRN19SILFJ6I", "dateTime": 1516729350935}, {"current_trial": 56, "trialdata": {"rt": -1, "trial_type": "single-stim", "word": "dentist", "stimulus": "<p id=\"stim\">DENTIST</p>", "conditions": [18, 1200, "v", 18000], "internal_node_id": "0.0-38.0", "trial": 1, "time_elapsed": 339376, "serialpos": 1, "key_press": -1, "wordID": 446, "type": "PRES_VIS", "trial_index": 56}, "uniqueid": "MTK2103:3TR2532VIQ16WL8DXVPRN19SILFJ6I", "dateTime": 1516729353019}, {"current_trial": 57, "trialdata": {"rt": -1, "trial_type": "single-stim", "word": "cocktail", "stimulus": "<p id=\"stim\">COCKTAIL</p>", "conditions": [18, 1200, "v", 18000], "internal_node_id": "0.0-39.0", "trial": 1, "time_elapsed": 341518, "serialpos": 2, "key_press": -1, "wordID": 337, "type": "PRES_VIS", "trial_index": 57}, "uniqueid": "MTK2103:3TR2532VIQ16WL8DXVPRN19SILFJ6I", "dateTime": 1516729355161}, {"current_trial": 58, "trialdata": {"rt": -1, "trial_type": "single-stim", "word": "diner", "stimulus": "<p id=\"stim\">DINER</p>", "conditions": [18, 1200, "v", 18000], "internal_node_id": "0.0-40.0", "trial": 1, "time_elapsed": 343924, "serialpos": 3, "key_press": -1, "wordID": 466, "type": "PRES_VIS", "trial_index": 58}, "uniqueid": "MTK2103:3TR2532VIQ16WL8DXVPRN19SILFJ6I", "dateTime": 1516729357567}, {"current_trial": 59, "trialdata": {"rt": -1, "trial_type": "single-stim", "word": "icing", "stimulus": "<p id=\"stim\">ICING</p>", "conditions": [18, 1200, "v", 18000], "internal_node_id": "0.0-41.0", "trial": 1, "time_elapsed": 346329, "serialpos": 4, "key_press": -1, "wordID": 731, "type": "PRES_VIS", "trial_index": 59}, "uniqueid": "MTK2103:3TR2532VIQ16WL8DXVPRN19SILFJ6I", "dateTime": 1516729359972}, {"current_trial": 60, "trialdata": {"rt": -1, "trial_type": "single-stim", "word": "star", "stimulus": "<p id=\"stim\">STAR</p>", "conditions": [18, 1200, "v", 18000], "internal_node_id": "0.0-42.0", "trial": 1, "time_elapsed": 348499, "serialpos": 5, "key_press": -1, "wordID": 1372, "type": "PRES_VIS", "trial_index": 60}, "uniqueid": "MTK2103:3TR2532VIQ16WL8DXVPRN19SILFJ6I", "dateTime": 1516729362143}, {"current_trial": 61, "trialdata": {"rt": -1, "trial_type": "single-stim", "word": "hedge", "stimulus": "<p id=\"stim\">HEDGE</p>", "conditions": [18, 1200, "v", 18000], "internal_node_id": "0.0-43.0", "trial": 1, "time_elapsed": 350833, "serialpos": 6, "key_press": -1, "wordID": 698, "type": "PRES_VIS", "trial_index": 61}, "uniqueid": "MTK2103:3TR2532VIQ16WL8DXVPRN19SILFJ6I", "dateTime": 1516729364476}, {"current_trial": 62, "trialdata": {"rt": -1, "trial_type": "single-stim", "word": "comet", "stimulus": "<p id=\"stim\">COMET</p>", "conditions": [18, 1200, "v", 18000], "internal_node_id": "0.0-44.0", "trial": 1, "time_elapsed": 353021, "serialpos": 7, "key_press": -1, "wordID": 352, "type": "PRES_VIS", "trial_index": 62}, "uniqueid": "MTK2103:3TR2532VIQ16WL8DXVPRN19SILFJ6I", "dateTime": 1516729366664}, {"current_trial": 63, "trialdata": {"rt": -1, "trial_type": "single-stim", "word": "cousin", "stimulus": "<p id=\"stim\">COUSIN</p>", "conditions": [18, 1200, "v", 18000], "internal_node_id": "0.0-45.0", "trial": 1, "time_elapsed": 355261, "serialpos": 8, "key_press": -1, "wordID": 391, "type": "PRES_VIS", "trial_index": 63}, "uniqueid": "MTK2103:3TR2532VIQ16WL8DXVPRN19SILFJ6I", "dateTime": 1516729368904}, {"current_trial": 64, "trialdata": {"rt": -1, "trial_type": "single-stim", "word": "igloo", "stimulus": "<p id=\"stim\">IGLOO</p>", "conditions": [18, 1200, "v", 18000], "internal_node_id": "0.0-46.0", "trial": 1, "time_elapsed": 357490, "serialpos": 9, "key_press": -1, "wordID": 733, "type": "PRES_VIS", "trial_index": 64}, "uniqueid": "MTK2103:3TR2532VIQ16WL8DXVPRN19SILFJ6I", "dateTime": 1516729371133}, {"current_trial": 65, "trialdata": {"rt": -1, "trial_type": "single-stim", "word": "jury", "stimulus": "<p id=\"stim\">JURY</p>", "conditions": [18, 1200, "v", 18000], "internal_node_id": "0.0-47.0", "trial": 1, "time_elapsed": 359585, "serialpos": 10, "key_press": -1, "wordID": 765, "type": "PRES_VIS", "trial_index": 65}, "uniqueid": "MTK2103:3TR2532VIQ16WL8DXVPRN19SILFJ6I", "dateTime": 1516729373228}, {"current_trial": 66, "trialdata": {"rt": -1, "trial_type": "single-stim", "word": "apron", "stimulus": "<p id=\"stim\">APRON</p>", "conditions": [18, 1200, "v", 18000], "internal_node_id": "0.0-48.0", "trial": 1, "time_elapsed": 361964, "serialpos": 11, "key_press": -1, "wordID": 34, "type": "PRES_VIS", "trial_index": 66}, "uniqueid": "MTK2103:3TR2532VIQ16WL8DXVPRN19SILFJ6I", "dateTime": 1516729375608}, {"current_trial": 67, "trialdata": {"rt": -1, "trial_type": "single-stim", "word": "partner", "stimulus": "<p id=\"stim\">PARTNER</p>", "conditions": [18, 1200, "v", 18000], "internal_node_id": "0.0-49.0", "trial": 1, "time_elapsed": 363978, "serialpos": 12, "key_press": -1, "wordID": 1016, "type": "PRES_VIS", "trial_index": 67}, "uniqueid": "MTK2103:3TR2532VIQ16WL8DXVPRN19SILFJ6I", "dateTime": 1516729377621}, {"current_trial": 68, "trialdata": {"rt": -1, "trial_type": "single-stim", "word": "sketch", "stimulus": "<p id=\"stim\">SKETCH</p>", "conditions": [18, 1200, "v", 18000], "internal_node_id": "0.0-50.0", "trial": 1, "time_elapsed": 366334, "serialpos": 13, "key_press": -1, "wordID": 1314, "type": "PRES_VIS", "trial_index": 68}, "uniqueid": "MTK2103:3TR2532VIQ16WL8DXVPRN19SILFJ6I", "dateTime": 1516729379980}, {"current_trial": 69, "trialdata": {"rt": -1, "trial_type": "single-stim", "word": "whistle", "stimulus": "<p id=\"stim\">WHISTLE</p>", "conditions": [18, 1200, "v", 18000], "internal_node_id": "0.0-51.0", "trial": 1, "time_elapsed": 368610, "serialpos": 14, "key_press": -1, "wordID": 1605, "type": "PRES_VIS", "trial_index": 69}, "uniqueid": "MTK2103:3TR2532VIQ16WL8DXVPRN19SILFJ6I", "dateTime": 1516729382253}, {"current_trial": 70, "trialdata": {"rt": -1, "trial_type": "single-stim", "word": "postage", "stimulus": "<p id=\"stim\">POSTAGE</p>", "conditions": [18, 1200, "v", 18000], "internal_node_id": "0.0-52.0", "trial": 1, "time_elapsed": 371001, "serialpos": 15, "key_press": -1, "wordID": 1112, "type": "PRES_VIS", "trial_index": 70}, "uniqueid": "MTK2103:3TR2532VIQ16WL8DXVPRN19SILFJ6I", "dateTime": 1516729384644}, {"current_trial": 71, "trialdata": {"rt": -1, "trial_type": "single-stim", "word": "venus", "stimulus": "<p id=\"stim\">VENUS</p>", "conditions": [18, 1200, "v", 18000], "internal_node_id": "0.0-53.0", "trial": 1, "time_elapsed": 373119, "serialpos": 16, "key_press": -1, "wordID": 1556, "type": "PRES_VIS", "trial_index": 71}, "uniqueid": "MTK2103:3TR2532VIQ16WL8DXVPRN19SILFJ6I", "dateTime": 1516729386763}, {"current_trial": 72, "trialdata": {"rt": -1, "trial_type": "single-stim", "word": "bison", "stimulus": "<p id=\"stim\">BISON</p>", "conditions": [18, 1200, "v", 18000], "internal_node_id": "0.0-54.0", "trial": 1, "time_elapsed": 375185, "serialpos": 17, "key_press": -1, "wordID": 130, "type": "PRES_VIS", "trial_index": 72}, "uniqueid": "MTK2103:3TR2532VIQ16WL8DXVPRN19SILFJ6I", "dateTime": 1516729388829}, {"current_trial": 73, "trialdata": {"rt": -1, "trial_type": "single-stim", "stimulus": "", "internal_node_id": "0.0-55.0-0.0", "time_elapsed": 377460, "key_press": -1, "type": "PRE_RECALL_DELAY", "trial_index": 73}, "uniqueid": "MTK2103:3TR2532VIQ16WL8DXVPRN19SILFJ6I", "dateTime": 1516729391104}, {"current_trial": 74, "trialdata": {"rt": -1000, "trial_type": "single-audio", "stimulus": "/static/audio/400Hz.wav", "internal_node_id": "0.0-56.0", "time_elapsed": 377963, "key_press": -1, "type": "PRE_RECALL_ALERT", "trial_index": 74}, "uniqueid": "MTK2103:3TR2532VIQ16WL8DXVPRN19SILFJ6I", "dateTime": 1516729391606}, {"current_trial": 75, "trialdata": {"rt": [3565, 6285, 7685, 12821, 17244, 19819], "recwords": ["whistle", "taxi", "campaign", "thread", "hope", "seagull"], "key_times": [2231, 2469, 2574, 2749, 2989, 3149, 3381, 3565, 5197, 5541, 6086, 6181, 6285, 6669, 6766, 6925, 7005, 7085, 7253, 7357, 7477, 7685, 11709, 11926, 12221, 12350, 12573, 12701, 12821, 16659, 16820, 16940, 17107, 17244, 18380, 18563, 18739, 18891, 18996, 19283, 19627, 19819], "trial_type": "free-recall", "conditions": [18, 1200, "v", 18000], "internal_node_id": "0.0-57.0-0.0", "key_presses": [87, 72, 73, 83, 84, 76, 69, 13, 84, 65, 88, 73, 13, 67, 65, 77, 80, 65, 73, 71, 78, 13, 84, 72, 82, 69, 65, 68, 13, 72, 79, 80, 69, 13, 83, 69, 65, 71, 85, 76, 76, 13], "trial": 1, "time_elapsed": 437966, "type": "FREE_RECALL", "trial_index": 75}, "uniqueid": "MTK2103:3TR2532VIQ16WL8DXVPRN19SILFJ6I", "dateTime": 1516729451612}, {"current_trial": 76, "trialdata": {"rt": 57154, "trial_type": "text", "internal_node_id": "0.0-58.0", "time_elapsed": 497129, "key_press": 32, "type": "INSTRUCTIONS", "trial_index": 76}, "uniqueid": "MTK2103:3TR2532VIQ16WL8DXVPRN19SILFJ6I", "dateTime": 1516729510772}, {"current_trial": 77, "trialdata": {"rt": [4544], "trial_type": "math-distractor", "key_times": [3704, 3848, 4544], "responses": ["13"], "num2": [3, 5], "num3": [2, 9], "conditions": [12, 1600, "v", 12000], "internal_node_id": "0.0-59.0", "key_presses": [49, 51, 13], "trial": 2, "time_elapsed": 510139, "type": "DISTRACTOR", "trial_index": 77, "num1": [8, 3]}, "uniqueid": "MTK2103:3TR2532VIQ16WL8DXVPRN19SILFJ6I", "dateTime": 1516729523782}, {"current_trial": 78, "trialdata": {"rt": -1, "trial_type": "single-stim", "stimulus": "<p id=\"stim\">10</p>", "internal_node_id": "0.0-60.0-0.0", "time_elapsed": 513148, "key_press": -1, "trial_index": 78}, "uniqueid": "MTK2103:3TR2532VIQ16WL8DXVPRN19SILFJ6I", "dateTime": 1516729526792}, {"current_trial": 79, "trialdata": {"rt": -1, "trial_type": "single-stim", "stimulus": "<p id=\"stim\">9</p>", "internal_node_id": "0.0-60.0-1.0", "time_elapsed": 514153, "key_press": -1, "trial_index": 79}, "uniqueid": "MTK2103:3TR2532VIQ16WL8DXVPRN19SILFJ6I", "dateTime": 1516729527796}, {"current_trial": 80, "trialdata": {"rt": -1, "trial_type": "single-stim", "stimulus": "<p id=\"stim\">8</p>", "internal_node_id": "0.0-60.0-2.0", "time_elapsed": 515156, "key_press": -1, "trial_index": 80}, "uniqueid": "MTK2103:3TR2532VIQ16WL8DXVPRN19SILFJ6I", "dateTime": 1516729528799}, {"current_trial": 81, "trialdata": {"rt": -1, "trial_type": "single-stim", "stimulus": "<p id=\"stim\">7</p>", "internal_node_id": "0.0-60.0-3.0", "time_elapsed": 516161, "key_press": -1, "trial_index": 81}, "uniqueid": "MTK2103:3TR2532VIQ16WL8DXVPRN19SILFJ6I", "dateTime": 1516729529804}, {"current_trial": 82, "trialdata": {"rt": -1, "trial_type": "single-stim", "stimulus": "<p id=\"stim\">6</p>", "internal_node_id": "0.0-60.0-4.0", "time_elapsed": 517165, "key_press": -1, "trial_index": 82}, "uniqueid": "MTK2103:3TR2532VIQ16WL8DXVPRN19SILFJ6I", "dateTime": 1516729530808}, {"current_trial": 83, "trialdata": {"rt": -1, "trial_type": "single-stim", "stimulus": "<p id=\"stim\">5</p>", "internal_node_id": "0.0-60.0-5.0", "time_elapsed": 518169, "key_press": -1, "trial_index": 83}, "uniqueid": "MTK2103:3TR2532VIQ16WL8DXVPRN19SILFJ6I", "dateTime": 1516729531812}, {"current_trial": 84, "trialdata": {"rt": -1, "trial_type": "single-stim", "stimulus": "<p id=\"stim\">4</p>", "internal_node_id": "0.0-60.0-6.0", "time_elapsed": 519174, "key_press": -1, "trial_index": 84}, "uniqueid": "MTK2103:3TR2532VIQ16WL8DXVPRN19SILFJ6I", "dateTime": 1516729532817}, {"current_trial": 85, "trialdata": {"rt": -1, "trial_type": "single-stim", "stimulus": "<p id=\"stim\">3</p>", "internal_node_id": "0.0-60.0-7.0", "time_elapsed": 520177, "key_press": -1, "trial_index": 85}, "uniqueid": "MTK2103:3TR2532VIQ16WL8DXVPRN19SILFJ6I", "dateTime": 1516729533820}, {"current_trial": 86, "trialdata": {"rt": -1, "trial_type": "single-stim", "stimulus": "<p id=\"stim\">2</p>", "internal_node_id": "0.0-60.0-8.0", "time_elapsed": 521181, "key_press": -1, "trial_index": 86}, "uniqueid": "MTK2103:3TR2532VIQ16WL8DXVPRN19SILFJ6I", "dateTime": 1516729534824}, {"current_trial": 87, "trialdata": {"rt": -1, "trial_type": "single-stim", "stimulus": "<p id=\"stim\">1</p>", "internal_node_id": "0.0-60.0-9.0", "time_elapsed": 522185, "key_press": -1, "trial_index": 87}, "uniqueid": "MTK2103:3TR2532VIQ16WL8DXVPRN19SILFJ6I", "dateTime": 1516729535828}, {"current_trial": 88, "trialdata": {"rt": -1, "trial_type": "single-stim", "stimulus": "<p id=\"stim\">+</p>", "internal_node_id": "0.0-61.0-0.0", "time_elapsed": 523688, "key_press": -1, "type": "FIXATION", "trial_index": 88}, "uniqueid": "MTK2103:3TR2532VIQ16WL8DXVPRN19SILFJ6I", "dateTime": 1516729537331}, {"current_trial": 89, "trialdata": {"rt": -1, "trial_type": "single-stim", "word": "snake", "stimulus": "<p id=\"stim\">SNAKE</p>", "conditions": [12, 1600, "v", 12000], "internal_node_id": "0.0-62.0", "trial": 2, "time_elapsed": 525290, "serialpos": 0, "key_press": -1, "wordID": 1332, "type": "PRES_VIS", "trial_index": 89}, "uniqueid": "MTK2103:3TR2532VIQ16WL8DXVPRN19SILFJ6I", "dateTime": 1516729538933}, {"current_trial": 90, "trialdata": {"rt": -1, "trial_type": "single-stim", "word": "lizard", "stimulus": "<p id=\"stim\">LIZARD</p>", "conditions": [12, 1600, "v", 12000], "internal_node_id": "0.0-63.0", "trial": 2, "time_elapsed": 528059, "serialpos": 1, "key_press": -1, "wordID": 833, "type": "PRES_VIS", "trial_index": 90}, "uniqueid": "MTK2103:3TR2532VIQ16WL8DXVPRN19SILFJ6I", "dateTime": 1516729541702}, {"current_trial": 91, "trialdata": {"rt": -1, "trial_type": "single-stim", "word": "skirt", "stimulus": "<p id=\"stim\">SKIRT</p>", "conditions": [12, 1600, "v", 12000], "internal_node_id": "0.0-64.0", "trial": 2, "time_elapsed": 530525, "serialpos": 2, "key_press": -1, "wordID": 1318, "type": "PRES_VIS", "trial_index": 91}, "uniqueid": "MTK2103:3TR2532VIQ16WL8DXVPRN19SILFJ6I", "dateTime": 1516729544168}, {"current_trial": 92, "trialdata": {"rt": -1, "trial_type": "single-stim", "word": "peanut", "stimulus": "<p id=\"stim\">PEANUT</p>", "conditions": [12, 1600, "v", 12000], "internal_node_id": "0.0-65.0", "trial": 2, "time_elapsed": 533311, "serialpos": 3, "key_press": -1, "wordID": 1031, "type": "PRES_VIS", "trial_index": 92}, "uniqueid": "MTK2103:3TR2532VIQ16WL8DXVPRN19SILFJ6I", "dateTime": 1516729546954}, {"current_trial": 93, "trialdata": {"rt": -1, "trial_type": "single-stim", "word": "child", "stimulus": "<p id=\"stim\">CHILD</p>", "conditions": [12, 1600, "v", 12000], "internal_node_id": "0.0-66.0", "trial": 2, "time_elapsed": 535859, "serialpos": 4, "key_press": -1, "wordID": 298, "type": "PRES_VIS", "trial_index": 93}, "uniqueid": "MTK2103:3TR2532VIQ16WL8DXVPRN19SILFJ6I", "dateTime": 1516729549502}, {"current_trial": 94, "trialdata": {"rt": -1, "trial_type": "single-stim", "word": "zebra", "stimulus": "<p id=\"stim\">ZEBRA</p>", "conditions": [12, 1600, "v", 12000], "internal_node_id": "0.0-67.0", "trial": 2, "time_elapsed": 538517, "serialpos": 5, "key_press": -1, "wordID": 1634, "type": "PRES_VIS", "trial_index": 94}, "uniqueid": "MTK2103:3TR2532VIQ16WL8DXVPRN19SILFJ6I", "dateTime": 1516729552160}, {"current_trial": 95, "trialdata": {"rt": -1, "trial_type": "single-stim", "word": "pliers", "stimulus": "<p id=\"stim\">PLIERS</p>", "conditions": [12, 1600, "v", 12000], "internal_node_id": "0.0-68.0", "trial": 2, "time_elapsed": 541245, "serialpos": 6, "key_press": -1, "wordID": 1088, "type": "PRES_VIS", "trial_index": 95}, "uniqueid": "MTK2103:3TR2532VIQ16WL8DXVPRN19SILFJ6I", "dateTime": 1516729554888}, {"current_trial": 96, "trialdata": {"rt": -1, "trial_type": "single-stim", "word": "hamper", "stimulus": "<p id=\"stim\">HAMPER</p>", "conditions": [12, 1600, "v", 12000], "internal_node_id": "0.0-69.0", "trial": 2, "time_elapsed": 543961, "serialpos": 7, "key_press": -1, "wordID": 681, "type": "PRES_VIS", "trial_index": 96}, "uniqueid": "MTK2103:3TR2532VIQ16WL8DXVPRN19SILFJ6I", "dateTime": 1516729557604}, {"current_trial": 97, "trialdata": {"rt": -1, "trial_type": "single-stim", "word": "label", "stimulus": "<p id=\"stim\">LABEL</p>", "conditions": [12, 1600, "v", 12000], "internal_node_id": "0.0-70.0", "trial": 2, "time_elapsed": 546567, "serialpos": 8, "key_press": -1, "wordID": 789, "type": "PRES_VIS", "trial_index": 97}, "uniqueid": "MTK2103:3TR2532VIQ16WL8DXVPRN19SILFJ6I", "dateTime": 1516729560210}, {"current_trial": 98, "trialdata": {"rt": -1, "trial_type": "single-stim", "word": "pudding", "stimulus": "<p id=\"stim\">PUDDING</p>", "conditions": [12, 1600, "v", 12000], "internal_node_id": "0.0-71.0", "trial": 2, "time_elapsed": 549103, "serialpos": 9, "key_press": -1, "wordID": 1138, "type": "PRES_VIS", "trial_index": 98}, "uniqueid": "MTK2103:3TR2532VIQ16WL8DXVPRN19SILFJ6I", "dateTime": 1516729562746}, {"current_trial": 99, "trialdata": {"rt": -1, "trial_type": "single-stim", "word": "breast", "stimulus": "<p id=\"stim\">BREAST</p>", "conditions": [12, 1600, "v", 12000], "internal_node_id": "0.0-72.0", "trial": 2, "time_elapsed": 551738, "serialpos": 10, "key_press": -1, "wordID": 170, "type": "PRES_VIS", "trial_index": 99}, "uniqueid": "MTK2103:3TR2532VIQ16WL8DXVPRN19SILFJ6I", "dateTime": 1516729565381}, {"current_trial": 100, "trialdata": {"rt": -1, "trial_type": "single-stim", "word": "pecan", "stimulus": "<p id=\"stim\">PECAN</p>", "conditions": [12, 1600, "v", 12000], "internal_node_id": "0.0-73.0", "trial": 2, "time_elapsed": 554344, "serialpos": 11, "key_press": -1, "wordID": 1035, "type": "PRES_VIS", "trial_index": 100}, "uniqueid": "MTK2103:3TR2532VIQ16WL8DXVPRN19SILFJ6I", "dateTime": 1516729567987}, {"current_trial": 101, "trialdata": {"rt": -1, "trial_type": "single-stim", "stimulus": "", "internal_node_id": "0.0-74.0-0.0", "time_elapsed": 556375, "key_press": -1, "type": "PRE_RECALL_DELAY", "trial_index": 101}, "uniqueid": "MTK2103:3TR2532VIQ16WL8DXVPRN19SILFJ6I", "dateTime": 1516729570018}, {"current_trial": 102, "trialdata": {"rt": -1000, "trial_type": "single-audio", "stimulus": "/static/audio/400Hz.wav", "internal_node_id": "0.0-75.0", "time_elapsed": 556877, "key_press": -1, "type": "PRE_RECALL_ALERT", "trial_index": 102}, "uniqueid": "MTK2103:3TR2532VIQ16WL8DXVPRN19SILFJ6I", "dateTime": 1516729570520}, {"current_trial": 103, "trialdata": {"rt": [2075, 3755, 4970, 7859, 10259, 11763, 13475, 15130, 16675, 18930, 21284, 22931], "recwords": ["pecan", "breast", "label", "hamper", "sick", "peanut", "zebra", "skirt", "plier", "breast", "snake", "lizzard"], "key_times": [1204, 1443, 1683, 1835, 1923, 2075, 2523, 2659, 2787, 3051, 3499, 3619, 3755, 4267, 4411, 4579, 4699, 4835, 4970, 5851, 6187, 6835, 6979, 7123, 7275, 7563, 7691, 7859, 8043, 8187, 8363, 8739, 10259, 10603, 10787, 10947, 11083, 11260, 11451, 11763, 12715, 13010, 13179, 13251, 13315, 13475, 13819, 13963, 14123, 14395, 14571, 15130, 15658, 15939, 16155, 16338, 16466, 16675, 17811, 17915, 18018, 18170, 18339, 18731, 18930, 20427, 20611, 20723, 20851, 21132, 21284, 21618, 21795, 21978, 22154, 22266, 22507, 22723, 22931], "trial_type": "free-recall", "conditions": [12, 1600, "v", 12000], "internal_node_id": "0.0-76.0-0.0", "key_presses": [80, 69, 67, 65, 78, 13, 66, 82, 69, 65, 83, 84, 13, 76, 65, 66, 69, 76, 13, 74, 8, 72, 65, 77, 80, 69, 82, 13, 83, 73, 67, 75, 13, 80, 69, 65, 78, 85, 84, 13, 90, 69, 66, 82, 65, 13, 83, 75, 73, 82, 84, 13, 80, 76, 73, 69, 82, 13, 66, 82, 69, 65, 83, 84, 13, 83, 78, 65, 75, 69, 13, 76, 73, 90, 90, 65, 82, 68, 13], "trial": 2, "time_elapsed": 616882, "type": "FREE_RECALL", "trial_index": 103}, "uniqueid": "MTK2103:3TR2532VIQ16WL8DXVPRN19SILFJ6I", "dateTime": 1516729630527}, {"current_trial": 104, "trialdata": {"rt": 6346, "trial_type": "text", "internal_node_id": "0.0-77.0", "time_elapsed": 625235, "key_press": 32, "type": "INSTRUCTIONS", "trial_index": 104}, "uniqueid": "MTK2103:3TR2532VIQ16WL8DXVPRN19SILFJ6I", "dateTime": 1516729638878}, {"current_trial": 105, "trialdata": {"rt": [2408, 5672, 10781, 13837, 17196, 22121], "trial_type": "math-distractor", "key_times": [1744, 1912, 2408, 5256, 5480, 5672, 10494, 10613, 10781, 13573, 13837, 16837, 17045, 17196, 21323, 22049, 22121, 23705], "responses": ["13", "10", "19", "8", "13", "14"], "num2": [1, 2, 5, 5, 7, 1, 9], "num3": [7, 3, 7, 1, 9, 8, 8], "conditions": [12, 800, "v", 24000], "internal_node_id": "0.0-78.0", "key_presses": [49, 51, 13, 49, 48, 13, 49, 57, 13, 56, 13, 49, 51, 13, 49, 52, 13, 49], "trial": 3, "time_elapsed": 651247, "type": "DISTRACTOR", "trial_index": 105, "num1": [6, 5, 7, 2, 6, 5, 2]}, "uniqueid": "MTK2103:3TR2532VIQ16WL8DXVPRN19SILFJ6I", "dateTime": 1516729664890}, {"current_trial": 106, "trialdata": {"rt": -1, "trial_type": "single-stim", "stimulus": "<p id=\"stim\">10</p>", "internal_node_id": "0.0-79.0-0.0", "time_elapsed": 654252, "key_press": -1, "trial_index": 106}, "uniqueid": "MTK2103:3TR2532VIQ16WL8DXVPRN19SILFJ6I", "dateTime": 1516729667895}, {"current_trial": 107, "trialdata": {"rt": -1, "trial_type": "single-stim", "stimulus": "<p id=\"stim\">9</p>", "internal_node_id": "0.0-79.0-1.0", "time_elapsed": 655254, "key_press": -1, "trial_index": 107}, "uniqueid": "MTK2103:3TR2532VIQ16WL8DXVPRN19SILFJ6I", "dateTime": 1516729668897}, {"current_trial": 108, "trialdata": {"rt": -1, "trial_type": "single-stim", "stimulus": "<p id=\"stim\">8</p>", "internal_node_id": "0.0-79.0-2.0", "time_elapsed": 656257, "key_press": -1, "trial_index": 108}, "uniqueid": "MTK2103:3TR2532VIQ16WL8DXVPRN19SILFJ6I", "dateTime": 1516729669901}, {"current_trial": 109, "trialdata": {"rt": -1, "trial_type": "single-stim", "stimulus": "<p id=\"stim\">7</p>", "internal_node_id": "0.0-79.0-3.0", "time_elapsed": 657264, "key_press": -1, "trial_index": 109}, "uniqueid": "MTK2103:3TR2532VIQ16WL8DXVPRN19SILFJ6I", "dateTime": 1516729670907}, {"current_trial": 110, "trialdata": {"rt": -1, "trial_type": "single-stim", "stimulus": "<p id=\"stim\">6</p>", "internal_node_id": "0.0-79.0-4.0", "time_elapsed": 658269, "key_press": -1, "trial_index": 110}, "uniqueid": "MTK2103:3TR2532VIQ16WL8DXVPRN19SILFJ6I", "dateTime": 1516729671912}, {"current_trial": 111, "trialdata": {"rt": -1, "trial_type": "single-stim", "stimulus": "<p id=\"stim\">5</p>", "internal_node_id": "0.0-79.0-5.0", "time_elapsed": 659272, "key_press": -1, "trial_index": 111}, "uniqueid": "MTK2103:3TR2532VIQ16WL8DXVPRN19SILFJ6I", "dateTime": 1516729672915}, {"current_trial": 112, "trialdata": {"rt": -1, "trial_type": "single-stim", "stimulus": "<p id=\"stim\">4</p>", "internal_node_id": "0.0-79.0-6.0", "time_elapsed": 660277, "key_press": -1, "trial_index": 112}, "uniqueid": "MTK2103:3TR2532VIQ16WL8DXVPRN19SILFJ6I", "dateTime": 1516729673920}, {"current_trial": 113, "trialdata": {"rt": -1, "trial_type": "single-stim", "stimulus": "<p id=\"stim\">3</p>", "internal_node_id": "0.0-79.0-7.0", "time_elapsed": 661281, "key_press": -1, "trial_index": 113}, "uniqueid": "MTK2103:3TR2532VIQ16WL8DXVPRN19SILFJ6I", "dateTime": 1516729674924}, {"current_trial": 114, "trialdata": {"rt": -1, "trial_type": "single-stim", "stimulus": "<p id=\"stim\">2</p>", "internal_node_id": "0.0-79.0-8.0", "time_elapsed": 662284, "key_press": -1, "trial_index": 114}, "uniqueid": "MTK2103:3TR2532VIQ16WL8DXVPRN19SILFJ6I", "dateTime": 1516729675928}, {"current_trial": 115, "trialdata": {"rt": -1, "trial_type": "single-stim", "stimulus": "<p id=\"stim\">1</p>", "internal_node_id": "0.0-79.0-9.0", "time_elapsed": 663289, "key_press": -1, "trial_index": 115}, "uniqueid": "MTK2103:3TR2532VIQ16WL8DXVPRN19SILFJ6I", "dateTime": 1516729676932}, {"current_trial": 116, "trialdata": {"rt": -1, "trial_type": "single-stim", "stimulus": "<p id=\"stim\">+</p>", "internal_node_id": "0.0-80.0-0.0", "time_elapsed": 664795, "key_press": -1, "type": "FIXATION", "trial_index": 116}, "uniqueid": "MTK2103:3TR2532VIQ16WL8DXVPRN19SILFJ6I", "dateTime": 1516729678438}, {"current_trial": 117, "trialdata": {"rt": -1, "trial_type": "single-stim", "word": "infant", "stimulus": "<p id=\"stim\">INFANT</p>", "conditions": [12, 800, "v", 24000], "internal_node_id": "0.0-81.0", "trial": 3, "time_elapsed": 665599, "serialpos": 0, "key_press": -1, "wordID": 736, "type": "PRES_VIS", "trial_index": 117}, "uniqueid": "MTK2103:3TR2532VIQ16WL8DXVPRN19SILFJ6I", "dateTime": 1516729679242}, {"current_trial": 118, "trialdata": {"rt": -1, "trial_type": "single-stim", "word": "teacher", "stimulus": "<p id=\"stim\">TEACHER</p>", "conditions": [12, 800, "v", 24000], "internal_node_id": "0.0-82.0", "trial": 3, "time_elapsed": 667445, "serialpos": 1, "key_press": -1, "wordID": 1439, "type": "PRES_VIS", "trial_index": 118}, "uniqueid": "MTK2103:3TR2532VIQ16WL8DXVPRN19SILFJ6I", "dateTime": 1516729681088}, {"current_trial": 119, "trialdata": {"rt": -1, "trial_type": "single-stim", "word": "camel", "stimulus": "<p id=\"stim\">CAMEL</p>", "conditions": [12, 800, "v", 24000], "internal_node_id": "0.0-83.0", "trial": 3, "time_elapsed": 669331, "serialpos": 2, "key_press": -1, "wordID": 222, "type": "PRES_VIS", "trial_index": 119}, "uniqueid": "MTK2103:3TR2532VIQ16WL8DXVPRN19SILFJ6I", "dateTime": 1516729682974}, {"current_trial": 120, "trialdata": {"rt": -1, "trial_type": "single-stim", "word": "banker", "stimulus": "<p id=\"stim\">BANKER</p>", "conditions": [12, 800, "v", 24000], "internal_node_id": "0.0-84.0", "trial": 3, "time_elapsed": 671048, "serialpos": 3, "key_press": -1, "wordID": 83, "type": "PRES_VIS", "trial_index": 120}, "uniqueid": "MTK2103:3TR2532VIQ16WL8DXVPRN19SILFJ6I", "dateTime": 1516729684692}, {"current_trial": 121, "trialdata": {"rt": -1, "trial_type": "single-stim", "word": "lipstick", "stimulus": "<p id=\"stim\">LIPSTICK</p>", "conditions": [12, 800, "v", 24000], "internal_node_id": "0.0-85.0", "trial": 3, "time_elapsed": 672665, "serialpos": 4, "key_press": -1, "wordID": 828, "type": "PRES_VIS", "trial_index": 121}, "uniqueid": "MTK2103:3TR2532VIQ16WL8DXVPRN19SILFJ6I", "dateTime": 1516729686308}, {"current_trial": 122, "trialdata": {"rt": -1, "trial_type": "single-stim", "word": "donkey", "stimulus": "<p id=\"stim\">DONKEY</p>", "conditions": [12, 800, "v", 24000], "internal_node_id": "0.0-86.0", "trial": 3, "time_elapsed": 674472, "serialpos": 5, "key_press": -1, "wordID": 483, "type": "PRES_VIS", "trial_index": 122}, "uniqueid": "MTK2103:3TR2532VIQ16WL8DXVPRN19SILFJ6I", "dateTime": 1516729688116}, {"current_trial": 123, "trialdata": {"rt": -1, "trial_type": "single-stim", "word": "tablet", "stimulus": "<p id=\"stim\">TABLET</p>", "conditions": [12, 800, "v", 24000], "internal_node_id": "0.0-87.0", "trial": 3, "time_elapsed": 676150, "serialpos": 6, "key_press": -1, "wordID": 1426, "type": "PRES_VIS", "trial_index": 123}, "uniqueid": "MTK2103:3TR2532VIQ16WL8DXVPRN19SILFJ6I", "dateTime": 1516729689794}, {"current_trial": 124, "trialdata": {"rt": -1, "trial_type": "single-stim", "word": "mister", "stimulus": "<p id=\"stim\">MISTER</p>", "conditions": [12, 800, "v", 24000], "internal_node_id": "0.0-88.0", "trial": 3, "time_elapsed": 678071, "serialpos": 7, "key_press": -1, "wordID": 900, "type": "PRES_VIS", "trial_index": 124}, "uniqueid": "MTK2103:3TR2532VIQ16WL8DXVPRN19SILFJ6I", "dateTime": 1516729691714}, {"current_trial": 125, "trialdata": {"rt": -1, "trial_type": "single-stim", "word": "france", "stimulus": "<p id=\"stim\">FRANCE</p>", "conditions": [12, 800, "v", 24000], "internal_node_id": "0.0-89.0", "trial": 3, "time_elapsed": 679690, "serialpos": 8, "key_press": -1, "wordID": 600, "type": "PRES_VIS", "trial_index": 125}, "uniqueid": "MTK2103:3TR2532VIQ16WL8DXVPRN19SILFJ6I", "dateTime": 1516729693334}, {"current_trial": 126, "trialdata": {"rt": -1, "trial_type": "single-stim", "word": "sculpture", "stimulus": "<p id=\"stim\">SCULPTURE</p>", "conditions": [12, 800, "v", 24000], "internal_node_id": "0.0-90.0", "trial": 3, "time_elapsed": 681484, "serialpos": 9, "key_press": -1, "wordID": 1257, "type": "PRES_VIS", "trial_index": 126}, "uniqueid": "MTK2103:3TR2532VIQ16WL8DXVPRN19SILFJ6I", "dateTime": 1516729695127}, {"current_trial": 127, "trialdata": {"rt": -1, "trial_type": "single-stim", "word": "statue", "stimulus": "<p id=\"stim\">STATUE</p>", "conditions": [12, 800, "v", 24000], "internal_node_id": "0.0-91.0", "trial": 3, "time_elapsed": 683434, "serialpos": 10, "key_press": -1, "wordID": 1373, "type": "PRES_VIS", "trial_index": 127}, "uniqueid": "MTK2103:3TR2532VIQ16WL8DXVPRN19SILFJ6I", "dateTime": 1516729697077}, {"current_trial": 128, "trialdata": {"rt": -1, "trial_type": "single-stim", "word": "stove", "stimulus": "<p id=\"stim\">STOVE</p>", "conditions": [12, 800, "v", 24000], "internal_node_id": "0.0-92.0", "trial": 3, "time_elapsed": 685114, "serialpos": 11, "key_press": -1, "wordID": 1387, "type": "PRES_VIS", "trial_index": 128}, "uniqueid": "MTK2103:3TR2532VIQ16WL8DXVPRN19SILFJ6I", "dateTime": 1516729698757}, {"current_trial": 129, "trialdata": {"rt": -1, "trial_type": "single-stim", "stimulus": "", "internal_node_id": "0.0-93.0-0.0", "time_elapsed": 687543, "key_press": -1, "type": "PRE_RECALL_DELAY", "trial_index": 129}, "uniqueid": "MTK2103:3TR2532VIQ16WL8DXVPRN19SILFJ6I", "dateTime": 1516729701186}, {"current_trial": 130, "trialdata": {"rt": -1000, "trial_type": "single-audio", "stimulus": "/static/audio/400Hz.wav", "internal_node_id": "0.0-94.0", "time_elapsed": 688045, "key_press": -1, "type": "PRE_RECALL_ALERT", "trial_index": 130}, "uniqueid": "MTK2103:3TR2532VIQ16WL8DXVPRN19SILFJ6I", "dateTime": 1516729701688}, {"current_trial": 131, "trialdata": {"rt": [2491, 3730, 4906, 6778, 9394, 12802], "recwords": ["infant", "teacher", "tablet", "taxi", "learn", "child"], "key_times": [1691, 1834, 2042, 2170, 2314, 2378, 2491, 2762, 2930, 3090, 3258, 3386, 3450, 3562, 3730, 3994, 4195, 4306, 4482, 4595, 4739, 4906, 5522, 5778, 6490, 6618, 6778, 8362, 8506, 8730, 8962, 9202, 9394, 12267, 12321, 12394, 12506, 12682, 12802], "trial_type": "free-recall", "conditions": [12, 800, "v", 24000], "internal_node_id": "0.0-95.0-0.0", "key_presses": [73, 78, 70, 65, 78, 84, 13, 84, 69, 65, 67, 72, 69, 82, 13, 84, 65, 66, 76, 69, 84, 13, 84, 65, 88, 73, 13, 76, 69, 65, 82, 78, 13, 67, 72, 73, 76, 68, 13], "trial": 3, "time_elapsed": 748051, "type": "FREE_RECALL", "trial_index": 131}, "uniqueid": "MTK2103:3TR2532VIQ16WL8DXVPRN19SILFJ6I", "dateTime": 1516729761697}, {"current_trial": 132, "trialdata": {"rt": 3542, "trial_type": "text", "internal_node_id": "0.0-96.0", "time_elapsed": 753601, "key_press": 32, "type": "INSTRUCTIONS", "trial_index": 132}, "uniqueid": "MTK2103:3TR2532VIQ16WL8DXVPRN19SILFJ6I", "dateTime": 1516729767244}, {"current_trial": 133, "trialdata": {"rt": [2696, 6336, 8639, 12735, 15967, 20256], "trial_type": "math-distractor", "key_times": [1888, 2464, 2696, 4784, 5464, 6336, 7712, 8233, 8639, 11887, 12504, 12735, 15280, 15447, 15967, 19136, 19295, 20256], "responses": ["19", "15", "17", "20", "12", "11"], "num2": [9, 9, 2, 4, 6, 6, 7], "num3": [8, 2, 8, 8, 3, 4, 5], "conditions": [12, 800, "v", 24000], "internal_node_id": "0.0-97.0", "key_presses": [49, 57, 13, 49, 53, 13, 49, 55, 13, 50, 48, 13, 49, 50, 13, 49, 49, 13], "trial": 4, "time_elapsed": 779611, "type": "DISTRACTOR", "trial_index": 133, "num1": [3, 3, 7, 8, 3, 1, 6]}, "uniqueid": "MTK2103:3TR2532VIQ16WL8DXVPRN19SILFJ6I", "dateTime": 1516729793255}, {"current_trial": 134, "trialdata": {"rt": -1, "trial_type": "single-stim", "stimulus": "<p id=\"stim\">10</p>", "internal_node_id": "0.0-98.0-0.0", "time_elapsed": 782618, "key_press": -1, "trial_index": 134}, "uniqueid": "MTK2103:3TR2532VIQ16WL8DXVPRN19SILFJ6I", "dateTime": 1516729796261}, {"current_trial": 135, "trialdata": {"rt": -1, "trial_type": "single-stim", "stimulus": "<p id=\"stim\">9</p>", "internal_node_id": "0.0-98.0-1.0", "time_elapsed": 783622, "key_press": -1, "trial_index": 135}, "uniqueid": "MTK2103:3TR2532VIQ16WL8DXVPRN19SILFJ6I", "dateTime": 1516729797265}, {"current_trial": 136, "trialdata": {"rt": -1, "trial_type": "single-stim", "stimulus": "<p id=\"stim\">8</p>", "internal_node_id": "0.0-98.0-2.0", "time_elapsed": 784625, "key_press": -1, "trial_index": 136}, "uniqueid": "MTK2103:3TR2532VIQ16WL8DXVPRN19SILFJ6I", "dateTime": 1516729798269}, {"current_trial": 137, "trialdata": {"rt": -1, "trial_type": "single-stim", "stimulus": "<p id=\"stim\">7</p>", "internal_node_id": "0.0-98.0-3.0", "time_elapsed": 785630, "key_press": -1, "trial_index": 137}, "uniqueid": "MTK2103:3TR2532VIQ16WL8DXVPRN19SILFJ6I", "dateTime": 1516729799273}, {"current_trial": 138, "trialdata": {"rt": -1, "trial_type": "single-stim", "stimulus": "<p id=\"stim\">6</p>", "internal_node_id": "0.0-98.0-4.0", "time_elapsed": 786634, "key_press": -1, "trial_index": 138}, "uniqueid": "MTK2103:3TR2532VIQ16WL8DXVPRN19SILFJ6I", "dateTime": 1516729800277}, {"current_trial": 139, "trialdata": {"rt": -1, "trial_type": "single-stim", "stimulus": "<p id=\"stim\">5</p>", "internal_node_id": "0.0-98.0-5.0", "time_elapsed": 787638, "key_press": -1, "trial_index": 139}, "uniqueid": "MTK2103:3TR2532VIQ16WL8DXVPRN19SILFJ6I", "dateTime": 1516729801281}, {"current_trial": 140, "trialdata": {"rt": -1, "trial_type": "single-stim", "stimulus": "<p id=\"stim\">4</p>", "internal_node_id": "0.0-98.0-6.0", "time_elapsed": 788642, "key_press": -1, "trial_index": 140}, "uniqueid": "MTK2103:3TR2532VIQ16WL8DXVPRN19SILFJ6I", "dateTime": 1516729802285}, {"current_trial": 141, "trialdata": {"rt": -1, "trial_type": "single-stim", "stimulus": "<p id=\"stim\">3</p>", "internal_node_id": "0.0-98.0-7.0", "time_elapsed": 789646, "key_press": -1, "trial_index": 141}, "uniqueid": "MTK2103:3TR2532VIQ16WL8DXVPRN19SILFJ6I", "dateTime": 1516729803289}, {"current_trial": 142, "trialdata": {"rt": -1, "trial_type": "single-stim", "stimulus": "<p id=\"stim\">2</p>", "internal_node_id": "0.0-98.0-8.0", "time_elapsed": 790650, "key_press": -1, "trial_index": 142}, "uniqueid": "MTK2103:3TR2532VIQ16WL8DXVPRN19SILFJ6I", "dateTime": 1516729804293}, {"current_trial": 143, "trialdata": {"rt": -1, "trial_type": "single-stim", "stimulus": "<p id=\"stim\">1</p>", "internal_node_id": "0.0-98.0-9.0", "time_elapsed": 791654, "key_press": -1, "trial_index": 143}, "uniqueid": "MTK2103:3TR2532VIQ16WL8DXVPRN19SILFJ6I", "dateTime": 1516729805297}, {"current_trial": 144, "trialdata": {"rt": -1, "trial_type": "single-stim", "stimulus": "<p id=\"stim\">+</p>", "internal_node_id": "0.0-99.0-0.0", "time_elapsed": 793157, "key_press": -1, "type": "FIXATION", "trial_index": 144}, "uniqueid": "MTK2103:3TR2532VIQ16WL8DXVPRN19SILFJ6I", "dateTime": 1516729806801}, {"current_trial": 145, "trialdata": {"rt": -1, "trial_type": "single-stim", "word": "flask", "stimulus": "<p id=\"stim\">FLASK</p>", "conditions": [12, 800, "v", 24000], "internal_node_id": "0.0-100.0", "trial": 4, "time_elapsed": 793964, "serialpos": 0, "key_press": -1, "wordID": 575, "type": "PRES_VIS", "trial_index": 145}, "uniqueid": "MTK2103:3TR2532VIQ16WL8DXVPRN19SILFJ6I", "dateTime": 1516729807607}, {"current_trial": 146, "trialdata": {"rt": -1, "trial_type": "single-stim", "word": "inmate", "stimulus": "<p id=\"stim\">INMATE</p>", "conditions": [12, 800, "v", 24000], "internal_node_id": "0.0-101.0", "trial": 4, "time_elapsed": 795688, "serialpos": 1, "key_press": -1, "wordID": 737, "type": "PRES_VIS", "trial_index": 146}, "uniqueid": "MTK2103:3TR2532VIQ16WL8DXVPRN19SILFJ6I", "dateTime": 1516729809331}, {"current_trial": 147, "trialdata": {"rt": -1, "trial_type": "single-stim", "word": "worker", "stimulus": "<p id=\"stim\">WORKER</p>", "conditions": [12, 800, "v", 24000], "internal_node_id": "0.0-102.0", "trial": 4, "time_elapsed": 797417, "serialpos": 2, "key_press": -1, "wordID": 1620, "type": "PRES_VIS", "trial_index": 147}, "uniqueid": "MTK2103:3TR2532VIQ16WL8DXVPRN19SILFJ6I", "dateTime": 1516729811061}, {"current_trial": 148, "trialdata": {"rt": -1, "trial_type": "single-stim", "word": "turtle", "stimulus": "<p id=\"stim\">TURTLE</p>", "conditions": [12, 800, "v", 24000], "internal_node_id": "0.0-103.0", "trial": 4, "time_elapsed": 799315, "serialpos": 3, "key_press": -1, "wordID": 1521, "type": "PRES_VIS", "trial_index": 148}, "uniqueid": "MTK2103:3TR2532VIQ16WL8DXVPRN19SILFJ6I", "dateTime": 1516729812959}, {"current_trial": 149, "trialdata": {"rt": -1, "trial_type": "single-stim", "word": "shark", "stimulus": "<p id=\"stim\">SHARK</p>", "conditions": [12, 800, "v", 24000], "internal_node_id": "0.0-104.0", "trial": 4, "time_elapsed": 801103, "serialpos": 4, "key_press": -1, "wordID": 1274, "type": "PRES_VIS", "trial_index": 149}, "uniqueid": "MTK2103:3TR2532VIQ16WL8DXVPRN19SILFJ6I", "dateTime": 1516729814746}, {"current_trial": 150, "trialdata": {"rt": -1, "trial_type": "single-stim", "word": "racket", "stimulus": "<p id=\"stim\">RACKET</p>", "conditions": [12, 800, "v", 24000], "internal_node_id": "0.0-105.0", "trial": 4, "time_elapsed": 802826, "serialpos": 5, "key_press": -1, "wordID": 1154, "type": "PRES_VIS", "trial_index": 150}, "uniqueid": "MTK2103:3TR2532VIQ16WL8DXVPRN19SILFJ6I", "dateTime": 1516729816470}, {"current_trial": 151, "trialdata": {"rt": -1, "trial_type": "single-stim", "word": "rabbit", "stimulus": "<p id=\"stim\">RABBIT</p>", "conditions": [12, 800, "v", 24000], "internal_node_id": "0.0-106.0", "trial": 4, "time_elapsed": 804544, "serialpos": 6, "key_press": -1, "wordID": 1151, "type": "PRES_VIS", "trial_index": 151}, "uniqueid": "MTK2103:3TR2532VIQ16WL8DXVPRN19SILFJ6I", "dateTime": 1516729818188}, {"current_trial": 152, "trialdata": {"rt": -1, "trial_type": "single-stim", "word": "blackboard", "stimulus": "<p id=\"stim\">BLACKBOARD</p>", "conditions": [12, 800, "v", 24000], "internal_node_id": "0.0-107.0", "trial": 4, "time_elapsed": 806350, "serialpos": 7, "key_press": -1, "wordID": 132, "type": "PRES_VIS", "trial_index": 152}, "uniqueid": "MTK2103:3TR2532VIQ16WL8DXVPRN19SILFJ6I", "dateTime": 1516729819993}, {"current_trial": 153, "trialdata": {"rt": -1, "trial_type": "single-stim", "word": "coffee", "stimulus": "<p id=\"stim\">COFFEE</p>", "conditions": [12, 800, "v", 24000], "internal_node_id": "0.0-108.0", "trial": 4, "time_elapsed": 808125, "serialpos": 8, "key_press": -1, "wordID": 340, "type": "PRES_VIS", "trial_index": 153}, "uniqueid": "MTK2103:3TR2532VIQ16WL8DXVPRN19SILFJ6I", "dateTime": 1516729821769}, {"current_trial": 154, "trialdata": {"rt": -1, "trial_type": "single-stim", "word": "beaver", "stimulus": "<p id=\"stim\">BEAVER</p>", "conditions": [12, 800, "v", 24000], "internal_node_id": "0.0-109.0", "trial": 4, "time_elapsed": 809814, "serialpos": 9, "key_press": -1, "wordID": 108, "type": "PRES_VIS", "trial_index": 154}, "uniqueid": "MTK2103:3TR2532VIQ16WL8DXVPRN19SILFJ6I", "dateTime": 1516729823458}, {"current_trial": 155, "trialdata": {"rt": -1, "trial_type": "single-stim", "word": "flute", "stimulus": "<p id=\"stim\">FLUTE</p>", "conditions": [12, 800, "v", 24000], "internal_node_id": "0.0-110.0", "trial": 4, "time_elapsed": 811463, "serialpos": 10, "key_press": -1, "wordID": 584, "type": "PRES_VIS", "trial_index": 155}, "uniqueid": "MTK2103:3TR2532VIQ16WL8DXVPRN19SILFJ6I", "dateTime": 1516729825106}, {"current_trial": 156, "trialdata": {"rt": -1, "trial_type": "single-stim", "word": "dress", "stimulus": "<p id=\"stim\">DRESS</p>", "conditions": [12, 800, "v", 24000], "internal_node_id": "0.0-111.0", "trial": 4, "time_elapsed": 813123, "serialpos": 11, "key_press": -1, "wordID": 494, "type": "PRES_VIS", "trial_index": 156}, "uniqueid": "MTK2103:3TR2532VIQ16WL8DXVPRN19SILFJ6I", "dateTime": 1516729826766}, {"current_trial": 157, "trialdata": {"rt": -1, "trial_type": "single-stim", "stimulus": "", "internal_node_id": "0.0-112.0-0.0", "time_elapsed": 815171, "key_press": -1, "type": "PRE_RECALL_DELAY", "trial_index": 157}, "uniqueid": "MTK2103:3TR2532VIQ16WL8DXVPRN19SILFJ6I", "dateTime": 1516729828814}, {"current_trial": 158, "trialdata": {"rt": -1000, "trial_type": "single-audio", "stimulus": "/static/audio/400Hz.wav", "internal_node_id": "0.0-113.0", "time_elapsed": 815672, "key_press": -1, "type": "PRE_RECALL_ALERT", "trial_index": 158}, "uniqueid": "MTK2103:3TR2532VIQ16WL8DXVPRN19SILFJ6I", "dateTime": 1516729829315}, {"current_trial": 159, "trialdata": {"rt": [2414, 5126, 6406, 8606, 10166, 14486], "recwords": ["infant", "blackboard", "flask", "inmate", "whiskey", "learn"], "key_times": [1175, 1374, 2006, 2102, 2246, 2334, 2414, 2791, 2966, 3086, 3278, 3462, 3870, 4014, 4174, 4399, 4774, 5126, 5542, 5726, 5814, 5958, 6190, 6406, 6870, 7078, 7526, 7670, 7942, 8094, 8606, 8918, 9046, 9094, 9325, 9445, 9598, 9910, 10166, 13103, 13206, 13406, 13510, 13918, 14182, 14278, 14486], "trial_type": "free-recall", "conditions": [12, 800, "v", 24000], "internal_node_id": "0.0-114.0-0.0", "key_presses": [73, 78, 70, 65, 78, 84, 13, 66, 76, 65, 67, 75, 66, 79, 65, 82, 68, 13, 70, 76, 65, 83, 75, 13, 73, 78, 77, 65, 84, 69, 13, 87, 72, 73, 83, 75, 69, 89, 13, 76, 69, 65, 78, 8, 82, 78, 13], "trial": 4, "time_elapsed": 875675, "type": "FREE_RECALL", "trial_index": 159}, "uniqueid": "MTK2103:3TR2532VIQ16WL8DXVPRN19SILFJ6I", "dateTime": 1516729889321}, {"current_trial": 160, "trialdata": {"rt": 6296, "trial_type": "text", "internal_node_id": "0.0-115.0", "time_elapsed": 883980, "key_press": 32, "type": "INSTRUCTIONS", "trial_index": 160}, "uniqueid": "MTK2103:3TR2532VIQ16WL8DXVPRN19SILFJ6I", "dateTime": 1516729897624}, {"current_trial": 161, "trialdata": {"rt": [4993, 7537, 9987, 11649], "trial_type": "math-distractor", "key_times": [4524, 4866, 4993, 6946, 7425, 7537, 9394, 9874, 9987, 11545, 11649], "responses": ["14", "27", "17", "6"], "num2": [5, 9, 7, 4, 5], "num3": [1, 8, 9, 1, 9], "conditions": [12, 800, "v", 12000], "internal_node_id": "0.0-116.0", "key_presses": [49, 52, 13, 50, 55, 13, 49, 55, 13, 54, 13], "trial": 5, "time_elapsed": 897986, "type": "DISTRACTOR", "trial_index": 161, "num1": [9, 8, 1, 1, 3]}, "uniqueid": "MTK2103:3TR2532VIQ16WL8DXVPRN19SILFJ6I", "dateTime": 1516729911630}, {"current_trial": 162, "trialdata": {"rt": -1, "trial_type": "single-stim", "stimulus": "<p id=\"stim\">10</p>", "internal_node_id": "0.0-117.0-0.0", "time_elapsed": 900992, "key_press": -1, "trial_index": 162}, "uniqueid": "MTK2103:3TR2532VIQ16WL8DXVPRN19SILFJ6I", "dateTime": 1516729914635}, {"current_trial": 163, "trialdata": {"rt": -1, "trial_type": "single-stim", "stimulus": "<p id=\"stim\">9</p>", "internal_node_id": "0.0-117.0-1.0", "time_elapsed": 901997, "key_press": -1, "trial_index": 163}, "uniqueid": "MTK2103:3TR2532VIQ16WL8DXVPRN19SILFJ6I", "dateTime": 1516729915640}, {"current_trial": 164, "trialdata": {"rt": -1, "trial_type": "single-stim", "stimulus": "<p id=\"stim\">8</p>", "internal_node_id": "0.0-117.0-2.0", "time_elapsed": 903001, "key_press": -1, "trial_index": 164}, "uniqueid": "MTK2103:3TR2532VIQ16WL8DXVPRN19SILFJ6I", "dateTime": 1516729916644}, {"current_trial": 165, "trialdata": {"rt": -1, "trial_type": "single-stim", "stimulus": "<p id=\"stim\">7</p>", "internal_node_id": "0.0-117.0-3.0", "time_elapsed": 904005, "key_press": -1, "trial_index": 165}, "uniqueid": "MTK2103:3TR2532VIQ16WL8DXVPRN19SILFJ6I", "dateTime": 1516729917648}, {"current_trial": 166, "trialdata": {"rt": -1, "trial_type": "single-stim", "stimulus": "<p id=\"stim\">6</p>", "internal_node_id": "0.0-117.0-4.0", "time_elapsed": 905009, "key_press": -1, "trial_index": 166}, "uniqueid": "MTK2103:3TR2532VIQ16WL8DXVPRN19SILFJ6I", "dateTime": 1516729918652}, {"current_trial": 167, "trialdata": {"rt": -1, "trial_type": "single-stim", "stimulus": "<p id=\"stim\">5</p>", "internal_node_id": "0.0-117.0-5.0", "time_elapsed": 906013, "key_press": -1, "trial_index": 167}, "uniqueid": "MTK2103:3TR2532VIQ16WL8DXVPRN19SILFJ6I", "dateTime": 1516729919656}, {"current_trial": 168, "trialdata": {"rt": -1, "trial_type": "single-stim", "stimulus": "<p id=\"stim\">4</p>", "internal_node_id": "0.0-117.0-6.0", "time_elapsed": 907016, "key_press": -1, "trial_index": 168}, "uniqueid": "MTK2103:3TR2532VIQ16WL8DXVPRN19SILFJ6I", "dateTime": 1516729920659}, {"current_trial": 169, "trialdata": {"rt": -1, "trial_type": "single-stim", "stimulus": "<p id=\"stim\">3</p>", "internal_node_id": "0.0-117.0-7.0", "time_elapsed": 908021, "key_press": -1, "trial_index": 169}, "uniqueid": "MTK2103:3TR2532VIQ16WL8DXVPRN19SILFJ6I", "dateTime": 1516729921664}, {"current_trial": 170, "trialdata": {"rt": -1, "trial_type": "single-stim", "stimulus": "<p id=\"stim\">2</p>", "internal_node_id": "0.0-117.0-8.0", "time_elapsed": 909025, "key_press": -1, "trial_index": 170}, "uniqueid": "MTK2103:3TR2532VIQ16WL8DXVPRN19SILFJ6I", "dateTime": 1516729922668}, {"current_trial": 171, "trialdata": {"rt": -1, "trial_type": "single-stim", "stimulus": "<p id=\"stim\">1</p>", "internal_node_id": "0.0-117.0-9.0", "time_elapsed": 910029, "key_press": -1, "trial_index": 171}, "uniqueid": "MTK2103:3TR2532VIQ16WL8DXVPRN19SILFJ6I", "dateTime": 1516729923672}, {"current_trial": 172, "trialdata": {"rt": -1, "trial_type": "single-stim", "stimulus": "<p id=\"stim\">+</p>", "internal_node_id": "0.0-118.0-0.0", "time_elapsed": 911532, "key_press": -1, "type": "FIXATION", "trial_index": 172}, "uniqueid": "MTK2103:3TR2532VIQ16WL8DXVPRN19SILFJ6I", "dateTime": 1516729925175}, {"current_trial": 173, "trialdata": {"rt": -1, "trial_type": "single-stim", "word": "asia", "stimulus": "<p id=\"stim\">ASIA</p>", "conditions": [12, 800, "v", 12000], "internal_node_id": "0.0-119.0", "trial": 5, "time_elapsed": 912339, "serialpos": 0, "key_press": -1, "wordID": 45, "type": "PRES_VIS", "trial_index": 173}, "uniqueid": "MTK2103:3TR2532VIQ16WL8DXVPRN19SILFJ6I", "dateTime": 1516729925982}, {"current_trial": 174, "trialdata": {"rt": -1, "trial_type": "single-stim", "word": "missile", "stimulus": "<p id=\"stim\">MISSILE</p>", "conditions": [12, 800, "v", 12000], "internal_node_id": "0.0-120.0", "trial": 5, "time_elapsed": 914335, "serialpos": 1, "key_press": -1, "wordID": 899, "type": "PRES_VIS", "trial_index": 174}, "uniqueid": "MTK2103:3TR2532VIQ16WL8DXVPRN19SILFJ6I", "dateTime": 1516729927979}, {"current_trial": 175, "trialdata": {"rt": -1, "trial_type": "single-stim", "word": "parent", "stimulus": "<p id=\"stim\">PARENT</p>", "conditions": [12, 800, "v", 12000], "internal_node_id": "0.0-121.0", "trial": 5, "time_elapsed": 916275, "serialpos": 2, "key_press": -1, "wordID": 1012, "type": "PRES_VIS", "trial_index": 175}, "uniqueid": "MTK2103:3TR2532VIQ16WL8DXVPRN19SILFJ6I", "dateTime": 1516729929918}, {"current_trial": 176, "trialdata": {"rt": -1, "trial_type": "single-stim", "word": "europe", "stimulus": "<p id=\"stim\">EUROPE</p>", "conditions": [12, 800, "v", 12000], "internal_node_id": "0.0-122.0", "trial": 5, "time_elapsed": 918010, "serialpos": 3, "key_press": -1, "wordID": 540, "type": "PRES_VIS", "trial_index": 176}, "uniqueid": "MTK2103:3TR2532VIQ16WL8DXVPRN19SILFJ6I", "dateTime": 1516729931653}, {"current_trial": 177, "trialdata": {"rt": -1, "trial_type": "single-stim", "word": "tunnel", "stimulus": "<p id=\"stim\">TUNNEL</p>", "conditions": [12, 800, "v", 12000], "internal_node_id": "0.0-123.0", "trial": 5, "time_elapsed": 919710, "serialpos": 4, "key_press": -1, "wordID": 1518, "type": "PRES_VIS", "trial_index": 177}, "uniqueid": "MTK2103:3TR2532VIQ16WL8DXVPRN19SILFJ6I", "dateTime": 1516729933353}, {"current_trial": 178, "trialdata": {"rt": -1, "trial_type": "single-stim", "word": "leg", "stimulus": "<p id=\"stim\">LEG</p>", "conditions": [12, 800, "v", 12000], "internal_node_id": "0.0-124.0", "trial": 5, "time_elapsed": 921464, "serialpos": 5, "key_press": -1, "wordID": 808, "type": "PRES_VIS", "trial_index": 178}, "uniqueid": "MTK2103:3TR2532VIQ16WL8DXVPRN19SILFJ6I", "dateTime": 1516729935107}, {"current_trial": 179, "trialdata": {"rt": -1, "trial_type": "single-stim", "word": "braces", "stimulus": "<p id=\"stim\">BRACES</p>", "conditions": [12, 800, "v", 12000], "internal_node_id": "0.0-125.0", "trial": 5, "time_elapsed": 923453, "serialpos": 6, "key_press": -1, "wordID": 163, "type": "PRES_VIS", "trial_index": 179}, "uniqueid": "MTK2103:3TR2532VIQ16WL8DXVPRN19SILFJ6I", "dateTime": 1516729937097}, {"current_trial": 180, "trialdata": {"rt": -1, "trial_type": "single-stim", "word": "mailbox", "stimulus": "<p id=\"stim\">MAILBOX</p>", "conditions": [12, 800, "v", 12000], "internal_node_id": "0.0-126.0", "trial": 5, "time_elapsed": 925399, "serialpos": 7, "key_press": -1, "wordID": 856, "type": "PRES_VIS", "trial_index": 180}, "uniqueid": "MTK2103:3TR2532VIQ16WL8DXVPRN19SILFJ6I", "dateTime": 1516729939042}, {"current_trial": 181, "trialdata": {"rt": -1, "trial_type": "single-stim", "word": "girl", "stimulus": "<p id=\"stim\">GIRL</p>", "conditions": [12, 800, "v", 12000], "internal_node_id": "0.0-127.0", "trial": 5, "time_elapsed": 927109, "serialpos": 8, "key_press": -1, "wordID": 636, "type": "PRES_VIS", "trial_index": 181}, "uniqueid": "MTK2103:3TR2532VIQ16WL8DXVPRN19SILFJ6I", "dateTime": 1516729940753}, {"current_trial": 182, "trialdata": {"rt": -1, "trial_type": "single-stim", "word": "woman", "stimulus": "<p id=\"stim\">WOMAN</p>", "conditions": [12, 800, "v", 12000], "internal_node_id": "0.0-128.0", "trial": 5, "time_elapsed": 928971, "serialpos": 9, "key_press": -1, "wordID": 1619, "type": "PRES_VIS", "trial_index": 182}, "uniqueid": "MTK2103:3TR2532VIQ16WL8DXVPRN19SILFJ6I", "dateTime": 1516729942614}, {"current_trial": 183, "trialdata": {"rt": -1, "trial_type": "single-stim", "word": "scallop", "stimulus": "<p id=\"stim\">SCALLOP</p>", "conditions": [12, 800, "v", 12000], "internal_node_id": "0.0-129.0", "trial": 5, "time_elapsed": 930731, "serialpos": 10, "key_press": -1, "wordID": 1241, "type": "PRES_VIS", "trial_index": 183}, "uniqueid": "MTK2103:3TR2532VIQ16WL8DXVPRN19SILFJ6I", "dateTime": 1516729944374}, {"current_trial": 184, "trialdata": {"rt": -1, "trial_type": "single-stim", "word": "bouquet", "stimulus": "<p id=\"stim\">BOUQUET</p>", "conditions": [12, 800, "v", 12000], "internal_node_id": "0.0-130.0", "trial": 5, "time_elapsed": 932420, "serialpos": 11, "key_press": -1, "wordID": 156, "type": "PRES_VIS", "trial_index": 184}, "uniqueid": "MTK2103:3TR2532VIQ16WL8DXVPRN19SILFJ6I", "dateTime": 1516729946063}, {"current_trial": 185, "trialdata": {"rt": -1, "trial_type": "single-stim", "stimulus": "", "internal_node_id": "0.0-131.0-0.0", "time_elapsed": 934928, "key_press": -1, "type": "PRE_RECALL_DELAY", "trial_index": 185}, "uniqueid": "MTK2103:3TR2532VIQ16WL8DXVPRN19SILFJ6I", "dateTime": 1516729948571}, {"current_trial": 186, "trialdata": {"rt": -1000, "trial_type": "single-audio", "stimulus": "/static/audio/400Hz.wav", "internal_node_id": "0.0-132.0", "time_elapsed": 935430, "key_press": -1, "type": "PRE_RECALL_ALERT", "trial_index": 186}, "uniqueid": "MTK2103:3TR2532VIQ16WL8DXVPRN19SILFJ6I", "dateTime": 1516729949073}, {"current_trial": 187, "trialdata": {"rt": [2609, 3977, 6609, 8745, 13361, 16257], "recwords": ["girl", "woman", "missle", "survey", "eurpose", "europe"], "key_times": [1785, 1985, 2353, 2473, 2609, 3225, 3361, 3529, 3673, 3777, 3977, 4121, 4497, 4817, 5041, 5193, 5337, 5665, 5849, 6073, 6233, 6345, 6457, 6609, 7193, 7353, 7505, 7713, 7825, 7992, 8745, 12129, 12401, 12561, 12697, 12817, 12929, 13089, 13193, 13361, 14080, 14273, 14457, 14961, 15393, 15713, 15849, 16257], "trial_type": "free-recall", "conditions": [12, 800, "v", 12000], "internal_node_id": "0.0-133.0-0.0", "key_presses": [71, 73, 82, 76, 13, 87, 79, 77, 65, 78, 13, 87, 8, 77, 73, 76, 76, 8, 8, 83, 83, 76, 69, 13, 83, 85, 82, 86, 69, 89, 13, 16, 69, 85, 82, 80, 79, 83, 69, 13, 16, 69, 85, 82, 79, 80, 69, 13], "trial": 5, "time_elapsed": 995433, "type": "FREE_RECALL", "trial_index": 187}, "uniqueid": "MTK2103:3TR2532VIQ16WL8DXVPRN19SILFJ6I", "dateTime": 1516730009080}, {"current_trial": 188, "trialdata": {"rt": 52463, "trial_type": "text", "internal_node_id": "0.0-134.0", "time_elapsed": 1049904, "key_press": 32, "type": "INSTRUCTIONS", "trial_index": 188}, "uniqueid": "MTK2103:3TR2532VIQ16WL8DXVPRN19SILFJ6I", "dateTime": 1516730063547}, {"current_trial": 189, "trialdata": {"rt": [3116, 7476, 11444], "trial_type": "math-distractor", "key_times": [2508, 2924, 3116, 6908, 7316, 7476, 10764, 11308, 11444], "responses": ["15", "14", "17"], "num2": [3, 3, 8, 5], "num3": [6, 7, 9, 1], "conditions": [12, 800, "v", 12000], "internal_node_id": "0.0-135.0", "key_presses": [49, 53, 13, 49, 52, 13, 49, 55, 13], "trial": 6, "time_elapsed": 1063913, "type": "DISTRACTOR", "trial_index": 189, "num1": [6, 4, 6, 3]}, "uniqueid": "MTK2103:3TR2532VIQ16WL8DXVPRN19SILFJ6I", "dateTime": 1516730077556}, {"current_trial": 190, "trialdata": {"rt": -1, "trial_type": "single-stim", "stimulus": "<p id=\"stim\">10</p>", "internal_node_id": "0.0-136.0-0.0", "time_elapsed": 1066919, "key_press": -1, "trial_index": 190}, "uniqueid": "MTK2103:3TR2532VIQ16WL8DXVPRN19SILFJ6I", "dateTime": 1516730080562}, {"current_trial": 191, "trialdata": {"rt": -1, "trial_type": "single-stim", "stimulus": "<p id=\"stim\">9</p>", "internal_node_id": "0.0-136.0-1.0", "time_elapsed": 1067925, "key_press": -1, "trial_index": 191}, "uniqueid": "MTK2103:3TR2532VIQ16WL8DXVPRN19SILFJ6I", "dateTime": 1516730081568}, {"current_trial": 192, "trialdata": {"rt": -1, "trial_type": "single-stim", "stimulus": "<p id=\"stim\">8</p>", "internal_node_id": "0.0-136.0-2.0", "time_elapsed": 1068929, "key_press": -1, "trial_index": 192}, "uniqueid": "MTK2103:3TR2532VIQ16WL8DXVPRN19SILFJ6I", "dateTime": 1516730082572}, {"current_trial": 193, "trialdata": {"rt": -1, "trial_type": "single-stim", "stimulus": "<p id=\"stim\">7</p>", "internal_node_id": "0.0-136.0-3.0", "time_elapsed": 1069931, "key_press": -1, "trial_index": 193}, "uniqueid": "MTK2103:3TR2532VIQ16WL8DXVPRN19SILFJ6I", "dateTime": 1516730083574}, {"current_trial": 194, "trialdata": {"rt": -1, "trial_type": "single-stim", "stimulus": "<p id=\"stim\">6</p>", "internal_node_id": "0.0-136.0-4.0", "time_elapsed": 1070935, "key_press": -1, "trial_index": 194}, "uniqueid": "MTK2103:3TR2532VIQ16WL8DXVPRN19SILFJ6I", "dateTime": 1516730084578}, {"current_trial": 195, "trialdata": {"rt": -1, "trial_type": "single-stim", "stimulus": "<p id=\"stim\">5</p>", "internal_node_id": "0.0-136.0-5.0", "time_elapsed": 1071941, "key_press": -1, "trial_index": 195}, "uniqueid": "MTK2103:3TR2532VIQ16WL8DXVPRN19SILFJ6I", "dateTime": 1516730085584}, {"current_trial": 196, "trialdata": {"rt": -1, "trial_type": "single-stim", "stimulus": "<p id=\"stim\">4</p>", "internal_node_id": "0.0-136.0-6.0", "time_elapsed": 1072945, "key_press": -1, "trial_index": 196}, "uniqueid": "MTK2103:3TR2532VIQ16WL8DXVPRN19SILFJ6I", "dateTime": 1516730086588}, {"current_trial": 197, "trialdata": {"rt": -1, "trial_type": "single-stim", "stimulus": "<p id=\"stim\">3</p>", "internal_node_id": "0.0-136.0-7.0", "time_elapsed": 1073947, "key_press": -1, "trial_index": 197}, "uniqueid": "MTK2103:3TR2532VIQ16WL8DXVPRN19SILFJ6I", "dateTime": 1516730087590}, {"current_trial": 198, "trialdata": {"rt": -1, "trial_type": "single-stim", "stimulus": "<p id=\"stim\">2</p>", "internal_node_id": "0.0-136.0-8.0", "time_elapsed": 1074951, "key_press": -1, "trial_index": 198}, "uniqueid": "MTK2103:3TR2532VIQ16WL8DXVPRN19SILFJ6I", "dateTime": 1516730088594}, {"current_trial": 199, "trialdata": {"rt": -1, "trial_type": "single-stim", "stimulus": "<p id=\"stim\">1</p>", "internal_node_id": "0.0-136.0-9.0", "time_elapsed": 1075955, "key_press": -1, "trial_index": 199}, "uniqueid": "MTK2103:3TR2532VIQ16WL8DXVPRN19SILFJ6I", "dateTime": 1516730089598}, {"current_trial": 200, "trialdata": {"rt": -1, "trial_type": "single-stim", "stimulus": "<p id=\"stim\">+</p>", "internal_node_id": "0.0-137.0-0.0", "time_elapsed": 1077458, "key_press": -1, "type": "FIXATION", "trial_index": 200}, "uniqueid": "MTK2103:3TR2532VIQ16WL8DXVPRN19SILFJ6I", "dateTime": 1516730091102}, {"current_trial": 201, "trialdata": {"rt": -1, "trial_type": "single-stim", "word": "hiker", "stimulus": "<p id=\"stim\">HIKER</p>", "conditions": [12, 800, "v", 12000], "internal_node_id": "0.0-138.0", "trial": 6, "time_elapsed": 1078260, "serialpos": 0, "key_press": -1, "wordID": 707, "type": "PRES_VIS", "trial_index": 201}, "uniqueid": "MTK2103:3TR2532VIQ16WL8DXVPRN19SILFJ6I", "dateTime": 1516730091904}, {"current_trial": 202, "trialdata": {"rt": -1, "trial_type": "single-stim", "word": "bank", "stimulus": "<p id=\"stim\">BANK</p>", "conditions": [12, 800, "v", 12000], "internal_node_id": "0.0-139.0", "trial": 6, "time_elapsed": 1080262, "serialpos": 1, "key_press": -1, "wordID": 82, "type": "PRES_VIS", "trial_index": 202}, "uniqueid": "MTK2103:3TR2532VIQ16WL8DXVPRN19SILFJ6I", "dateTime": 1516730093905}, {"current_trial": 203, "trialdata": {"rt": -1, "trial_type": "single-stim", "word": "fruit", "stimulus": "<p id=\"stim\">FRUIT</p>", "conditions": [12, 800, "v", 12000], "internal_node_id": "0.0-140.0", "trial": 6, "time_elapsed": 1082123, "serialpos": 2, "key_press": -1, "wordID": 609, "type": "PRES_VIS", "trial_index": 203}, "uniqueid": "MTK2103:3TR2532VIQ16WL8DXVPRN19SILFJ6I", "dateTime": 1516730095766}, {"current_trial": 204, "trialdata": {"rt": -1, "trial_type": "single-stim", "word": "pigeon", "stimulus": "<p id=\"stim\">PIGEON</p>", "conditions": [12, 800, "v", 12000], "internal_node_id": "0.0-141.0", "trial": 6, "time_elapsed": 1083778, "serialpos": 3, "key_press": -1, "wordID": 1064, "type": "PRES_VIS", "trial_index": 204}, "uniqueid": "MTK2103:3TR2532VIQ16WL8DXVPRN19SILFJ6I", "dateTime": 1516730097422}, {"current_trial": 205, "trialdata": {"rt": -1, "trial_type": "single-stim", "word": "fox", "stimulus": "<p id=\"stim\">FOX</p>", "conditions": [12, 800, "v", 12000], "internal_node_id": "0.0-142.0", "trial": 6, "time_elapsed": 1085436, "serialpos": 4, "key_press": -1, "wordID": 597, "type": "PRES_VIS", "trial_index": 205}, "uniqueid": "MTK2103:3TR2532VIQ16WL8DXVPRN19SILFJ6I", "dateTime": 1516730099079}, {"current_trial": 206, "trialdata": {"rt": -1, "trial_type": "single-stim", "word": "softball", "stimulus": "<p id=\"stim\">SOFTBALL</p>", "conditions": [12, 800, "v", 12000], "internal_node_id": "0.0-143.0", "trial": 6, "time_elapsed": 1087215, "serialpos": 5, "key_press": -1, "wordID": 1342, "type": "PRES_VIS", "trial_index": 206}, "uniqueid": "MTK2103:3TR2532VIQ16WL8DXVPRN19SILFJ6I", "dateTime": 1516730100858}, {"current_trial": 207, "trialdata": {"rt": -1, "trial_type": "single-stim", "word": "actress", "stimulus": "<p id=\"stim\">ACTRESS</p>", "conditions": [12, 800, "v", 12000], "internal_node_id": "0.0-144.0", "trial": 6, "time_elapsed": 1088956, "serialpos": 6, "key_press": -1, "wordID": 5, "type": "PRES_VIS", "trial_index": 207}, "uniqueid": "MTK2103:3TR2532VIQ16WL8DXVPRN19SILFJ6I", "dateTime": 1516730102599}, {"current_trial": 208, "trialdata": {"rt": -1, "trial_type": "single-stim", "word": "mummy", "stimulus": "<p id=\"stim\">MUMMY</p>", "conditions": [12, 800, "v", 12000], "internal_node_id": "0.0-145.0", "trial": 6, "time_elapsed": 1090761, "serialpos": 7, "key_press": -1, "wordID": 931, "type": "PRES_VIS", "trial_index": 208}, "uniqueid": "MTK2103:3TR2532VIQ16WL8DXVPRN19SILFJ6I", "dateTime": 1516730104404}, {"current_trial": 209, "trialdata": {"rt": -1, "trial_type": "single-stim", "word": "crib", "stimulus": "<p id=\"stim\">CRIB</p>", "conditions": [12, 800, "v", 12000], "internal_node_id": "0.0-146.0", "trial": 6, "time_elapsed": 1092476, "serialpos": 8, "key_press": -1, "wordID": 406, "type": "PRES_VIS", "trial_index": 209}, "uniqueid": "MTK2103:3TR2532VIQ16WL8DXVPRN19SILFJ6I", "dateTime": 1516730106119}, {"current_trial": 210, "trialdata": {"rt": -1, "trial_type": "single-stim", "word": "rebel", "stimulus": "<p id=\"stim\">REBEL</p>", "conditions": [12, 800, "v", 12000], "internal_node_id": "0.0-147.0", "trial": 6, "time_elapsed": 1094214, "serialpos": 9, "key_press": -1, "wordID": 1171, "type": "PRES_VIS", "trial_index": 210}, "uniqueid": "MTK2103:3TR2532VIQ16WL8DXVPRN19SILFJ6I", "dateTime": 1516730107857}, {"current_trial": 211, "trialdata": {"rt": -1, "trial_type": "single-stim", "word": "citrus", "stimulus": "<p id=\"stim\">CITRUS</p>", "conditions": [12, 800, "v", 12000], "internal_node_id": "0.0-148.0", "trial": 6, "time_elapsed": 1096123, "serialpos": 10, "key_press": -1, "wordID": 312, "type": "PRES_VIS", "trial_index": 211}, "uniqueid": "MTK2103:3TR2532VIQ16WL8DXVPRN19SILFJ6I", "dateTime": 1516730109767}, {"current_trial": 212, "trialdata": {"rt": -1, "trial_type": "single-stim", "word": "buggy", "stimulus": "<p id=\"stim\">BUGGY</p>", "conditions": [12, 800, "v", 12000], "internal_node_id": "0.0-149.0", "trial": 6, "time_elapsed": 1097790, "serialpos": 11, "key_press": -1, "wordID": 187, "type": "PRES_VIS", "trial_index": 212}, "uniqueid": "MTK2103:3TR2532VIQ16WL8DXVPRN19SILFJ6I", "dateTime": 1516730111433}, {"current_trial": 213, "trialdata": {"rt": -1, "trial_type": "single-stim", "stimulus": "", "internal_node_id": "0.0-150.0-0.0", "time_elapsed": 1100093, "key_press": -1, "type": "PRE_RECALL_DELAY", "trial_index": 213}, "uniqueid": "MTK2103:3TR2532VIQ16WL8DXVPRN19SILFJ6I", "dateTime": 1516730113736}, {"current_trial": 214, "trialdata": {"rt": -1000, "trial_type": "single-audio", "stimulus": "/static/audio/400Hz.wav", "internal_node_id": "0.0-151.0", "time_elapsed": 1100594, "key_press": -1, "type": "PRE_RECALL_ALERT", "trial_index": 214}, "uniqueid": "MTK2103:3TR2532VIQ16WL8DXVPRN19SILFJ6I", "dateTime": 1516730114238}, {"current_trial": 215, "trialdata": {"rt": [2093, 3077, 5477, 7333], "recwords": ["citrus", "fruit", "pigeon", "fox"], "key_times": [486, 726, 861, 1645, 1805, 1933, 2093, 2341, 2477, 2653, 2758, 2877, 3077, 3341, 3565, 3845, 4005, 4149, 4285, 4653, 4813, 5165, 5301, 5477, 6261, 6725, 7196, 7333], "trial_type": "free-recall", "conditions": [12, 800, "v", 12000], "internal_node_id": "0.0-152.0-0.0", "key_presses": [67, 73, 84, 82, 85, 83, 13, 70, 82, 85, 73, 84, 13, 80, 73, 71, 69, 78, 79, 8, 8, 79, 78, 13, 70, 79, 88, 13], "trial": 6, "time_elapsed": 1160601, "type": "FREE_RECALL", "trial_index": 215}, "uniqueid": "MTK2103:3TR2532VIQ16WL8DXVPRN19SILFJ6I", "dateTime": 1516730174247}, {"current_trial": 216, "trialdata": {"rt": 883, "trial_type": "text", "internal_node_id": "0.0-153.0", "time_elapsed": 1163489, "key_press": 32, "type": "INSTRUCTIONS", "trial_index": 216}, "uniqueid": "MTK2103:3TR2532VIQ16WL8DXVPRN19SILFJ6I", "dateTime": 1516730177132}, {"current_trial": 217, "trialdata": {"rt": [1914, 6817, 9433], "trial_type": "math-distractor", "key_times": [1737, 1914, 6369, 6466, 6626, 6817, 8882, 9201, 9433], "responses": ["9", "17'", "14"], "num2": [1, 6, 8, 1], "num3": [7, 5, 6, 9], "conditions": [24, 800, "v", 12000], "internal_node_id": "0.0-154.0", "key_presses": [57, 13, 49, 55, 222, 13, 49, 52, 13], "trial": 7, "time_elapsed": 1177496, "type": "DISTRACTOR", "trial_index": 217, "num1": [1, 6, 4, 1]}, "uniqueid": "MTK2103:3TR2532VIQ16WL8DXVPRN19SILFJ6I", "dateTime": 1516730191139}, {"current_trial": 218, "trialdata": {"rt": -1, "trial_type": "single-stim", "stimulus": "<p id=\"stim\">10</p>", "internal_node_id": "0.0-155.0-0.0", "time_elapsed": 1180502, "key_press": -1, "trial_index": 218}, "uniqueid": "MTK2103:3TR2532VIQ16WL8DXVPRN19SILFJ6I", "dateTime": 1516730194145}, {"current_trial": 219, "trialdata": {"rt": -1, "trial_type": "single-stim", "stimulus": "<p id=\"stim\">9</p>", "internal_node_id": "0.0-155.0-1.0", "time_elapsed": 1181506, "key_press": -1, "trial_index": 219}, "uniqueid": "MTK2103:3TR2532VIQ16WL8DXVPRN19SILFJ6I", "dateTime": 1516730195149}, {"current_trial": 220, "trialdata": {"rt": -1, "trial_type": "single-stim", "stimulus": "<p id=\"stim\">8</p>", "internal_node_id": "0.0-155.0-2.0", "time_elapsed": 1182510, "key_press": -1, "trial_index": 220}, "uniqueid": "MTK2103:3TR2532VIQ16WL8DXVPRN19SILFJ6I", "dateTime": 1516730196154}, {"current_trial": 221, "trialdata": {"rt": -1, "trial_type": "single-stim", "stimulus": "<p id=\"stim\">7</p>", "internal_node_id": "0.0-155.0-3.0", "time_elapsed": 1183516, "key_press": -1, "trial_index": 221}, "uniqueid": "MTK2103:3TR2532VIQ16WL8DXVPRN19SILFJ6I", "dateTime": 1516730197159}, {"current_trial": 222, "trialdata": {"rt": -1, "trial_type": "single-stim", "stimulus": "<p id=\"stim\">6</p>", "internal_node_id": "0.0-155.0-4.0", "time_elapsed": 1184518, "key_press": -1, "trial_index": 222}, "uniqueid": "MTK2103:3TR2532VIQ16WL8DXVPRN19SILFJ6I", "dateTime": 1516730198161}, {"current_trial": 223, "trialdata": {"rt": -1, "trial_type": "single-stim", "stimulus": "<p id=\"stim\">5</p>", "internal_node_id": "0.0-155.0-5.0", "time_elapsed": 1185522, "key_press": -1, "trial_index": 223}, "uniqueid": "MTK2103:3TR2532VIQ16WL8DXVPRN19SILFJ6I", "dateTime": 1516730199165}, {"current_trial": 224, "trialdata": {"rt": -1, "trial_type": "single-stim", "stimulus": "<p id=\"stim\">4</p>", "internal_node_id": "0.0-155.0-6.0", "time_elapsed": 1186526, "key_press": -1, "trial_index": 224}, "uniqueid": "MTK2103:3TR2532VIQ16WL8DXVPRN19SILFJ6I", "dateTime": 1516730200170}, {"current_trial": 225, "trialdata": {"rt": -1, "trial_type": "single-stim", "stimulus": "<p id=\"stim\">3</p>", "internal_node_id": "0.0-155.0-7.0", "time_elapsed": 1187530, "key_press": -1, "trial_index": 225}, "uniqueid": "MTK2103:3TR2532VIQ16WL8DXVPRN19SILFJ6I", "dateTime": 1516730201173}, {"current_trial": 226, "trialdata": {"rt": -1, "trial_type": "single-stim", "stimulus": "<p id=\"stim\">2</p>", "internal_node_id": "0.0-155.0-8.0", "time_elapsed": 1188534, "key_press": -1, "trial_index": 226}, "uniqueid": "MTK2103:3TR2532VIQ16WL8DXVPRN19SILFJ6I", "dateTime": 1516730202178}, {"current_trial": 227, "trialdata": {"rt": -1, "trial_type": "single-stim", "stimulus": "<p id=\"stim\">1</p>", "internal_node_id": "0.0-155.0-9.0", "time_elapsed": 1189539, "key_press": -1, "trial_index": 227}, "uniqueid": "MTK2103:3TR2532VIQ16WL8DXVPRN19SILFJ6I", "dateTime": 1516730203182}, {"current_trial": 228, "trialdata": {"rt": -1, "trial_type": "single-stim", "stimulus": "<p id=\"stim\">+</p>", "internal_node_id": "0.0-156.0-0.0", "time_elapsed": 1191043, "key_press": -1, "type": "FIXATION", "trial_index": 228}, "uniqueid": "MTK2103:3TR2532VIQ16WL8DXVPRN19SILFJ6I", "dateTime": 1516730204686}, {"current_trial": 229, "trialdata": {"rt": -1, "trial_type": "single-stim", "word": "slide", "stimulus": "<p id=\"stim\">SLIDE</p>", "conditions": [24, 800, "v", 12000], "internal_node_id": "0.0-157.0", "trial": 7, "time_elapsed": 1191849, "serialpos": 0, "key_press": -1, "wordID": 1325, "type": "PRES_VIS", "trial_index": 229}, "uniqueid": "MTK2103:3TR2532VIQ16WL8DXVPRN19SILFJ6I", "dateTime": 1516730205492}, {"current_trial": 230, "trialdata": {"rt": -1, "trial_type": "single-stim", "word": "dandruff", "stimulus": "<p id=\"stim\">DANDRUFF</p>", "conditions": [24, 800, "v", 12000], "internal_node_id": "0.0-158.0", "trial": 7, "time_elapsed": 1193630, "serialpos": 1, "key_press": -1, "wordID": 438, "type": "PRES_VIS", "trial_index": 230}, "uniqueid": "MTK2103:3TR2532VIQ16WL8DXVPRN19SILFJ6I", "dateTime": 1516730207273}, {"current_trial": 231, "trialdata": {"rt": -1, "trial_type": "single-stim", "word": "blouse", "stimulus": "<p id=\"stim\">BLOUSE</p>", "conditions": [24, 800, "v", 12000], "internal_node_id": "0.0-159.0", "trial": 7, "time_elapsed": 1195539, "serialpos": 2, "key_press": -1, "wordID": 138, "type": "PRES_VIS", "trial_index": 231}, "uniqueid": "MTK2103:3TR2532VIQ16WL8DXVPRN19SILFJ6I", "dateTime": 1516730209182}, {"current_trial": 232, "trialdata": {"rt": -1, "trial_type": "single-stim", "word": "possum", "stimulus": "<p id=\"stim\">POSSUM</p>", "conditions": [24, 800, "v", 12000], "internal_node_id": "0.0-160.0", "trial": 7, "time_elapsed": 1197333, "serialpos": 3, "key_press": -1, "wordID": 1111, "type": "PRES_VIS", "trial_index": 232}, "uniqueid": "MTK2103:3TR2532VIQ16WL8DXVPRN19SILFJ6I", "dateTime": 1516730210976}, {"current_trial": 233, "trialdata": {"rt": -1, "trial_type": "single-stim", "word": "sister", "stimulus": "<p id=\"stim\">SISTER</p>", "conditions": [24, 800, "v", 12000], "internal_node_id": "0.0-161.0", "trial": 7, "time_elapsed": 1198992, "serialpos": 4, "key_press": -1, "wordID": 1311, "type": "PRES_VIS", "trial_index": 233}, "uniqueid": "MTK2103:3TR2532VIQ16WL8DXVPRN19SILFJ6I", "dateTime": 1516730212635}, {"current_trial": 234, "trialdata": {"rt": -1, "trial_type": "single-stim", "word": "powder", "stimulus": "<p id=\"stim\">POWDER</p>", "conditions": [24, 800, "v", 12000], "internal_node_id": "0.0-162.0", "trial": 7, "time_elapsed": 1200920, "serialpos": 5, "key_press": -1, "wordID": 1116, "type": "PRES_VIS", "trial_index": 234}, "uniqueid": "MTK2103:3TR2532VIQ16WL8DXVPRN19SILFJ6I", "dateTime": 1516730214563}, {"current_trial": 235, "trialdata": {"rt": -1, "trial_type": "single-stim", "word": "casket", "stimulus": "<p id=\"stim\">CASKET</p>", "conditions": [24, 800, "v", 12000], "internal_node_id": "0.0-163.0", "trial": 7, "time_elapsed": 1202825, "serialpos": 6, "key_press": -1, "wordID": 254, "type": "PRES_VIS", "trial_index": 235}, "uniqueid": "MTK2103:3TR2532VIQ16WL8DXVPRN19SILFJ6I", "dateTime": 1516730216468}, {"current_trial": 236, "trialdata": {"rt": -1, "trial_type": "single-stim", "word": "velvet", "stimulus": "<p id=\"stim\">VELVET</p>", "conditions": [24, 800, "v", 12000], "internal_node_id": "0.0-164.0", "trial": 7, "time_elapsed": 1204582, "serialpos": 7, "key_press": -1, "wordID": 1554, "type": "PRES_VIS", "trial_index": 236}, "uniqueid": "MTK2103:3TR2532VIQ16WL8DXVPRN19SILFJ6I", "dateTime": 1516730218225}, {"current_trial": 237, "trialdata": {"rt": -1, "trial_type": "single-stim", "word": "hatchet", "stimulus": "<p id=\"stim\">HATCHET</p>", "conditions": [24, 800, "v", 12000], "internal_node_id": "0.0-165.0", "trial": 7, "time_elapsed": 1206516, "serialpos": 8, "key_press": -1, "wordID": 690, "type": "PRES_VIS", "trial_index": 237}, "uniqueid": "MTK2103:3TR2532VIQ16WL8DXVPRN19SILFJ6I", "dateTime": 1516730220159}, {"current_trial": 238, "trialdata": {"rt": -1, "trial_type": "single-stim", "word": "razor", "stimulus": "<p id=\"stim\">RAZOR</p>", "conditions": [24, 800, "v", 12000], "internal_node_id": "0.0-166.0", "trial": 7, "time_elapsed": 1208204, "serialpos": 9, "key_press": -1, "wordID": 1170, "type": "PRES_VIS", "trial_index": 238}, "uniqueid": "MTK2103:3TR2532VIQ16WL8DXVPRN19SILFJ6I", "dateTime": 1516730221847}, {"current_trial": 239, "trialdata": {"rt": -1, "trial_type": "single-stim", "word": "blade", "stimulus": "<p id=\"stim\">BLADE</p>", "conditions": [24, 800, "v", 12000], "internal_node_id": "0.0-167.0", "trial": 7, "time_elapsed": 1210159, "serialpos": 10, "key_press": -1, "wordID": 133, "type": "PRES_VIS", "trial_index": 239}, "uniqueid": "MTK2103:3TR2532VIQ16WL8DXVPRN19SILFJ6I", "dateTime": 1516730223803}, {"current_trial": 240, "trialdata": {"rt": -1, "trial_type": "single-stim", "word": "wife", "stimulus": "<p id=\"stim\">WIFE</p>", "conditions": [24, 800, "v", 12000], "internal_node_id": "0.0-168.0", "trial": 7, "time_elapsed": 1212028, "serialpos": 11, "key_press": -1, "wordID": 1608, "type": "PRES_VIS", "trial_index": 240}, "uniqueid": "MTK2103:3TR2532VIQ16WL8DXVPRN19SILFJ6I", "dateTime": 1516730225671}, {"current_trial": 241, "trialdata": {"rt": -1, "trial_type": "single-stim", "word": "dolphin", "stimulus": "<p id=\"stim\">DOLPHIN</p>", "conditions": [24, 800, "v", 12000], "internal_node_id": "0.0-169.0", "trial": 7, "time_elapsed": 1213827, "serialpos": 12, "key_press": -1, "wordID": 482, "type": "PRES_VIS", "trial_index": 241}, "uniqueid": "MTK2103:3TR2532VIQ16WL8DXVPRN19SILFJ6I", "dateTime": 1516730227471}, {"current_trial": 242, "trialdata": {"rt": -1, "trial_type": "single-stim", "word": "butcher", "stimulus": "<p id=\"stim\">BUTCHER</p>", "conditions": [24, 800, "v", 12000], "internal_node_id": "0.0-170.0", "trial": 7, "time_elapsed": 1215482, "serialpos": 13, "key_press": -1, "wordID": 202, "type": "PRES_VIS", "trial_index": 242}, "uniqueid": "MTK2103:3TR2532VIQ16WL8DXVPRN19SILFJ6I", "dateTime": 1516730229125}, {"current_trial": 243, "trialdata": {"rt": -1, "trial_type": "single-stim", "word": "laser", "stimulus": "<p id=\"stim\">LASER</p>", "conditions": [24, 800, "v", 12000], "internal_node_id": "0.0-171.0", "trial": 7, "time_elapsed": 1217460, "serialpos": 14, "key_press": -1, "wordID": 800, "type": "PRES_VIS", "trial_index": 243}, "uniqueid": "MTK2103:3TR2532VIQ16WL8DXVPRN19SILFJ6I", "dateTime": 1516730231104}, {"current_trial": 244, "trialdata": {"rt": -1, "trial_type": "single-stim", "word": "penguin", "stimulus": "<p id=\"stim\">PENGUIN</p>", "conditions": [24, 800, "v", 12000], "internal_node_id": "0.0-172.0", "trial": 7, "time_elapsed": 1219422, "serialpos": 15, "key_press": -1, "wordID": 1043, "type": "PRES_VIS", "trial_index": 244}, "uniqueid": "MTK2103:3TR2532VIQ16WL8DXVPRN19SILFJ6I", "dateTime": 1516730233065}, {"current_trial": 245, "trialdata": {"rt": -1, "trial_type": "single-stim", "word": "drink", "stimulus": "<p id=\"stim\">DRINK</p>", "conditions": [24, 800, "v", 12000], "internal_node_id": "0.0-173.0", "trial": 7, "time_elapsed": 1221303, "serialpos": 16, "key_press": -1, "wordID": 497, "type": "PRES_VIS", "trial_index": 245}, "uniqueid": "MTK2103:3TR2532VIQ16WL8DXVPRN19SILFJ6I", "dateTime": 1516730234946}, {"current_trial": 246, "trialdata": {"rt": -1, "trial_type": "single-stim", "word": "grape", "stimulus": "<p id=\"stim\">GRAPE</p>", "conditions": [24, 800, "v", 12000], "internal_node_id": "0.0-174.0", "trial": 7, "time_elapsed": 1223034, "serialpos": 17, "key_press": -1, "wordID": 653, "type": "PRES_VIS", "trial_index": 246}, "uniqueid": "MTK2103:3TR2532VIQ16WL8DXVPRN19SILFJ6I", "dateTime": 1516730236677}, {"current_trial": 247, "trialdata": {"rt": -1, "trial_type": "single-stim", "word": "box", "stimulus": "<p id=\"stim\">BOX</p>", "conditions": [24, 800, "v", 12000], "internal_node_id": "0.0-175.0", "trial": 7, "time_elapsed": 1224724, "serialpos": 18, "key_press": -1, "wordID": 158, "type": "PRES_VIS", "trial_index": 247}, "uniqueid": "MTK2103:3TR2532VIQ16WL8DXVPRN19SILFJ6I", "dateTime": 1516730238367}, {"current_trial": 248, "trialdata": {"rt": -1, "trial_type": "single-stim", "word": "husband", "stimulus": "<p id=\"stim\">HUSBAND</p>", "conditions": [24, 800, "v", 12000], "internal_node_id": "0.0-176.0", "trial": 7, "time_elapsed": 1226563, "serialpos": 19, "key_press": -1, "wordID": 727, "type": "PRES_VIS", "trial_index": 248}, "uniqueid": "MTK2103:3TR2532VIQ16WL8DXVPRN19SILFJ6I", "dateTime": 1516730240207}, {"current_trial": 249, "trialdata": {"rt": -1, "trial_type": "single-stim", "word": "maple", "stimulus": "<p id=\"stim\">MAPLE</p>", "conditions": [24, 800, "v", 12000], "internal_node_id": "0.0-177.0", "trial": 7, "time_elapsed": 1228341, "serialpos": 20, "key_press": -1, "wordID": 865, "type": "PRES_VIS", "trial_index": 249}, "uniqueid": "MTK2103:3TR2532VIQ16WL8DXVPRN19SILFJ6I", "dateTime": 1516730241985}, {"current_trial": 250, "trialdata": {"rt": -1, "trial_type": "single-stim", "word": "candy", "stimulus": "<p id=\"stim\">CANDY</p>", "conditions": [24, 800, "v", 12000], "internal_node_id": "0.0-178.0", "trial": 7, "time_elapsed": 1230078, "serialpos": 21, "key_press": -1, "wordID": 229, "type": "PRES_VIS", "trial_index": 250}, "uniqueid": "MTK2103:3TR2532VIQ16WL8DXVPRN19SILFJ6I", "dateTime": 1516730243721}, {"current_trial": 251, "trialdata": {"rt": -1, "trial_type": "single-stim", "word": "snack", "stimulus": "<p id=\"stim\">SNACK</p>", "conditions": [24, 800, "v", 12000], "internal_node_id": "0.0-179.0", "trial": 7, "time_elapsed": 1231744, "serialpos": 22, "key_press": -1, "wordID": 1330, "type": "PRES_VIS", "trial_index": 251}, "uniqueid": "MTK2103:3TR2532VIQ16WL8DXVPRN19SILFJ6I", "dateTime": 1516730245387}, {"current_trial": 252, "trialdata": {"rt": -1, "trial_type": "single-stim", "word": "scalpel", "stimulus": "<p id=\"stim\">SCALPEL</p>", "conditions": [24, 800, "v", 12000], "internal_node_id": "0.0-180.0", "trial": 7, "time_elapsed": 1233536, "serialpos": 23, "key_press": -1, "wordID": 1242, "type": "PRES_VIS", "trial_index": 252}, "uniqueid": "MTK2103:3TR2532VIQ16WL8DXVPRN19SILFJ6I", "dateTime": 1516730247179}, {"current_trial": 253, "trialdata": {"rt": -1, "trial_type": "single-stim", "stimulus": "", "internal_node_id": "0.0-181.0-0.0", "time_elapsed": 1235765, "key_press": -1, "type": "PRE_RECALL_DELAY", "trial_index": 253}, "uniqueid": "MTK2103:3TR2532VIQ16WL8DXVPRN19SILFJ6I", "dateTime": 1516730249408}, {"current_trial": 254, "trialdata": {"rt": -1000, "trial_type": "single-audio", "stimulus": "/static/audio/400Hz.wav", "internal_node_id": "0.0-182.0", "time_elapsed": 1236267, "key_press": -1, "type": "PRE_RECALL_ALERT", "trial_index": 254}, "uniqueid": "MTK2103:3TR2532VIQ16WL8DXVPRN19SILFJ6I", "dateTime": 1516730249911}, {"current_trial": 255, "trialdata": {"rt": [2817, 4361, 5545, 7009, 8145, 10497], "recwords": ["scalpel", "husband", "sistter", "sister", "slide", "blouse"], "key_times": [978, 1257, 1449, 1706, 1946, 2193, 2465, 2817, 3177, 3265, 3393, 3570, 3802, 4057, 4146, 4361, 4561, 4673, 4778, 5050, 5137, 5265, 5377, 5545, 6145, 6321, 6385, 6593, 6745, 6849, 7009, 7353, 7465, 7650, 7809, 7921, 8145, 8625, 8953, 9185, 9401, 9529, 9801, 10497], "trial_type": "free-recall", "conditions": [24, 800, "v", 12000], "internal_node_id": "0.0-183.0-0.0", "key_presses": [83, 67, 65, 76, 80, 69, 76, 13, 72, 85, 83, 66, 65, 78, 68, 13, 83, 73, 83, 84, 84, 69, 82, 13, 83, 73, 83, 84, 69, 82, 13, 83, 76, 73, 68, 69, 13, 66, 76, 79, 85, 83, 69, 13], "trial": 7, "time_elapsed": 1296270, "type": "FREE_RECALL", "trial_index": 255}, "uniqueid": "MTK2103:3TR2532VIQ16WL8DXVPRN19SILFJ6I", "dateTime": 1516730309917}, {"current_trial": 256, "trialdata": {"rt": 24945, "trial_type": "text", "internal_node_id": "0.0-184.0", "time_elapsed": 1323222, "key_press": 32, "type": "INSTRUCTIONS", "trial_index": 256}, "uniqueid": "MTK2103:3TR2532VIQ16WL8DXVPRN19SILFJ6I", "dateTime": 1516730336865}, {"current_trial": 257, "trialdata": {"rt": [1944, 4736, 6512, 8528, 10264], "trial_type": "math-distractor", "key_times": [1656, 1792, 1944, 4096, 4620, 4736, 6176, 6392, 6512, 7712, 8465, 8528, 9991, 10128, 10264], "responses": ["10", "16", "18", "13", "13"], "num2": [1, 5, 2, 3, 5, 3], "num3": [3, 9, 9, 7, 6, 4], "conditions": [24, 1600, "v", 12000], "internal_node_id": "0.0-185.0", "key_presses": [49, 48, 13, 49, 54, 13, 49, 56, 13, 49, 51, 13, 49, 51, 13], "trial": 8, "time_elapsed": 1337233, "type": "DISTRACTOR", "trial_index": 257, "num1": [6, 2, 7, 3, 2, 3]}, "uniqueid": "MTK2103:3TR2532VIQ16WL8DXVPRN19SILFJ6I", "dateTime": 1516730350876}, {"current_trial": 258, "trialdata": {"rt": -1, "trial_type": "single-stim", "stimulus": "<p id=\"stim