{"assignmentId": "3XLBSAQ9Z5JF00RMYRX5H9XEZ7GZ7F", "workerId": "MTK2718", "questiondata": {"origin": "United States", "strat-rehearsal": "60", "marital": "Single", "education": "High school diploma", "ethnicity": "Hispanic", "color_depth": 24, "distracted": "Yes", "wrote-notes": "Yes", "strat-other": "I used descriptions of the word or categories by section", "screen_width": 1280, "avail_screen_width": 1280, "avail_screen_height": 777, "strat-image": "58", "language": "English", "gender": "Female", "age": "20", "gender_other": "", "race": ["White"], "strat-categorize": "45", "pixel_depth": 24, "strat-spatial": "23", "strat-story": "44", "race_other": "", "screen_height": 800}, "bonus": 0, "hitId": "3GV1I4SEO9WA4RYJAEW2EWQ04F76LB", "counterbalance": 2229, "useragent": "Mozilla/5.0 (Macintosh; Intel Mac OS X 10_13_3) AppleWebKit/537.36 (KHTML, like Gecko) Chrome/64.0.3282.167 Safari/537.36", "eventdata": [{"eventtype": "initialized", "interval": 0, "value": null, "timestamp": 1519251321295}, {"eventtype": "window_resize", "interval": 0, "value": [1280, 726], "timestamp": 1519251321295}], "data": [{"current_trial": 0, "trialdata": {"rt": 2580, "trial_type": "text", "internal_node_id": "0.0-0.0", "time_elapsed": 2582, "key_press": 32, "type": "INSTRUCTIONS", "trial_index": 0}, "uniqueid": "MTK2718:3XLBSAQ9Z5JF00RMYRX5H9XEZ7GZ7F", "dateTime": 1519251324104}, {"current_trial": 1, "trialdata": {"rt": 15288, "trial_type": "text", "internal_node_id": "0.0-1.0", "time_elapsed": 17874, "key_press": 32, "type": "INSTRUCTIONS", "trial_index": 1}, "uniqueid": "MTK2718:3XLBSAQ9Z5JF00RMYRX5H9XEZ7GZ7F", "dateTime": 1519251339394}, {"current_trial": 2, "trialdata": {"rt": [4602], "trial_type": "audio-test", "responses": ["ocean"], "internal_node_id": "0.0-2.0", "time_elapsed": 22491, "type": "AUDIO_TEST", "trial_index": 2}, "uniqueid": "MTK2718:3XLBSAQ9Z5JF00RMYRX5H9XEZ7GZ7F", "dateTime": 1519251344011}, {"current_trial": 3, "trialdata": {"rt": [4235], "trial_type": "audio-test", "responses": ["crystal"], "internal_node_id": "0.0-3.0", "time_elapsed": 26730, "type": "AUDIO_TEST", "trial_index": 3}, "uniqueid": "MTK2718:3XLBSAQ9Z5JF00RMYRX5H9XEZ7GZ7F", "dateTime": 1519251348250}, {"current_trial": 4, "trialdata": {"rt": [3227], "trial_type": "audio-test", "responses": ["spice"], "internal_node_id": "0.0-4.0", "time_elapsed": 29962, "type": "AUDIO_TEST", "trial_index": 4}, "uniqueid": "MTK2718:3XLBSAQ9Z5JF00RMYRX5H9XEZ7GZ7F", "dateTime": 1519251351482}, {"current_trial": 5, "trialdata": {"rt": 13919, "trial_type": "survey-text", "responses": "{\"Q0\":\"11:00 pm\",\"Q1\":\"10:00 am\",\"Q2\":\"4\"}", "internal_node_id": "0.0-5.0", "time_elapsed": 44635, "type": "SLEEP_SURVEY", "trial_index": 5}, "uniqueid": "MTK2718:3XLBSAQ9Z5JF00RMYRX5H9XEZ7GZ7F", "dateTime": 1519251366155}, {"current_trial": 6, "trialdata": {"rt": 23875, "trial_type": "text", "internal_node_id": "0.0-6.0", "time_elapsed": 69512, "key_press": 70, "type": "INSTRUCTIONS", "trial_index": 6}, "uniqueid": "MTK2718:3XLBSAQ9Z5JF00RMYRX5H9XEZ7GZ7F", "dateTime": 1519251391032}, {"current_trial": 7, "trialdata": {"rt": 11706, "trial_type": "text", "internal_node_id": "0.0-7.0", "time_elapsed": 81720, "key_press": 32, "type": "INSTRUCTIONS", "trial_index": 7}, "uniqueid": "MTK2718:3XLBSAQ9Z5JF00RMYRX5H9XEZ7GZ7F", "dateTime": 1519251403240}, {"current_trial": 8, "trialdata": {"rt": 4518, "trial_type": "text", "internal_node_id": "0.0-8.0", "time_elapsed": 86744, "key_press": 32, "type": "INSTRUCTIONS", "trial_index": 8}, "uniqueid": "MTK2718:3XLBSAQ9Z5JF00RMYRX5H9XEZ7GZ7F", "dateTime": 1519251408264}, {"current_trial": 9, "trialdata": {"rt": [7208, 12043, 16852], "trial_type": "math-distractor", "key_times": [6704, 7016, 7208, 11555, 11827, 12043, 16259, 16619, 16852], "responses": ["16", "14", "18"], "num2": [3, 3, 9, 3], "num3": [8, 3, 1, 5], "conditions": [18, 1200, "v", 18000], "internal_node_id": "0.0-9.0", "key_presses": [49, 54, 13, 49, 52, 13, 49, 56, 13], "trial": 0, "time_elapsed": 105749, "type": "DISTRACTOR", "trial_index": 9, "num1": [5, 8, 8, 3]}, "uniqueid": "MTK2718:3XLBSAQ9Z5JF00RMYRX5H9XEZ7GZ7F", "dateTime": 1519251427269}, {"current_trial": 10, "trialdata": {"rt": -1, "trial_type": "single-stim", "stimulus": "<p id=\"stim\">10</p>", "internal_node_id": "0.0-10.0-0.0", "time_elapsed": 108757, "key_press": -1, "trial_index": 10}, "uniqueid": "MTK2718:3XLBSAQ9Z5JF00RMYRX5H9XEZ7GZ7F", "dateTime": 1519251430277}, {"current_trial": 11, "trialdata": {"rt": -1, "trial_type": "single-stim", "stimulus": "<p id=\"stim\">9</p>", "internal_node_id": "0.0-10.0-1.0", "time_elapsed": 109761, "key_press": -1, "trial_index": 11}, "uniqueid": "MTK2718:3XLBSAQ9Z5JF00RMYRX5H9XEZ7GZ7F", "dateTime": 1519251431281}, {"current_trial": 12, "trialdata": {"rt": -1, "trial_type": "single-stim", "stimulus": "<p id=\"stim\">8</p>", "internal_node_id": "0.0-10.0-2.0", "time_elapsed": 110764, "key_press": -1, "trial_index": 12}, "uniqueid": "MTK2718:3XLBSAQ9Z5JF00RMYRX5H9XEZ7GZ7F", "dateTime": 1519251432284}, {"current_trial": 13, "trialdata": {"rt": -1, "trial_type": "single-stim", "stimulus": "<p id=\"stim\">7</p>", "internal_node_id": "0.0-10.0-3.0", "time_elapsed": 111768, "key_press": -1, "trial_index": 13}, "uniqueid": "MTK2718:3XLBSAQ9Z5JF00RMYRX5H9XEZ7GZ7F", "dateTime": 1519251433288}, {"current_trial": 14, "trialdata": {"rt": -1, "trial_type": "single-stim", "stimulus": "<p id=\"stim\">6</p>", "internal_node_id": "0.0-10.0-4.0", "time_elapsed": 112772, "key_press": -1, "trial_index": 14}, "uniqueid": "MTK2718:3XLBSAQ9Z5JF00RMYRX5H9XEZ7GZ7F", "dateTime": 1519251434293}, {"current_trial": 15, "trialdata": {"rt": -1, "trial_type": "single-stim", "stimulus": "<p id=\"stim\">5</p>", "internal_node_id": "0.0-10.0-5.0", "time_elapsed": 113776, "key_press": -1, "trial_index": 15}, "uniqueid": "MTK2718:3XLBSAQ9Z5JF00RMYRX5H9XEZ7GZ7F", "dateTime": 1519251435296}, {"current_trial": 16, "trialdata": {"rt": -1, "trial_type": "single-stim", "stimulus": "<p id=\"stim\">4</p>", "internal_node_id": "0.0-10.0-6.0", "time_elapsed": 114781, "key_press": -1, "trial_index": 16}, "uniqueid": "MTK2718:3XLBSAQ9Z5JF00RMYRX5H9XEZ7GZ7F", "dateTime": 1519251436301}, {"current_trial": 17, "trialdata": {"rt": -1, "trial_type": "single-stim", "stimulus": "<p id=\"stim\">3</p>", "internal_node_id": "0.0-10.0-7.0", "time_elapsed": 115785, "key_press": -1, "trial_index": 17}, "uniqueid": "MTK2718:3XLBSAQ9Z5JF00RMYRX5H9XEZ7GZ7F", "dateTime": 1519251437306}, {"current_trial": 18, "trialdata": {"rt": -1, "trial_type": "single-stim", "stimulus": "<p id=\"stim\">2</p>", "internal_node_id": "0.0-10.0-8.0", "time_elapsed": 116789, "key_press": -1, "trial_index": 18}, "uniqueid": "MTK2718:3XLBSAQ9Z5JF00RMYRX5H9XEZ7GZ7F", "dateTime": 1519251438309}, {"current_trial": 19, "trialdata": {"rt": -1, "trial_type": "single-stim", "stimulus": "<p id=\"stim\">1</p>", "internal_node_id": "0.0-10.0-9.0", "time_elapsed": 117793, "key_press": -1, "trial_index": 19}, "uniqueid": "MTK2718:3XLBSAQ9Z5JF00RMYRX5H9XEZ7GZ7F", "dateTime": 1519251439313}, {"current_trial": 20, "trialdata": {"rt": -1, "trial_type": "single-stim", "stimulus": "<p id=\"stim\">+</p>", "internal_node_id": "0.0-11.0-0.0", "time_elapsed": 119296, "key_press": -1, "type": "FIXATION", "trial_index": 20}, "uniqueid": "MTK2718:3XLBSAQ9Z5JF00RMYRX5H9XEZ7GZ7F", "dateTime": 1519251440816}, {"current_trial": 21, "trialdata": {"rt": -1, "trial_type": "single-stim", "word": "raft", "stimulus": "<p id=\"stim\">RAFT</p>", "conditions": [18, 1200, "v", 18000], "internal_node_id": "0.0-12.0", "trial": 0, "time_elapsed": 120498, "serialpos": 0, "key_press": -1, "wordID": 1158, "type": "PRES_VIS", "trial_index": 21}, "uniqueid": "MTK2718:3XLBSAQ9Z5JF00RMYRX5H9XEZ7GZ7F", "dateTime": 1519251442018}, {"current_trial": 22, "trialdata": {"rt": -1, "trial_type": "single-stim", "word": "omelet", "stimulus": "<p id=\"stim\">OMELET</p>", "conditions": [18, 1200, "v", 18000], "internal_node_id": "0.0-13.0", "trial": 0, "time_elapsed": 122772, "serialpos": 1, "key_press": -1, "wordID": 975, "type": "PRES_VIS", "trial_index": 22}, "uniqueid": "MTK2718:3XLBSAQ9Z5JF00RMYRX5H9XEZ7GZ7F", "dateTime": 1519251444292}, {"current_trial": 23, "trialdata": {"rt": -1, "trial_type": "single-stim", "word": "salmon", "stimulus": "<p id=\"stim\">SALMON</p>", "conditions": [18, 1200, "v", 18000], "internal_node_id": "0.0-14.0", "trial": 0, "time_elapsed": 124972, "serialpos": 2, "key_press": -1, "wordID": 1226, "type": "PRES_VIS", "trial_index": 23}, "uniqueid": "MTK2718:3XLBSAQ9Z5JF00RMYRX5H9XEZ7GZ7F", "dateTime": 1519251446492}, {"current_trial": 24, "trialdata": {"rt": -1, "trial_type": "single-stim", "word": "virus", "stimulus": "<p id=\"stim\">VIRUS</p>", "conditions": [18, 1200, "v", 18000], "internal_node_id": "0.0-15.0", "trial": 0, "time_elapsed": 127294, "serialpos": 3, "key_press": -1, "wordID": 1571, "type": "PRES_VIS", "trial_index": 24}, "uniqueid": "MTK2718:3XLBSAQ9Z5JF00RMYRX5H9XEZ7GZ7F", "dateTime": 1519251448815}, {"current_trial": 25, "trialdata": {"rt": -1, "trial_type": "single-stim", "word": "banjo", "stimulus": "<p id=\"stim\">BANJO</p>", "conditions": [18, 1200, "v", 18000], "internal_node_id": "0.0-16.0", "trial": 0, "time_elapsed": 129488, "serialpos": 4, "key_press": -1, "wordID": 81, "type": "PRES_VIS", "trial_index": 25}, "uniqueid": "MTK2718:3XLBSAQ9Z5JF00RMYRX5H9XEZ7GZ7F", "dateTime": 1519251451008}, {"current_trial": 26, "trialdata": {"rt": -1, "trial_type": "single-stim", "word": "star", "stimulus": "<p id=\"stim\">STAR</p>", "conditions": [18, 1200, "v", 18000], "internal_node_id": "0.0-17.0", "trial": 0, "time_elapsed": 131607, "serialpos": 5, "key_press": -1, "wordID": 1372, "type": "PRES_VIS", "trial_index": 26}, "uniqueid": "MTK2718:3XLBSAQ9Z5JF00RMYRX5H9XEZ7GZ7F", "dateTime": 1519251453127}, {"current_trial": 27, "trialdata": {"rt": -1, "trial_type": "single-stim", "word": "padding", "stimulus": "<p id=\"stim\">PADDING</p>", "conditions": [18, 1200, "v", 18000], "internal_node_id": "0.0-18.0", "trial": 0, "time_elapsed": 133638, "serialpos": 6, "key_press": -1, "wordID": 998, "type": "PRES_VIS", "trial_index": 27}, "uniqueid": "MTK2718:3XLBSAQ9Z5JF00RMYRX5H9XEZ7GZ7F", "dateTime": 1519251455158}, {"current_trial": 28, "trialdata": {"rt": -1, "trial_type": "single-stim", "word": "bubble", "stimulus": "<p id=\"stim\">BUBBLE</p>", "conditions": [18, 1200, "v", 18000], "internal_node_id": "0.0-19.0", "trial": 0, "time_elapsed": 135929, "serialpos": 7, "key_press": -1, "wordID": 182, "type": "PRES_VIS", "trial_index": 28}, "uniqueid": "MTK2718:3XLBSAQ9Z5JF00RMYRX5H9XEZ7GZ7F", "dateTime": 1519251457450}, {"current_trial": 29, "trialdata": {"rt": -1, "trial_type": "single-stim", "word": "outlaw", "stimulus": "<p id=\"stim\">OUTLAW</p>", "conditions": [18, 1200, "v", 18000], "internal_node_id": "0.0-20.0", "trial": 0, "time_elapsed": 138293, "serialpos": 8, "key_press": -1, "wordID": 988, "type": "PRES_VIS", "trial_index": 29}, "uniqueid": "MTK2718:3XLBSAQ9Z5JF00RMYRX5H9XEZ7GZ7F", "dateTime": 1519251459813}, {"current_trial": 30, "trialdata": {"rt": -1, "trial_type": "single-stim", "word": "airplane", "stimulus": "<p id=\"stim\">AIRPLANE</p>", "conditions": [18, 1200, "v", 18000], "internal_node_id": "0.0-21.0", "trial": 0, "time_elapsed": 140359, "serialpos": 9, "key_press": -1, "wordID": 11, "type": "PRES_VIS", "trial_index": 30}, "uniqueid": "MTK2718:3XLBSAQ9Z5JF00RMYRX5H9XEZ7GZ7F", "dateTime": 1519251461879}, {"current_trial": 31, "trialdata": {"rt": -1, "trial_type": "single-stim", "word": "seafood", "stimulus": "<p id=\"stim\">SEAFOOD</p>", "conditions": [18, 1200, "v", 18000], "internal_node_id": "0.0-22.0", "trial": 0, "time_elapsed": 142704, "serialpos": 10, "key_press": -1, "wordID": 1259, "type": "PRES_VIS", "trial_index": 31}, "uniqueid": "MTK2718:3XLBSAQ9Z5JF00RMYRX5H9XEZ7GZ7F", "dateTime": 1519251464224}, {"current_trial": 32, "trialdata": {"rt": -1, "trial_type": "single-stim", "word": "lumber", "stimulus": "<p id=\"stim\">LUMBER</p>", "conditions": [18, 1200, "v", 18000], "internal_node_id": "0.0-23.0", "trial": 0, "time_elapsed": 144903, "serialpos": 11, "key_press": -1, "wordID": 847, "type": "PRES_VIS", "trial_index": 32}, "uniqueid": "MTK2718:3XLBSAQ9Z5JF00RMYRX5H9XEZ7GZ7F", "dateTime": 1519251466423}, {"current_trial": 33, "trialdata": {"rt": -1, "trial_type": "single-stim", "word": "staple", "stimulus": "<p id=\"stim\">STAPLE</p>", "conditions": [18, 1200, "v", 18000], "internal_node_id": "0.0-24.0", "trial": 0, "time_elapsed": 146999, "serialpos": 12, "key_press": -1, "wordID": 1370, "type": "PRES_VIS", "trial_index": 33}, "uniqueid": "MTK2718:3XLBSAQ9Z5JF00RMYRX5H9XEZ7GZ7F", "dateTime": 1519251468519}, {"current_trial": 34, "trialdata": {"rt": -1, "trial_type": "single-stim", "word": "scarecrow", "stimulus": "<p id=\"stim\">SCARECROW</p>", "conditions": [18, 1200, "v", 18000], "internal_node_id": "0.0-25.0", "trial": 0, "time_elapsed": 149222, "serialpos": 13, "key_press": -1, "wordID": 1244, "type": "PRES_VIS", "trial_index": 34}, "uniqueid": "MTK2718:3XLBSAQ9Z5JF00RMYRX5H9XEZ7GZ7F", "dateTime": 1519251470742}, {"current_trial": 35, "trialdata": {"rt": -1, "trial_type": "single-stim", "word": "grill", "stimulus": "<p id=\"stim\">GRILL</p>", "conditions": [18, 1200, "v", 18000], "internal_node_id": "0.0-26.0", "trial": 0, "time_elapsed": 151572, "serialpos": 14, "key_press": -1, "wordID": 660, "type": "PRES_VIS", "trial_index": 35}, "uniqueid": "MTK2718:3XLBSAQ9Z5JF00RMYRX5H9XEZ7GZ7F", "dateTime": 1519251473092}, {"current_trial": 36, "trialdata": {"rt": -1, "trial_type": "single-stim", "word": "lodge", "stimulus": "<p id=\"stim\">LODGE</p>", "conditions": [18, 1200, "v", 18000], "internal_node_id": "0.0-27.0", "trial": 0, "time_elapsed": 153702, "serialpos": 15, "key_press": -1, "wordID": 838, "type": "PRES_VIS", "trial_index": 36}, "uniqueid": "MTK2718:3XLBSAQ9Z5JF00RMYRX5H9XEZ7GZ7F", "dateTime": 1519251475222}, {"current_trial": 37, "trialdata": {"rt": -1, "trial_type": "single-stim", "word": "marrow", "stimulus": "<p id=\"stim\">MARROW</p>", "conditions": [18, 1200, "v", 18000], "internal_node_id": "0.0-28.0", "trial": 0, "time_elapsed": 155977, "serialpos": 16, "key_press": -1, "wordID": 871, "type": "PRES_VIS", "trial_index": 37}, "uniqueid": "MTK2718:3XLBSAQ9Z5JF00RMYRX5H9XEZ7GZ7F", "dateTime": 1519251477497}, {"current_trial": 38, "trialdata": {"rt": -1, "trial_type": "single-stim", "word": "sphinx", "stimulus": "<p id=\"stim\">SPHINX</p>", "conditions": [18, 1200, "v", 18000], "internal_node_id": "0.0-29.0", "trial": 0, "time_elapsed": 158340, "serialpos": 17, "key_press": -1, "wordID": 1348, "type": "PRES_VIS", "trial_index": 38}, "uniqueid": "MTK2718:3XLBSAQ9Z5JF00RMYRX5H9XEZ7GZ7F", "dateTime": 1519251479860}, {"current_trial": 39, "trialdata": {"rt": -1, "trial_type": "single-stim", "stimulus": "", "internal_node_id": "0.0-30.0-0.0", "time_elapsed": 160476, "key_press": -1, "type": "PRE_RECALL_DELAY", "trial_index": 39}, "uniqueid": "MTK2718:3XLBSAQ9Z5JF00RMYRX5H9XEZ7GZ7F", "dateTime": 1519251481996}, {"current_trial": 40, "trialdata": {"rt": -1000, "trial_type": "single-audio", "stimulus": "/static/audio/400Hz.wav", "internal_node_id": "0.0-31.0", "time_elapsed": 160982, "key_press": -1, "type": "PRE_RECALL_ALERT", "trial_index": 40}, "uniqueid": "MTK2718:3XLBSAQ9Z5JF00RMYRX5H9XEZ7GZ7F", "dateTime": 1519251482502}, {"current_trial": 41, "trialdata": {"rt": [3452, 5509, 6852, 8364, 10236, 12981, 15068, 16997, 18852, 20748, 23029, 25324, 26772, 28340, 30033, 32061], "recwords": ["virus", "banjo", "star", "padding", "bubble", "outlaw", "airplane", "seafood", "lumber", "staple", "scarecrow", "grill", "lodge", "marrow", "sphinx", ""], "key_times": [2461, 2717, 2796, 2877, 3028, 3147, 3452, 4012, 4133, 4236, 5109, 5252, 5509, 6020, 6308, 6389, 6613, 6852, 7340, 7492, 7717, 7853, 7917, 8060, 8133, 8364, 9188, 9316, 9444, 9581, 9660, 9813, 10236, 10949, 11396, 11588, 11772, 11837, 11996, 12085, 12284, 12981, 13972, 14132, 14269, 14437, 14605, 14692, 14788, 14884, 15068, 15820, 16060, 16285, 16501, 16620, 16756, 16845, 16997, 17877, 18100, 18277, 18364, 18564, 18740, 18852, 19644, 19988, 20228, 20277, 20460, 20516, 20748, 21429, 21684, 21900, 22124, 22292, 22500, 22692, 22812, 22884, 23029, 23772, 24085, 24220, 24388, 24468, 24676, 25100, 25324, 26069, 26284, 26396, 26508, 26612, 26772, 27508, 27645, 27876, 28012, 28084, 28220, 28340, 28677, 28780, 29036, 29260, 29724, 29884, 30033, 32061], "trial_type": "free-recall", "conditions": [18, 1200, "v", 18000], "internal_node_id": "0.0-32.0-0.0", "key_presses": [86, 73, 82, 85, 83, 16, 13, 66, 65, 78, 74, 79, 13, 83, 84, 65, 82, 13, 80, 65, 68, 68, 73, 78, 71, 13, 66, 85, 66, 66, 76, 69, 13, 85, 8, 79, 85, 84, 76, 65, 87, 13, 65, 73, 82, 80, 76, 65, 78, 69, 13, 83, 69, 65, 70, 79, 79, 68, 13, 76, 85, 77, 66, 69, 82, 13, 83, 84, 65, 80, 76, 69, 13, 83, 67, 65, 82, 69, 67, 82, 79, 87, 13, 83, 8, 71, 82, 73, 76, 76, 13, 76, 79, 68, 71, 69, 13, 77, 65, 82, 82, 79, 87, 13, 83, 80, 72, 73, 78, 88, 13, 13], "trial": 0, "time_elapsed": 220985, "type": "FREE_RECALL", "trial_index": 41}, "uniqueid": "MTK2718:3XLBSAQ9Z5JF00RMYRX5H9XEZ7GZ7F", "dateTime": 1519251542508}, {"current_trial": 42, "trialdata": {"rt": 2045, "trial_type": "text", "internal_node_id": "0.0-33.0", "time_elapsed": 225038, "key_press": 32, "type": "INSTRUCTIONS", "trial_index": 42}, "uniqueid": "MTK2718:3XLBSAQ9Z5JF00RMYRX5H9XEZ7GZ7F", "dateTime": 1519251546558}, {"current_trial": 43, "trialdata": {"rt": [12035, 15379], "trial_type": "math-distractor", "key_times": [11380, 11923, 12035, 14939, 15268, 15379], "responses": ["16", "16"], "num2": [6, 5, 6], "num3": [3, 8, 8], "conditions": [18, 1200, "v", 18000], "internal_node_id": "0.0-34.0", "key_presses": [49, 54, 13, 49, 54, 13], "trial": 1, "time_elapsed": 245048, "type": "DISTRACTOR", "trial_index": 43, "num1": [7, 3, 4]}, "uniqueid": "MTK2718:3XLBSAQ9Z5JF00RMYRX5H9XEZ7GZ7F", "dateTime": 1519251566569}, {"current_trial": 44, "trialdata": {"rt": -1, "trial_type": "single-stim", "stimulus": "<p id=\"stim\">10</p>", "internal_node_id": "0.0-35.0-0.0", "time_elapsed": 248055, "key_press": -1, "trial_index": 44}, "uniqueid": "MTK2718:3XLBSAQ9Z5JF00RMYRX5H9XEZ7GZ7F", "dateTime": 1519251569575}, {"current_trial": 45, "trialdata": {"rt": -1, "trial_type": "single-stim", "stimulus": "<p id=\"stim\">9</p>", "internal_node_id": "0.0-35.0-1.0", "time_elapsed": 249059, "key_press": -1, "trial_index": 45}, "uniqueid": "MTK2718:3XLBSAQ9Z5JF00RMYRX5H9XEZ7GZ7F", "dateTime": 1519251570579}, {"current_trial": 46, "trialdata": {"rt": -1, "trial_type": "single-stim", "stimulus": "<p id=\"stim\">8</p>", "internal_node_id": "0.0-35.0-2.0", "time_elapsed": 250063, "key_press": -1, "trial_index": 46}, "uniqueid": "MTK2718:3XLBSAQ9Z5JF00RMYRX5H9XEZ7GZ7F", "dateTime": 1519251571584}, {"current_trial": 47, "trialdata": {"rt": -1, "trial_type": "single-stim", "stimulus": "<p id=\"stim\">7</p>", "internal_node_id": "0.0-35.0-3.0", "time_elapsed": 251067, "key_press": -1, "trial_index": 47}, "uniqueid": "MTK2718:3XLBSAQ9Z5JF00RMYRX5H9XEZ7GZ7F", "dateTime": 1519251572588}, {"current_trial": 48, "trialdata": {"rt": -1, "trial_type": "single-stim", "stimulus": "<p id=\"stim\">6</p>", "internal_node_id": "0.0-35.0-4.0", "time_elapsed": 252071, "key_press": -1, "trial_index": 48}, "uniqueid": "MTK2718:3XLBSAQ9Z5JF00RMYRX5H9XEZ7GZ7F", "dateTime": 1519251573591}, {"current_trial": 49, "trialdata": {"rt": -1, "trial_type": "single-stim", "stimulus": "<p id=\"stim\">5</p>", "internal_node_id": "0.0-35.0-5.0", "time_elapsed": 253075, "key_press": -1, "trial_index": 49}, "uniqueid": "MTK2718:3XLBSAQ9Z5JF00RMYRX5H9XEZ7GZ7F", "dateTime": 1519251574595}, {"current_trial": 50, "trialdata": {"rt": -1, "trial_type": "single-stim", "stimulus": "<p id=\"stim\">4</p>", "internal_node_id": "0.0-35.0-6.0", "time_elapsed": 254079, "key_press": -1, "trial_index": 50}, "uniqueid": "MTK2718:3XLBSAQ9Z5JF00RMYRX5H9XEZ7GZ7F", "dateTime": 1519251575599}, {"current_trial": 51, "trialdata": {"rt": -1, "trial_type": "single-stim", "stimulus": "<p id=\"stim\">3</p>", "internal_node_id": "0.0-35.0-7.0", "time_elapsed": 255083, "key_press": -1, "trial_index": 51}, "uniqueid": "MTK2718:3XLBSAQ9Z5JF00RMYRX5H9XEZ7GZ7F", "dateTime": 1519251576603}, {"current_trial": 52, "trialdata": {"rt": -1, "trial_type": "single-stim", "stimulus": "<p id=\"stim\">2</p>", "internal_node_id": "0.0-35.0-8.0", "time_elapsed": 256088, "key_press": -1, "trial_index": 52}, "uniqueid": "MTK2718:3XLBSAQ9Z5JF00RMYRX5H9XEZ7GZ7F", "dateTime": 1519251577608}, {"current_trial": 53, "trialdata": {"rt": -1, "trial_type": "single-stim", "stimulus": "<p id=\"stim\">1</p>", "internal_node_id": "0.0-35.0-9.0", "time_elapsed": 257092, "key_press": -1, "trial_index": 53}, "uniqueid": "MTK2718:3XLBSAQ9Z5JF00RMYRX5H9XEZ7GZ7F", "dateTime": 1519251578612}, {"current_trial": 54, "trialdata": {"rt": -1, "trial_type": "single-stim", "stimulus": "<p id=\"stim\">+</p>", "internal_node_id": "0.0-36.0-0.0", "time_elapsed": 258593, "key_press": -1, "type": "FIXATION", "trial_index": 54}, "uniqueid": "MTK2718:3XLBSAQ9Z5JF00RMYRX5H9XEZ7GZ7F", "dateTime": 1519251580113}, {"current_trial": 55, "trialdata": {"rt": -1, "trial_type": "single-stim", "word": "stone", "stimulus": "<p id=\"stim\">STONE</p>", "conditions": [18, 1200, "v", 18000], "internal_node_id": "0.0-37.0", "trial": 1, "time_elapsed": 259796, "serialpos": 0, "key_press": -1, "wordID": 1384, "type": "PRES_VIS", "trial_index": 55}, "uniqueid": "MTK2718:3XLBSAQ9Z5JF00RMYRX5H9XEZ7GZ7F", "dateTime": 1519251581316}, {"current_trial": 56, "trialdata": {"rt": -1, "trial_type": "single-stim", "word": "leg", "stimulus": "<p id=\"stim\">LEG</p>", "conditions": [18, 1200, "v", 18000], "internal_node_id": "0.0-38.0", "trial": 1, "time_elapsed": 262170, "serialpos": 1, "key_press": -1, "wordID": 808, "type": "PRES_VIS", "trial_index": 56}, "uniqueid": "MTK2718:3XLBSAQ9Z5JF00RMYRX5H9XEZ7GZ7F", "dateTime": 1519251583690}, {"current_trial": 57, "trialdata": {"rt": -1, "trial_type": "single-stim", "word": "razor", "stimulus": "<p id=\"stim\">RAZOR</p>", "conditions": [18, 1200, "v", 18000], "internal_node_id": "0.0-39.0", "trial": 1, "time_elapsed": 264538, "serialpos": 2, "key_press": -1, "wordID": 1170, "type": "PRES_VIS", "trial_index": 57}, "uniqueid": "MTK2718:3XLBSAQ9Z5JF00RMYRX5H9XEZ7GZ7F", "dateTime": 1519251586058}, {"current_trial": 58, "trialdata": {"rt": -1, "trial_type": "single-stim", "word": "machine", "stimulus": "<p id=\"stim\">MACHINE</p>", "conditions": [18, 1200, "v", 18000], "internal_node_id": "0.0-40.0", "trial": 1, "time_elapsed": 266877, "serialpos": 3, "key_press": -1, "wordID": 851, "type": "PRES_VIS", "trial_index": 58}, "uniqueid": "MTK2718:3XLBSAQ9Z5JF00RMYRX5H9XEZ7GZ7F", "dateTime": 1519251588398}, {"current_trial": 59, "trialdata": {"rt": -1, "trial_type": "single-stim", "word": "japan", "stimulus": "<p id=\"stim\">JAPAN</p>", "conditions": [18, 1200, "v", 18000], "internal_node_id": "0.0-41.0", "trial": 1, "time_elapsed": 268972, "serialpos": 4, "key_press": -1, "wordID": 748, "type": "PRES_VIS", "trial_index": 59}, "uniqueid": "MTK2718:3XLBSAQ9Z5JF00RMYRX5H9XEZ7GZ7F", "dateTime": 1519251590492}, {"current_trial": 60, "trialdata": {"rt": -1, "trial_type": "single-stim", "word": "crab", "stimulus": "<p id=\"stim\">CRAB</p>", "conditions": [18, 1200, "v", 18000], "internal_node_id": "0.0-42.0", "trial": 1, "time_elapsed": 271264, "serialpos": 5, "key_press": -1, "wordID": 396, "type": "PRES_VIS", "trial_index": 60}, "uniqueid": "MTK2718:3XLBSAQ9Z5JF00RMYRX5H9XEZ7GZ7F", "dateTime": 1519251592786}, {"current_trial": 61, "trialdata": {"rt": -1, "trial_type": "single-stim", "word": "salt", "stimulus": "<p id=\"stim\">SALT</p>", "conditions": [18, 1200, "v", 18000], "internal_node_id": "0.0-43.0", "trial": 1, "time_elapsed": 273273, "serialpos": 6, "key_press": -1, "wordID": 1228, "type": "PRES_VIS", "trial_index": 61}, "uniqueid": "MTK2718:3XLBSAQ9Z5JF00RMYRX5H9XEZ7GZ7F", "dateTime": 1519251594793}, {"current_trial": 62, "trialdata": {"rt": -1, "trial_type": "single-stim", "word": "guitar", "stimulus": "<p id=\"stim\">GUITAR</p>", "conditions": [18, 1200, "v", 18000], "internal_node_id": "0.0-44.0", "trial": 1, "time_elapsed": 275316, "serialpos": 7, "key_press": -1, "wordID": 669, "type": "PRES_VIS", "trial_index": 62}, "uniqueid": "MTK2718:3XLBSAQ9Z5JF00RMYRX5H9XEZ7GZ7F", "dateTime": 1519251596836}, {"current_trial": 63, "trialdata": {"rt": -1, "trial_type": "single-stim", "word": "cocktail", "stimulus": "<p id=\"stim\">COCKTAIL</p>", "conditions": [18, 1200, "v", 18000], "internal_node_id": "0.0-45.0", "trial": 1, "time_elapsed": 277388, "serialpos": 8, "key_press": -1, "wordID": 337, "type": "PRES_VIS", "trial_index": 63}, "uniqueid": "MTK2718:3XLBSAQ9Z5JF00RMYRX5H9XEZ7GZ7F", "dateTime": 1519251598908}, {"current_trial": 64, "trialdata": {"rt": -1, "trial_type": "single-stim", "word": "supper", "stimulus": "<p id=\"stim\">SUPPER</p>", "conditions": [18, 1200, "v", 18000], "internal_node_id": "0.0-46.0", "trial": 1, "time_elapsed": 279704, "serialpos": 9, "key_press": -1, "wordID": 1410, "type": "PRES_VIS", "trial_index": 64}, "uniqueid": "MTK2718:3XLBSAQ9Z5JF00RMYRX5H9XEZ7GZ7F", "dateTime": 1519251601225}, {"current_trial": 65, "trialdata": {"rt": -1, "trial_type": "single-stim", "word": "liver", "stimulus": "<p id=\"stim\">LIVER</p>", "conditions": [18, 1200, "v", 18000], "internal_node_id": "0.0-47.0", "trial": 1, "time_elapsed": 281770, "serialpos": 10, "key_press": -1, "wordID": 832, "type": "PRES_VIS", "trial_index": 65}, "uniqueid": "MTK2718:3XLBSAQ9Z5JF00RMYRX5H9XEZ7GZ7F", "dateTime": 1519251603290}, {"current_trial": 66, "trialdata": {"rt": -1, "trial_type": "single-stim", "word": "butcher", "stimulus": "<p id=\"stim\">BUTCHER</p>", "conditions": [18, 1200, "v", 18000], "internal_node_id": "0.0-48.0", "trial": 1, "time_elapsed": 284005, "serialpos": 11, "key_press": -1, "wordID": 202, "type": "PRES_VIS", "trial_index": 66}, "uniqueid": "MTK2718:3XLBSAQ9Z5JF00RMYRX5H9XEZ7GZ7F", "dateTime": 1519251605525}, {"current_trial": 67, "trialdata": {"rt": -1, "trial_type": "single-stim", "word": "soda", "stimulus": "<p id=\"stim\">SODA</p>", "conditions": [18, 1200, "v", 18000], "internal_node_id": "0.0-49.0", "trial": 1, "time_elapsed": 286315, "serialpos": 12, "key_press": -1, "wordID": 1340, "type": "PRES_VIS", "trial_index": 67}, "uniqueid": "MTK2718:3XLBSAQ9Z5JF00RMYRX5H9XEZ7GZ7F", "dateTime": 1519251607835}, {"current_trial": 68, "trialdata": {"rt": -1, "trial_type": "single-stim", "word": "robber", "stimulus": "<p id=\"stim\">ROBBER</p>", "conditions": [18, 1200, "v", 18000], "internal_node_id": "0.0-50.0", "trial": 1, "time_elapsed": 288636, "serialpos": 13, "key_press": -1, "wordID": 1196, "type": "PRES_VIS", "trial_index": 68}, "uniqueid": "MTK2718:3XLBSAQ9Z5JF00RMYRX5H9XEZ7GZ7F", "dateTime": 1519251610158}, {"current_trial": 69, "trialdata": {"rt": -1, "trial_type": "single-stim", "word": "sponge", "stimulus": "<p id=\"stim\">SPONGE</p>", "conditions": [18, 1200, "v", 18000], "internal_node_id": "0.0-51.0", "trial": 1, "time_elapsed": 290720, "serialpos": 14, "key_press": -1, "wordID": 1354, "type": "PRES_VIS", "trial_index": 69}, "uniqueid": "MTK2718:3XLBSAQ9Z5JF00RMYRX5H9XEZ7GZ7F", "dateTime": 1519251612240}, {"current_trial": 70, "trialdata": {"rt": -1, "trial_type": "single-stim", "word": "washer", "stimulus": "<p id=\"stim\">WASHER</p>", "conditions": [18, 1200, "v", 18000], "internal_node_id": "0.0-52.0", "trial": 1, "time_elapsed": 293111, "serialpos": 15, "key_press": -1, "wordID": 1591, "type": "PRES_VIS", "trial_index": 70}, "uniqueid": "MTK2718:3XLBSAQ9Z5JF00RMYRX5H9XEZ7GZ7F", "dateTime": 1519251614631}, {"current_trial": 71, "trialdata": {"rt": -1, "trial_type": "single-stim", "word": "coin", "stimulus": "<p id=\"stim\">COIN</p>", "conditions": [18, 1200, "v", 18000], "internal_node_id": "0.0-53.0", "trial": 1, "time_elapsed": 295183, "serialpos": 16, "key_press": -1, "wordID": 342, "type": "PRES_VIS", "trial_index": 71}, "uniqueid": "MTK2718:3XLBSAQ9Z5JF00RMYRX5H9XEZ7GZ7F", "dateTime": 1519251616703}, {"current_trial": 72, "trialdata": {"rt": -1, "trial_type": "single-stim", "word": "poet", "stimulus": "<p id=\"stim\">POET</p>", "conditions": [18, 1200, "v", 18000], "internal_node_id": "0.0-54.0", "trial": 1, "time_elapsed": 297302, "serialpos": 17, "key_press": -1, "wordID": 1094, "type": "PRES_VIS", "trial_index": 72}, "uniqueid": "MTK2718:3XLBSAQ9Z5JF00RMYRX5H9XEZ7GZ7F", "dateTime": 1519251618822}, {"current_trial": 73, "trialdata": {"rt": -1, "trial_type": "single-stim", "stimulus": "", "internal_node_id": "0.0-55.0-0.0", "time_elapsed": 299652, "key_press": -1, "type": "PRE_RECALL_DELAY", "trial_index": 73}, "uniqueid": "MTK2718:3XLBSAQ9Z5JF00RMYRX5H9XEZ7GZ7F", "dateTime": 1519251621172}, {"current_trial": 74, "trialdata": {"rt": -1000, "trial_type": "single-audio", "stimulus": "/static/audio/400Hz.wav", "internal_node_id": "0.0-56.0", "time_elapsed": 300153, "key_press": -1, "type": "PRE_RECALL_ALERT", "trial_index": 74}, "uniqueid": "MTK2718:3XLBSAQ9Z5JF00RMYRX5H9XEZ7GZ7F", "dateTime": 1519251621673}, {"current_trial": 75, "trialdata": {"rt": [3958, 5110, 6550, 8302, 9638, 10926, 12334, 13814, 15727, 17151, 18421, 21030, 22671, 23967, 25214, 26782, 29958, 31086], "recwords": ["stone", "leg", "razor", "machine", "japan", "crab", "salt", "guitar", "cocktail", "supper", "liver", "butcher", "soda", "robber", "sponge", "washer", "coin", "poet"], "key_times": [2879, 3127, 3230, 3414, 3510, 3958, 4622, 4726, 4966, 5110, 5446, 5855, 6062, 6198, 6326, 6550, 7335, 7430, 7638, 7687, 7878, 8030, 8158, 8302, 8895, 9030, 9134, 9206, 9342, 9638, 10151, 10367, 10574, 10670, 10926, 11775, 11966, 12087, 12222, 12334, 12550, 12742, 13015, 13134, 13406, 13630, 13814, 14614, 14694, 14798, 14879, 15031, 15246, 15310, 15518, 15727, 16166, 16431, 16670, 16782, 16878, 17046, 17151, 17639, 17830, 17895, 18103, 18294, 18421, 19142, 20046, 20294, 20534, 20607, 20734, 20919, 21030, 22095, 22214, 22310, 22518, 22671, 22991, 23118, 23262, 23430, 23655, 23839, 23967, 24222, 24358, 24574, 24750, 24830, 25030, 25214, 25958, 26167, 26310, 26414, 26510, 26678, 26782, 28782, 28934, 29079, 29638, 29958, 30526, 30702, 30766, 30974, 31086], "trial_type": "free-recall", "conditions": [18, 1200, "v", 18000], "internal_node_id": "0.0-57.0-0.0", "key_presses": [83, 84, 79, 78, 69, 13, 76, 69, 71, 13, 82, 65, 90, 79, 82, 13, 77, 65, 67, 72, 73, 78, 69, 13, 74, 65, 80, 65, 78, 13, 67, 82, 65, 66, 13, 83, 65, 76, 84, 13, 71, 85, 73, 84, 65, 82, 13, 67, 79, 67, 75, 84, 65, 73, 76, 13, 83, 85, 80, 80, 69, 82, 13, 76, 73, 86, 69, 82, 13, 66, 85, 84, 67, 72, 69, 82, 13, 83, 79, 68, 65, 13, 82, 79, 66, 66, 69, 82, 13, 83, 80, 79, 78, 71, 69, 13, 87, 65, 83, 72, 69, 82, 13, 67, 79, 73, 78, 13, 80, 79, 69, 84, 13], "trial": 1, "time_elapsed": 360159, "type": "FREE_RECALL", "trial_index": 75}, "uniqueid": "MTK2718:3XLBSAQ9Z5JF00RMYRX5H9XEZ7GZ7F", "dateTime": 1519251681681}, {"current_trial": 76, "trialdata": {"rt": 31012, "trial_type": "text", "internal_node_id": "0.0-58.0", "time_elapsed": 393175, "key_press": 32, "type": "INSTRUCTIONS", "trial_index": 76}, "uniqueid": "MTK2718:3XLBSAQ9Z5JF00RMYRX5H9XEZ7GZ7F", "dateTime": 1519251714696}, {"current_trial": 77, "trialdata": {"rt": [4781, 10851, 13578, 19380], "trial_type": "math-distractor", "key_times": [4461, 4693, 4781, 10403, 10707, 10851, 13107, 13443, 13578, 19035, 19252, 19380], "responses": ["13", "17", "16", "14"], "num2": [1, 3, 1, 1, 9], "num3": [4, 5, 6, 8, 1], "conditions": [24, 1600, "v", 24000], "internal_node_id": "0.0-59.0", "key_presses": [49, 51, 13, 49, 55, 13, 49, 54, 13, 49, 52, 13], "trial": 2, "time_elapsed": 418184, "type": "DISTRACTOR", "trial_index": 77, "num1": [8, 9, 9, 5, 8]}, "uniqueid": "MTK2718:3XLBSAQ9Z5JF00RMYRX5H9XEZ7GZ7F", "dateTime": 1519251739704}, {"current_trial": 78, "trialdata": {"rt": -1, "trial_type": "single-stim", "stimulus": "<p id=\"stim\">10</p>", "internal_node_id": "0.0-60.0-0.0", "time_elapsed": 421190, "key_press": -1, "trial_index": 78}, "uniqueid": "MTK2718:3XLBSAQ9Z5JF00RMYRX5H9XEZ7GZ7F", "dateTime": 1519251742711}, {"current_trial": 79, "trialdata": {"rt": -1, "trial_type": "single-stim", "stimulus": "<p id=\"stim\">9</p>", "internal_node_id": "0.0-60.0-1.0", "time_elapsed": 422195, "key_press": -1, "trial_index": 79}, "uniqueid": "MTK2718:3XLBSAQ9Z5JF00RMYRX5H9XEZ7GZ7F", "dateTime": 1519251743715}, {"current_trial": 80, "trialdata": {"rt": -1, "trial_type": "single-stim", "stimulus": "<p id=\"stim\">8</p>", "internal_node_id": "0.0-60.0-2.0", "time_elapsed": 423199, "key_press": -1, "trial_index": 80}, "uniqueid": "MTK2718:3XLBSAQ9Z5JF00RMYRX5H9XEZ7GZ7F", "dateTime": 1519251744719}, {"current_trial": 81, "trialdata": {"rt": -1, "trial_type": "single-stim", "stimulus": "<p id=\"stim\">7</p>", "internal_node_id": "0.0-60.0-3.0", "time_elapsed": 424203, "key_press": -1, "trial_index": 81}, "uniqueid": "MTK2718:3XLBSAQ9Z5JF00RMYRX5H9XEZ7GZ7F", "dateTime": 1519251745723}, {"current_trial": 82, "trialdata": {"rt": -1, "trial_type": "single-stim", "stimulus": "<p id=\"stim\">6</p>", "internal_node_id": "0.0-60.0-4.0", "time_elapsed": 425206, "key_press": -1, "trial_index": 82}, "uniqueid": "MTK2718:3XLBSAQ9Z5JF00RMYRX5H9XEZ7GZ7F", "dateTime": 1519251746727}, {"current_trial": 83, "trialdata": {"rt": -1, "trial_type": "single-stim", "stimulus": "<p id=\"stim\">5</p>", "internal_node_id": "0.0-60.0-5.0", "time_elapsed": 426211, "key_press": -1, "trial_index": 83}, "uniqueid": "MTK2718:3XLBSAQ9Z5JF00RMYRX5H9XEZ7GZ7F", "dateTime": 1519251747731}, {"current_trial": 84, "trialdata": {"rt": -1, "trial_type": "single-stim", "stimulus": "<p id=\"stim\">4</p>", "internal_node_id": "0.0-60.0-6.0", "time_elapsed": 427215, "key_press": -1, "trial_index": 84}, "uniqueid": "MTK2718:3XLBSAQ9Z5JF00RMYRX5H9XEZ7GZ7F", "dateTime": 1519251748735}, {"current_trial": 85, "trialdata": {"rt": -1, "trial_type": "single-stim", "stimulus": "<p id=\"stim\">3</p>", "internal_node_id": "0.0-60.0-7.0", "time_elapsed": 428219, "key_press": -1, "trial_index": 85}, "uniqueid": "MTK2718:3XLBSAQ9Z5JF00RMYRX5H9XEZ7GZ7F", "dateTime": 1519251749739}, {"current_trial": 86, "trialdata": {"rt": -1, "trial_type": "single-stim", "stimulus": "<p id=\"stim\">2</p>", "internal_node_id": "0.0-60.0-8.0", "time_elapsed": 429223, "key_press": -1, "trial_index": 86}, "uniqueid": "MTK2718:3XLBSAQ9Z5JF00RMYRX5H9XEZ7GZ7F", "dateTime": 1519251750743}, {"current_trial": 87, "trialdata": {"rt": -1, "trial_type": "single-stim", "stimulus": "<p id=\"stim\">1</p>", "internal_node_id": "0.0-60.0-9.0", "time_elapsed": 430227, "key_press": -1, "trial_index": 87}, "uniqueid": "MTK2718:3XLBSAQ9Z5JF00RMYRX5H9XEZ7GZ7F", "dateTime": 1519251751747}, {"current_trial": 88, "trialdata": {"rt": -1, "trial_type": "single-stim", "stimulus": "<p id=\"stim\">+</p>", "internal_node_id": "0.0-61.0-0.0", "time_elapsed": 431731, "key_press": -1, "type": "FIXATION", "trial_index": 88}, "uniqueid": "MTK2718:3XLBSAQ9Z5JF00RMYRX5H9XEZ7GZ7F", "dateTime": 1519251753251}, {"current_trial": 89, "trialdata": {"rt": -1, "trial_type": "single-stim", "word": "dustpan", "stimulus": "<p id=\"stim\">DUSTPAN</p>", "conditions": [24, 1600, "v", 24000], "internal_node_id": "0.0-62.0", "trial": 2, "time_elapsed": 433333, "serialpos": 0, "key_press": -1, "wordID": 508, "type": "PRES_VIS", "trial_index": 89}, "uniqueid": "MTK2718:3XLBSAQ9Z5JF00RMYRX5H9XEZ7GZ7F", "dateTime": 1519251754853}, {"current_trial": 90, "trialdata": {"rt": -1, "trial_type": "single-stim", "word": "clothes", "stimulus": "<p id=\"stim\">CLOTHES</p>", "conditions": [24, 1600, "v", 24000], "internal_node_id": "0.0-63.0", "trial": 2, "time_elapsed": 435921, "serialpos": 1, "key_press": -1, "wordID": 326, "type": "PRES_VIS", "trial_index": 90}, "uniqueid": "MTK2718:3XLBSAQ9Z5JF00RMYRX5H9XEZ7GZ7F", "dateTime": 1519251757441}, {"current_trial": 91, "trialdata": {"rt": -1, "trial_type": "single-stim", "word": "salad", "stimulus": "<p id=\"stim\">SALAD</p>", "conditions": [24, 1600, "v", 24000], "internal_node_id": "0.0-64.0", "trial": 2, "time_elapsed": 438527, "serialpos": 2, "key_press": -1, "wordID": 1223, "type": "PRES_VIS", "trial_index": 91}, "uniqueid": "MTK2718:3XLBSAQ9Z5JF00RMYRX5H9XEZ7GZ7F", "dateTime": 1519251760047}, {"current_trial": 92, "trialdata": {"rt": -1, "trial_type": "single-stim", "word": "ground", "stimulus": "<p id=\"stim\">GROUND</p>", "conditions": [24, 1600, "v", 24000], "internal_node_id": "0.0-65.0", "trial": 2, "time_elapsed": 441186, "serialpos": 3, "key_press": -1, "wordID": 665, "type": "PRES_VIS", "trial_index": 92}, "uniqueid": "MTK2718:3XLBSAQ9Z5JF00RMYRX5H9XEZ7GZ7F", "dateTime": 1519251762706}, {"current_trial": 93, "trialdata": {"rt": -1, "trial_type": "single-stim", "word": "world", "stimulus": "<p id=\"stim\">WORLD</p>", "conditions": [24, 1600, "v", 24000], "internal_node_id": "0.0-66.0", "trial": 2, "time_elapsed": 443617, "serialpos": 4, "key_press": -1, "wordID": 1621, "type": "PRES_VIS", "trial_index": 93}, "uniqueid": "MTK2718:3XLBSAQ9Z5JF00RMYRX5H9XEZ7GZ7F", "dateTime": 1519251765137}, {"current_trial": 94, "trialdata": {"rt": -1, "trial_type": "single-stim", "word": "monster", "stimulus": "<p id=\"stim\">MONSTER</p>", "conditions": [24, 1600, "v", 24000], "internal_node_id": "0.0-67.0", "trial": 2, "time_elapsed": 446061, "serialpos": 5, "key_press": -1, "wordID": 911, "type": "PRES_VIS", "trial_index": 94}, "uniqueid": "MTK2718:3XLBSAQ9Z5JF00RMYRX5H9XEZ7GZ7F", "dateTime": 1519251767581}, {"current_trial": 95, "trialdata": {"rt": -1, "trial_type": "single-stim", "word": "spoon", "stimulus": "<p id=\"stim\">SPOON</p>", "conditions": [24, 1600, "v", 24000], "internal_node_id": "0.0-68.0", "trial": 2, "time_elapsed": 448498, "serialpos": 6, "key_press": -1, "wordID": 1356, "type": "PRES_VIS", "trial_index": 95}, "uniqueid": "MTK2718:3XLBSAQ9Z5JF00RMYRX5H9XEZ7GZ7F", "dateTime": 1519251770018}, {"current_trial": 96, "trialdata": {"rt": -1, "trial_type": "single-stim", "word": "cupboard", "stimulus": "<p id=\"stim\">CUPBOARD</p>", "conditions": [24, 1600, "v", 24000], "internal_node_id": "0.0-69.0", "trial": 2, "time_elapsed": 451272, "serialpos": 7, "key_press": -1, "wordID": 424, "type": "PRES_VIS", "trial_index": 96}, "uniqueid": "MTK2718:3XLBSAQ9Z5JF00RMYRX5H9XEZ7GZ7F", "dateTime": 1519251772792}, {"current_trial": 97, "trialdata": {"rt": -1, "trial_type": "single-stim", "word": "kitchen", "stimulus": "<p id=\"stim\">KITCHEN</p>", "conditions": [24, 1600, "v", 24000], "internal_node_id": "0.0-70.0", "trial": 2, "time_elapsed": 453763, "serialpos": 8, "key_press": -1, "wordID": 777, "type": "PRES_VIS", "trial_index": 97}, "uniqueid": "MTK2718:3XLBSAQ9Z5JF00RMYRX5H9XEZ7GZ7F", "dateTime": 1519251775283}, {"current_trial": 98, "trialdata": {"rt": -1, "trial_type": "single-stim", "word": "dragon", "stimulus": "<p id=\"stim\">DRAGON</p>", "conditions": [24, 1600, "v", 24000], "internal_node_id": "0.0-71.0", "trial": 2, "time_elapsed": 456555, "serialpos": 9, "key_press": -1, "wordID": 491, "type": "PRES_VIS", "trial_index": 98}, "uniqueid": "MTK2718:3XLBSAQ9Z5JF00RMYRX5H9XEZ7GZ7F", "dateTime": 1519251778075}, {"current_trial": 99, "trialdata": {"rt": -1, "trial_type": "single-stim", "word": "beast", "stimulus": "<p id=\"stim\">BEAST</p>", "conditions": [24, 1600, "v", 24000], "internal_node_id": "0.0-72.0", "trial": 2, "time_elapsed": 459097, "serialpos": 10, "key_press": -1, "wordID": 107, "type": "PRES_VIS", "trial_index": 99}, "uniqueid": "MTK2718:3XLBSAQ9Z5JF00RMYRX5H9XEZ7GZ7F", "dateTime": 1519251780617}, {"current_trial": 100, "trialdata": {"rt": -1, "trial_type": "single-stim", "word": "survey", "stimulus": "<p id=\"stim\">SURVEY</p>", "conditions": [24, 1600, "v", 24000], "internal_node_id": "0.0-73.0", "trial": 2, "time_elapsed": 461777, "serialpos": 11, "key_press": -1, "wordID": 1413, "type": "PRES_VIS", "trial_index": 100}, "uniqueid": "MTK2718:3XLBSAQ9Z5JF00RMYRX5H9XEZ7GZ7F", "dateTime": 1519251783298}, {"current_trial": 101, "trialdata": {"rt": -1, "trial_type": "single-stim", "word": "honey", "stimulus": "<p id=\"stim\">HONEY</p>", "conditions": [24, 1600, "v", 24000], "internal_node_id": "0.0-74.0", "trial": 2, "time_elapsed": 464320, "serialpos": 12, "key_press": -1, "wordID": 712, "type": "PRES_VIS", "trial_index": 101}, "uniqueid": "MTK2718:3XLBSAQ9Z5JF00RMYRX5H9XEZ7GZ7F", "dateTime": 1519251785840}, {"current_trial": 102, "trialdata": {"rt": -1, "trial_type": "single-stim", "word": "pigment", "stimulus": "<p id=\"stim\">PIGMENT</p>", "conditions": [24, 1600, "v", 24000], "internal_node_id": "0.0-75.0", "trial": 2, "time_elapsed": 467089, "serialpos": 13, "key_press": -1, "wordID": 1065, "type": "PRES_VIS", "trial_index": 102}, "uniqueid": "MTK2718:3XLBSAQ9Z5JF00RMYRX5H9XEZ7GZ7F", "dateTime": 1519251788609}, {"current_trial": 103, "trialdata": {"rt": -1, "trial_type": "single-stim", "word": "chipmunk", "stimulus": "<p id=\"stim\">CHIPMUNK</p>", "conditions": [24, 1600, "v", 24000], "internal_node_id": "0.0-76.0", "trial": 2, "time_elapsed": 469730, "serialpos": 14, "key_press": -1, "wordID": 303, "type": "PRES_VIS", "trial_index": 103}, "uniqueid": "MTK2718:3XLBSAQ9Z5JF00RMYRX5H9XEZ7GZ7F", "dateTime": 1519251791250}, {"current_trial": 104, "trialdata": {"rt": -1, "trial_type": "single-stim", "word": "beaver", "stimulus": "<p id=\"stim\">BEAVER</p>", "conditions": [24, 1600, "v", 24000], "internal_node_id": "0.0-77.0", "trial": 2, "time_elapsed": 472289, "serialpos": 15, "key_press": -1, "wordID": 108, "type": "PRES_VIS", "trial_index": 104}, "uniqueid": "MTK2718:3XLBSAQ9Z5JF00RMYRX5H9XEZ7GZ7F", "dateTime": 1519251793809}, {"current_trial": 105, "trialdata": {"rt": -1, "trial_type": "single-stim", "word": "grape", "stimulus": "<p id=\"stim\">GRAPE</p>", "conditions": [24, 1600, "v", 24000], "internal_node_id": "0.0-78.0", "trial": 2, "time_elapsed": 474930, "serialpos": 16, "key_press": -1, "wordID": 653, "type": "PRES_VIS", "trial_index": 105}, "uniqueid": "MTK2718:3XLBSAQ9Z5JF00RMYRX5H9XEZ7GZ7F", "dateTime": 1519251796450}, {"current_trial": 106, "trialdata": {"rt": -1, "trial_type": "single-stim", "word": "hedge", "stimulus": "<p id=\"stim\">HEDGE</p>", "conditions": [24, 1600, "v", 24000], "internal_node_id": "0.0-79.0", "trial": 2, "time_elapsed": 477558, "serialpos": 17, "key_press": -1, "wordID": 698, "type": "PRES_VIS", "trial_index": 106}, "uniqueid": "MTK2718:3XLBSAQ9Z5JF00RMYRX5H9XEZ7GZ7F", "dateTime": 1519251799078}, {"current_trial": 107, "trialdata": {"rt": -1, "trial_type": "single-stim", "word": "spider", "stimulus": "<p id=\"stim\">SPIDER</p>", "conditions": [24, 1600, "v", 24000], "internal_node_id": "0.0-80.0", "trial": 2, "time_elapsed": 480246, "serialpos": 18, "key_press": -1, "wordID": 1350, "type": "PRES_VIS", "trial_index": 107}, "uniqueid": "MTK2718:3XLBSAQ9Z5JF00RMYRX5H9XEZ7GZ7F", "dateTime": 1519251801766}, {"current_trial": 108, "trialdata": {"rt": -1, "trial_type": "single-stim", "word": "cocoon", "stimulus": "<p id=\"stim\">COCOON</p>", "conditions": [24, 1600, "v", 24000], "internal_node_id": "0.0-81.0", "trial": 2, "time_elapsed": 482910, "serialpos": 19, "key_press": -1, "wordID": 338, "type": "PRES_VIS", "trial_index": 108}, "uniqueid": "MTK2718:3XLBSAQ9Z5JF00RMYRX5H9XEZ7GZ7F", "dateTime": 1519251804430}, {"current_trial": 109, "trialdata": {"rt": -1, "trial_type": "single-stim", "word": "robot", "stimulus": "<p id=\"stim\">ROBOT</p>", "conditions": [24, 1600, "v", 24000], "internal_node_id": "0.0-82.0", "trial": 2, "time_elapsed": 485516, "serialpos": 20, "key_press": -1, "wordID": 1199, "type": "PRES_VIS", "trial_index": 109}, "uniqueid": "MTK2718:3XLBSAQ9Z5JF00RMYRX5H9XEZ7GZ7F", "dateTime": 1519251807036}, {"current_trial": 110, "trialdata": {"rt": -1, "trial_type": "single-stim", "word": "briefcase", "stimulus": "<p id=\"stim\">BRIEFCASE</p>", "conditions": [24, 1600, "v", 24000], "internal_node_id": "0.0-83.0", "trial": 2, "time_elapsed": 488209, "serialpos": 21, "key_press": -1, "wordID": 174, "type": "PRES_VIS", "trial_index": 110}, "uniqueid": "MTK2718:3XLBSAQ9Z5JF00RMYRX5H9XEZ7GZ7F", "dateTime": 1519251809729}, {"current_trial": 111, "trialdata": {"rt": -1, "trial_type": "single-stim", "word": "plaza", "stimulus": "<p id=\"stim\">PLAZA</p>", "conditions": [24, 1600, "v", 24000], "internal_node_id": "0.0-84.0", "trial": 2, "time_elapsed": 490833, "serialpos": 22, "key_press": -1, "wordID": 1087, "type": "PRES_VIS", "trial_index": 111}, "uniqueid": "MTK2718:3XLBSAQ9Z5JF00RMYRX5H9XEZ7GZ7F", "dateTime": 1519251812353}, {"current_trial": 112, "trialdata": {"rt": -1, "trial_type": "single-stim", "word": "tunnel", "stimulus": "<p id=\"stim\">TUNNEL</p>", "conditions": [24, 1600, "v", 24000], "internal_node_id": "0.0-85.0", "trial": 2, "time_elapsed": 493589, "serialpos": 23, "key_press": -1, "wordID": 1518, "type": "PRES_VIS", "trial_index": 112}, "uniqueid": "MTK2718:3XLBSAQ9Z5JF00RMYRX5H9XEZ7GZ7F", "dateTime": 1519251815110}, {"current_trial": 113, "trialdata": {"rt": -1, "trial_type": "single-stim", "stimulus": "", "internal_node_id": "0.0-86.0-0.0", "time_elapsed": 496062, "key_press": -1, "type": "PRE_RECALL_DELAY", "trial_index": 113}, "uniqueid": "MTK2718:3XLBSAQ9Z5JF00RMYRX5H9XEZ7GZ7F", "dateTime": 1519251817582}, {"current_trial": 114, "trialdata": {"rt": -1000, "trial_type": "single-audio", "stimulus": "/static/audio/400Hz.wav", "internal_node_id": "0.0-87.0", "time_elapsed": 496564, "key_press": -1, "type": "PRE_RECALL_ALERT", "trial_index": 114}, "uniqueid": "MTK2718:3XLBSAQ9Z5JF00RMYRX5H9XEZ7GZ7F", "dateTime": 1519251818084}, {"current_trial": 115, "trialdata": {"rt": [2062, 6070, 7302, 10670, 21063], "recwords": ["tunnel", "chipmunk", "dustpan", "fridge", "summer"], "key_times": [1118, 1247, 1430, 1550, 1646, 1790, 2062, 3142, 3247, 3446, 3646, 3806, 3990, 4094, 4438, 4574, 4847, 5022, 5198, 5638, 5854, 6070, 6230, 6382, 6438, 6662, 6766, 6902, 6998, 7302, 9670, 9854, 9991, 10215, 10383, 10582, 10670, 20168, 20247, 20615, 20744, 20815, 20976, 21063], "trial_type": "free-recall", "conditions": [24, 1600, "v", 24000], "internal_node_id": "0.0-88.0-0.0", "key_presses": [84, 85, 78, 78, 69, 76, 13, 67, 72, 73, 80, 77, 73, 78, 8, 8, 85, 78, 76, 8, 75, 13, 68, 85, 83, 84, 80, 65, 78, 13, 70, 82, 73, 68, 71, 69, 13, 83, 85, 77, 77, 69, 82, 13], "trial": 2, "time_elapsed": 556566, "type": "FREE_RECALL", "trial_index": 115}, "uniqueid": "MTK2718:3XLBSAQ9Z5JF00RMYRX5H9XEZ7GZ7F", "dateTime": 1519251878088}, {"current_trial": 116, "trialdata": {"rt": 2579, "trial_type": "text", "internal_node_id": "0.0-89.0", "time_elapsed": 561149, "key_press": 32, "type": "INSTRUCTIONS", "trial_index": 116}, "uniqueid": "MTK2718:3XLBSAQ9Z5JF00RMYRX5H9XEZ7GZ7F", "dateTime": 1519251882669}, {"current_trial": 117, "trialdata": {"rt": [4741, 9361, 13144, 21493], "trial_type": "math-distractor", "key_times": [4405, 4741, 9081, 9240, 9361, 12857, 13008, 13144, 20429, 20773, 20940, 21493], "responses": ["6", "12", "12", "17"], "num2": [1, 1, 7, 6, 7], "num3": [5, 8, 2, 8, 3], "conditions": [12, 800, "v", 24000], "internal_node_id": "0.0-90.0", "key_presses": [54, 13, 49, 50, 13, 49, 50, 13, 49, 55, 16, 13], "trial": 3, "time_elapsed": 587154, "type": "DISTRACTOR", "trial_index": 117, "num1": [5, 3, 3, 3, 3]}, "uniqueid": "MTK2718:3XLBSAQ9Z5JF00RMYRX5H9XEZ7GZ7F", "dateTime": 1519251908674}, {"current_trial": 118, "trialdata": {"rt": -1, "trial_type": "single-stim", "stimulus": "<p id=\"stim\">10</p>", "internal_node_id": "0.0-91.0-0.0", "time_elapsed": 590165, "key_press": -1, "trial_index": 118}, "uniqueid": "MTK2718:3XLBSAQ9Z5JF00RMYRX5H9XEZ7GZ7F", "dateTime": 1519251911685}, {"current_trial": 119, "trialdata": {"rt": -1, "trial_type": "single-stim", "stimulus": "<p id=\"stim\">9</p>", "internal_node_id": "0.0-91.0-1.0", "time_elapsed": 591168, "key_press": -1, "trial_index": 119}, "uniqueid": "MTK2718:3XLBSAQ9Z5JF00RMYRX5H9XEZ7GZ7F", "dateTime": 1519251912688}, {"current_trial": 120, "trialdata": {"rt": -1, "trial_type": "single-stim", "stimulus": "<p id=\"stim\">8</p>", "internal_node_id": "0.0-91.0-2.0", "time_elapsed": 592173, "key_press": -1, "trial_index": 120}, "uniqueid": "MTK2718:3XLBSAQ9Z5JF00RMYRX5H9XEZ7GZ7F", "dateTime": 1519251913693}, {"current_trial": 121, "trialdata": {"rt": -1, "trial_type": "single-stim", "stimulus": "<p id=\"stim\">7</p>", "internal_node_id": "0.0-91.0-3.0", "time_elapsed": 593176, "key_press": -1, "trial_index": 121}, "uniqueid": "MTK2718:3XLBSAQ9Z5JF00RMYRX5H9XEZ7GZ7F", "dateTime": 1519251914697}, {"current_trial": 122, "trialdata": {"rt": -1, "trial_type": "single-stim", "stimulus": "<p id=\"stim\">6</p>", "internal_node_id": "0.0-91.0-4.0", "time_elapsed": 594181, "key_press": -1, "trial_index": 122}, "uniqueid": "MTK2718:3XLBSAQ9Z5JF00RMYRX5H9XEZ7GZ7F", "dateTime": 1519251915701}, {"current_trial": 123, "trialdata": {"rt": -1, "trial_type": "single-stim", "stimulus": "<p id=\"stim\">5</p>", "internal_node_id": "0.0-91.0-5.0", "time_elapsed": 595185, "key_press": -1, "trial_index": 123}, "uniqueid": "MTK2718:3XLBSAQ9Z5JF00RMYRX5H9XEZ7GZ7F", "dateTime": 1519251916705}, {"current_trial": 124, "trialdata": {"rt": -1, "trial_type": "single-stim", "stimulus": "<p id=\"stim\">4</p>", "internal_node_id": "0.0-91.0-6.0", "time_elapsed": 596189, "key_press": -1, "trial_index": 124}, "uniqueid": "MTK2718:3XLBSAQ9Z5JF00RMYRX5H9XEZ7GZ7F", "dateTime": 1519251917709}, {"current_trial": 125, "trialdata": {"rt": -1, "trial_type": "single-stim", "stimulus": "<p id=\"stim\">3</p>", "internal_node_id": "0.0-91.0-7.0", "time_elapsed": 597193, "key_press": -1, "trial_index": 125}, "uniqueid": "MTK2718:3XLBSAQ9Z5JF00RMYRX5H9XEZ7GZ7F", "dateTime": 1519251918713}, {"current_trial": 126, "trialdata": {"rt": -1, "trial_type": "single-stim", "stimulus": "<p id=\"stim\">2</p>", "internal_node_id": "0.0-91.0-8.0", "time_elapsed": 598197, "key_press": -1, "trial_index": 126}, "uniqueid": "MTK2718:3XLBSAQ9Z5JF00RMYRX5H9XEZ7GZ7F", "dateTime": 1519251919717}, {"current_trial": 127, "trialdata": {"rt": -1, "trial_type": "single-stim", "stimulus": "<p id=\"stim\">1</p>", "internal_node_id": "0.0-91.0-9.0", "time_elapsed": 599201, "key_press": -1, "trial_index": 127}, "uniqueid": "MTK2718:3XLBSAQ9Z5JF00RMYRX5H9XEZ7GZ7F", "dateTime": 1519251920721}, {"current_trial": 128, "trialdata": {"rt": -1, "trial_type": "single-stim", "stimulus": "<p id=\"stim\">+</p>", "internal_node_id": "0.0-92.0-0.0", "time_elapsed": 600705, "key_press": -1, "type": "FIXATION", "trial_index": 128}, "uniqueid": "MTK2718:3XLBSAQ9Z5JF00RMYRX5H9XEZ7GZ7F", "dateTime": 1519251922225}, {"current_trial": 129, "trialdata": {"rt": -1, "trial_type": "single-stim", "word": "postage", "stimulus": "<p id=\"stim\">POSTAGE</p>", "conditions": [12, 800, "v", 24000], "internal_node_id": "0.0-93.0", "trial": 3, "time_elapsed": 601507, "serialpos": 0, "key_press": -1, "wordID": 1112, "type": "PRES_VIS", "trial_index": 129}, "uniqueid": "MTK2718:3XLBSAQ9Z5JF00RMYRX5H9XEZ7GZ7F", "dateTime": 1519251923027}, {"current_trial": 130, "trialdata": {"rt": -1, "trial_type": "single-stim", "word": "piston", "stimulus": "<p id=\"stim\">PISTON</p>", "conditions": [12, 800, "v", 24000], "internal_node_id": "0.0-94.0", "trial": 3, "time_elapsed": 603467, "serialpos": 1, "key_press": -1, "wordID": 1075, "type": "PRES_VIS", "trial_index": 130}, "uniqueid": "MTK2718:3XLBSAQ9Z5JF00RMYRX5H9XEZ7GZ7F", "dateTime": 1519251924987}, {"current_trial": 131, "trialdata": {"rt": -1, "trial_type": "single-stim", "word": "creature", "stimulus": "<p id=\"stim\">CREATURE</p>", "conditions": [12, 800, "v", 24000], "internal_node_id": "0.0-95.0", "trial": 3, "time_elapsed": 605232, "serialpos": 2, "key_press": -1, "wordID": 402, "type": "PRES_VIS", "trial_index": 131}, "uniqueid": "MTK2718:3XLBSAQ9Z5JF00RMYRX5H9XEZ7GZ7F", "dateTime": 1519251926752}, {"current_trial": 132, "trialdata": {"rt": -1, "trial_type": "single-stim", "word": "lizard", "stimulus": "<p id=\"stim\">LIZARD</p>", "conditions": [12, 800, "v", 24000], "internal_node_id": "0.0-96.0", "trial": 3, "time_elapsed": 607066, "serialpos": 3, "key_press": -1, "wordID": 833, "type": "PRES_VIS", "trial_index": 132}, "uniqueid": "MTK2718:3XLBSAQ9Z5JF00RMYRX5H9XEZ7GZ7F", "dateTime": 1519251928586}, {"current_trial": 133, "trialdata": {"rt": -1, "trial_type": "single-stim", "word": "convict", "stimulus": "<p id=\"stim\">CONVICT</p>", "conditions": [12, 800, "v", 24000], "internal_node_id": "0.0-97.0", "trial": 3, "time_elapsed": 608889, "serialpos": 4, "key_press": -1, "wordID": 370, "type": "PRES_VIS", "trial_index": 133}, "uniqueid": "MTK2718:3XLBSAQ9Z5JF00RMYRX5H9XEZ7GZ7F", "dateTime": 1519251930409}, {"current_trial": 134, "trialdata": {"rt": -1, "trial_type": "single-stim", "word": "valve", "stimulus": "<p id=\"stim\">VALVE</p>", "conditions": [12, 800, "v", 24000], "internal_node_id": "0.0-98.0", "trial": 3, "time_elapsed": 610693, "serialpos": 5, "key_press": -1, "wordID": 1545, "type": "PRES_VIS", "trial_index": 134}, "uniqueid": "MTK2718:3XLBSAQ9Z5JF00RMYRX5H9XEZ7GZ7F", "dateTime": 1519251932213}, {"current_trial": 135, "trialdata": {"rt": -1, "trial_type": "single-stim", "word": "critic", "stimulus": "<p id=\"stim\">CRITIC</p>", "conditions": [12, 800, "v", 24000], "internal_node_id": "0.0-99.0", "trial": 3, "time_elapsed": 612527, "serialpos": 6, "key_press": -1, "wordID": 409, "type": "PRES_VIS", "trial_index": 135}, "uniqueid": "MTK2718:3XLBSAQ9Z5JF00RMYRX5H9XEZ7GZ7F", "dateTime": 1519251934047}, {"current_trial": 136, "trialdata": {"rt": -1, "trial_type": "single-stim", "word": "thief", "stimulus": "<p id=\"stim\">THIEF</p>", "conditions": [12, 800, "v", 24000], "internal_node_id": "0.0-100.0", "trial": 3, "time_elapsed": 614471, "serialpos": 7, "key_press": -1, "wordID": 1455, "type": "PRES_VIS", "trial_index": 136}, "uniqueid": "MTK2718:3XLBSAQ9Z5JF00RMYRX5H9XEZ7GZ7F", "dateTime": 1519251935992}, {"current_trial": 137, "trialdata": {"rt": -1, "trial_type": "single-stim", "word": "trench", "stimulus": "<p id=\"stim\">TRENCH</p>", "conditions": [12, 800, "v", 24000], "internal_node_id": "0.0-101.0", "trial": 3, "time_elapsed": 616462, "serialpos": 8, "key_press": -1, "wordID": 1502, "type": "PRES_VIS", "trial_index": 137}, "uniqueid": "MTK2718:3XLBSAQ9Z5JF00RMYRX5H9XEZ7GZ7F", "dateTime": 1519251937983}, {"current_trial": 138, "trialdata": {"rt": -1, "trial_type": "single-stim", "word": "hero", "stimulus": "<p id=\"stim\">HERO</p>", "conditions": [12, 800, "v", 24000], "internal_node_id": "0.0-102.0", "trial": 3, "time_elapsed": 618342, "serialpos": 9, "key_press": -1, "wordID": 705, "type": "PRES_VIS", "trial_index": 138}, "uniqueid": "MTK2718:3XLBSAQ9Z5JF00RMYRX5H9XEZ7GZ7F", "dateTime": 1519251939862}, {"current_trial": 139, "trialdata": {"rt": -1, "trial_type": "single-stim", "word": "agent", "stimulus": "<p id=\"stim\">AGENT</p>", "conditions": [12, 800, "v", 24000], "internal_node_id": "0.0-103.0", "trial": 3, "time_elapsed": 620132, "serialpos": 10, "key_press": -1, "wordID": 9, "type": "PRES_VIS", "trial_index": 139}, "uniqueid": "MTK2718:3XLBSAQ9Z5JF00RMYRX5H9XEZ7GZ7F", "dateTime": 1519251941652}, {"current_trial": 140, "trialdata": {"rt": -1, "trial_type": "single-stim", "word": "jury", "stimulus": "<p id=\"stim\">JURY</p>", "conditions": [12, 800, "v", 24000], "internal_node_id": "0.0-104.0", "trial": 3, "time_elapsed": 622081, "serialpos": 11, "key_press": -1, "wordID": 765, "type": "PRES_VIS", "trial_index": 140}, "uniqueid": "MTK2718:3XLBSAQ9Z5JF00RMYRX5H9XEZ7GZ7F", "dateTime": 1519251943601}, {"current_trial": 141, "trialdata": {"rt": -1, "trial_type": "single-stim", "stimulus": "", "internal_node_id": "0.0-105.0-0.0", "time_elapsed": 624623, "key_press": -1, "type": "PRE_RECALL_DELAY", "trial_index": 141}, "uniqueid": "MTK2718:3XLBSAQ9Z5JF00RMYRX5H9XEZ7GZ7F", "dateTime": 1519251946143}, {"current_trial": 142, "trialdata": {"rt": -1000, "trial_type": "single-audio", "stimulus": "/static/audio/400Hz.wav", "internal_node_id": "0.0-106.0", "time_elapsed": 625124, "key_press": -1, "type": "PRE_RECALL_ALERT", "trial_index": 142}, "uniqueid": "MTK2718:3XLBSAQ9Z5JF00RMYRX5H9XEZ7GZ7F", "dateTime": 1519251946644}, {"current_trial": 143, "trialdata": {"rt": [1672, 2496, 3433, 13302, 20993, 22690], "recwords": ["jury", "hero", "agent", "jury", "valve", "hero"], "key_times": [1016, 1217, 1312, 1400, 1672, 1936, 2016, 2184, 2265, 2496, 2664, 2961, 3032, 3160, 3264, 3433, 12815, 12927, 13015, 13214, 13302, 19714, 20026, 20257, 20473, 20570, 20722, 20906, 20993, 22161, 22282, 22434, 22498, 22690], "trial_type": "free-recall", "conditions": [12, 800, "v", 24000], "internal_node_id": "0.0-107.0-0.0", "key_presses": [74, 85, 82, 89, 13, 72, 69, 82, 79, 13, 65, 71, 69, 78, 84, 13, 74, 85, 82, 89, 13, 66, 8, 86, 65, 76, 86, 69, 13, 72, 69, 82, 79, 13], "trial": 3, "time_elapsed": 685132, "type": "FREE_RECALL", "trial_index": 143}, "uniqueid": "MTK2718:3XLBSAQ9Z5JF00RMYRX5H9XEZ7GZ7F", "dateTime": 1519252006654}, {"current_trial": 144, "trialdata": {"rt": 5163, "trial_type": "text", "internal_node_id": "0.0-108.0", "time_elapsed": 692304, "key_press": 32, "type": "INSTRUCTIONS", "trial_index": 144}, "uniqueid": "MTK2718:3XLBSAQ9Z5JF00RMYRX5H9XEZ7GZ7F", "dateTime": 1519252013824}, {"current_trial": 145, "trialdata": {"rt": [2599, 6118, 11786, 15114, 17321], "trial_type": "math-distractor", "key_times": [2295, 2599, 5142, 5926, 6118, 11338, 11634, 11786, 14577, 14913, 15114, 16985, 17217, 17321], "responses": ["5", "10", "17", "14", "13"], "num2": [3, 6, 7, 1, 6, 3], "num3": [1, 3, 1, 9, 1, 7], "conditions": [12, 800, "v", 24000], "internal_node_id": "0.0-109.0", "key_presses": [53, 13, 49, 48, 13, 49, 55, 13, 49, 52, 13, 49, 51, 13], "trial": 4, "time_elapsed": 718314, "type": "DISTRACTOR", "trial_index": 145, "num1": [1, 1, 9, 4, 6, 9]}, "uniqueid": "MTK2718:3XLBSAQ9Z5JF00RMYRX5H9XEZ7GZ7F", "dateTime": 1519252039834}, {"current_trial": 146, "trialdata": {"rt": -1, "trial_type": "single-stim", "stimulus": "<p id=\"stim\">10</p>", "internal_node_id": "0.0-110.0-0.0", "time_elapsed": 721320, "key_press": -1, "trial_index": 146}, "uniqueid": "MTK2718:3XLBSAQ9Z5JF00RMYRX5H9XEZ7GZ7F", "dateTime": 1519252042840}, {"current_trial": 147, "trialdata": {"rt": -1, "trial_type": "single-stim", "stimulus": "<p id=\"stim\">9</p>", "internal_node_id": "0.0-110.0-1.0", "time_elapsed": 722324, "key_press": -1, "trial_index": 147}, "uniqueid": "MTK2718:3XLBSAQ9Z5JF00RMYRX5H9XEZ7GZ7F", "dateTime": 1519252043844}, {"current_trial": 148, "trialdata": {"rt": -1, "trial_type": "single-stim", "stimulus": "<p id=\"stim\">8</p>", "internal_node_id": "0.0-110.0-2.0", "time_elapsed": 723328, "key_press": -1, "trial_index": 148}, "uniqueid": "MTK2718:3XLBSAQ9Z5JF00RMYRX5H9XEZ7GZ7F", "dateTime": 1519252044848}, {"current_trial": 149, "trialdata": {"rt": -1, "trial_type": "single-stim", "stimulus": "<p id=\"stim\">7</p>", "internal_node_id": "0.0-110.0-3.0", "time_elapsed": 724332, "key_press": -1, "trial_index": 149}, "uniqueid": "MTK2718:3XLBSAQ9Z5JF00RMYRX5H9XEZ7GZ7F", "dateTime": 1519252045852}, {"current_trial": 150, "trialdata": {"rt": -1, "trial_type": "single-stim", "stimulus": "<p id=\"stim\">6</p>", "internal_node_id": "0.0-110.0-4.0", "time_elapsed": 725336, "key_press": -1, "trial_index": 150}, "uniqueid": "MTK2718:3XLBSAQ9Z5JF00RMYRX5H9XEZ7GZ7F", "dateTime": 1519252046856}, {"current_trial": 151, "trialdata": {"rt": -1, "trial_type": "single-stim", "stimulus": "<p id=\"stim\">5</p>", "internal_node_id": "0.0-110.0-5.0", "time_elapsed": 726340, "key_press": -1, "trial_index": 151}, "uniqueid": "MTK2718:3XLBSAQ9Z5JF00RMYRX5H9XEZ7GZ7F", "dateTime": 1519252047860}, {"current_trial": 152, "trialdata": {"rt": -1, "trial_type": "single-stim", "stimulus": "<p id=\"stim\">4</p>", "internal_node_id": "0.0-110.0-6.0", "time_elapsed": 727344, "key_press": -1, "trial_index": 152}, "uniqueid": "MTK2718:3XLBSAQ9Z5JF00RMYRX5H9XEZ7GZ7F", "dateTime": 1519252048865}, {"current_trial": 153, "trialdata": {"rt": -1, "trial_type": "single-stim", "stimulus": "<p id=\"stim\">3</p>", "internal_node_id": "0.0-110.0-7.0", "time_elapsed": 728349, "key_press": -1, "trial_index": 153}, "uniqueid": "MTK2718:3XLBSAQ9Z5JF00RMYRX5H9XEZ7GZ7F", "dateTime": 1519252049869}, {"current_trial": 154, "trialdata": {"rt": -1, "trial_type": "single-stim", "stimulus": "<p id=\"stim\">2</p>", "internal_node_id": "0.0-110.0-8.0", "time_elapsed": 729352, "key_press": -1, "trial_index": 154}, "uniqueid": "MTK2718:3XLBSAQ9Z5JF00RMYRX5H9XEZ7GZ7F", "dateTime": 1519252050872}, {"current_trial": 155, "trialdata": {"rt": -1, "trial_type": "single-stim", "stimulus": "<p id=\"stim\">1</p>", "internal_node_id": "0.0-110.0-9.0", "time_elapsed": 730357, "key_press": -1, "trial_index": 155}, "uniqueid": "MTK2718:3XLBSAQ9Z5JF00RMYRX5H9XEZ7GZ7F", "dateTime": 1519252051877}, {"current_trial": 156, "trialdata": {"rt": -1, "trial_type": "single-stim", "stimulus": "<p id=\"stim\">+</p>", "internal_node_id": "0.0-111.0-0.0", "time_elapsed": 731860, "key_press": -1, "type": "FIXATION", "trial_index": 156}, "uniqueid": "MTK2718:3XLBSAQ9Z5JF00RMYRX5H9XEZ7GZ7F", "dateTime": 1519252053380}, {"current_trial": 157, "trialdata": {"rt": -1, "trial_type": "single-stim", "word": "turkey", "stimulus": "<p id=\"stim\">TURKEY</p>", "conditions": [12, 800, "v", 24000], "internal_node_id": "0.0-112.0", "trial": 4, "time_elapsed": 732661, "serialpos": 0, "key_press": -1, "wordID": 1519, "type": "PRES_VIS", "trial_index": 157}, "uniqueid": "MTK2718:3XLBSAQ9Z5JF00RMYRX5H9XEZ7GZ7F", "dateTime": 1519252054181}, {"current_trial": 158, "trialdata": {"rt": -1, "trial_type": "single-stim", "word": "quarter", "stimulus": "<p id=\"stim\">QUARTER</p>", "conditions": [12, 800, "v", 24000], "internal_node_id": "0.0-113.0", "trial": 4, "time_elapsed": 734443, "serialpos": 1, "key_press": -1, "wordID": 1147, "type": "PRES_VIS", "trial_index": 158}, "uniqueid": "MTK2718:3XLBSAQ9Z5JF00RMYRX5H9XEZ7GZ7F", "dateTime": 1519252055963}, {"current_trial": 159, "trialdata": {"rt": -1, "trial_type": "single-stim", "word": "garden", "stimulus": "<p id=\"stim\">GARDEN</p>", "conditions": [12, 800, "v", 24000], "internal_node_id": "0.0-114.0", "trial": 4, "time_elapsed": 736445, "serialpos": 2, "key_press": -1, "wordID": 622, "type": "PRES_VIS", "trial_index": 159}, "uniqueid": "MTK2718:3XLBSAQ9Z5JF00RMYRX5H9XEZ7GZ7F", "dateTime": 1519252057965}, {"current_trial": 160, "trialdata": {"rt": -1, "trial_type": "single-stim", "word": "pork", "stimulus": "<p id=\"stim\">PORK</p>", "conditions": [12, 800, "v", 24000], "internal_node_id": "0.0-115.0", "trial": 4, "time_elapsed": 738436, "serialpos": 3, "key_press": -1, "wordID": 1107, "type": "PRES_VIS", "trial_index": 160}, "uniqueid": "MTK2718:3XLBSAQ9Z5JF00RMYRX5H9XEZ7GZ7F", "dateTime": 1519252059956}, {"current_trial": 161, "trialdata": {"rt": -1, "trial_type": "single-stim", "word": "blender", "stimulus": "<p id=\"stim\">BLENDER</p>", "conditions": [12, 800, "v", 24000], "internal_node_id": "0.0-116.0", "trial": 4, "time_elapsed": 740183, "serialpos": 4, "key_press": -1, "wordID": 135, "type": "PRES_VIS", "trial_index": 161}, "uniqueid": "MTK2718:3XLBSAQ9Z5JF00RMYRX5H9XEZ7GZ7F", "dateTime": 1519252061703}, {"current_trial": 162, "trialdata": {"rt": -1, "trial_type": "single-stim", "word": "spool", "stimulus": "<p id=\"stim\">SPOOL</p>", "conditions": [12, 800, "v", 24000], "internal_node_id": "0.0-117.0", "trial": 4, "time_elapsed": 742086, "serialpos": 5, "key_press": -1, "wordID": 1355, "type": "PRES_VIS", "trial_index": 162}, "uniqueid": "MTK2718:3XLBSAQ9Z5JF00RMYRX5H9XEZ7GZ7F", "dateTime": 1519252063606}, {"current_trial": 163, "trialdata": {"rt": -1, "trial_type": "single-stim", "word": "bacon", "stimulus": "<p id=\"stim\">BACON</p>", "conditions": [12, 800, "v", 24000], "internal_node_id": "0.0-118.0", "trial": 4, "time_elapsed": 743972, "serialpos": 6, "key_press": -1, "wordID": 66, "type": "PRES_VIS", "trial_index": 163}, "uniqueid": "MTK2718:3XLBSAQ9Z5JF00RMYRX5H9XEZ7GZ7F", "dateTime": 1519252065493}, {"current_trial": 164, "trialdata": {"rt": -1, "trial_type": "single-stim", "word": "whistle", "stimulus": "<p id=\"stim\">WHISTLE</p>", "conditions": [12, 800, "v", 24000], "internal_node_id": "0.0-119.0", "trial": 4, "time_elapsed": 745836, "serialpos": 7, "key_press": -1, "wordID": 1605, "type": "PRES_VIS", "trial_index": 164}, "uniqueid": "MTK2718:3XLBSAQ9Z5JF00RMYRX5H9XEZ7GZ7F", "dateTime": 1519252067356}, {"current_trial": 165, "trialdata": {"rt": -1, "trial_type": "single-stim", "word": "brook", "stimulus": "<p id=\"stim\">BROOK</p>", "conditions": [12, 800, "v", 24000], "internal_node_id": "0.0-120.0", "trial": 4, "time_elapsed": 747676, "serialpos": 8, "key_press": -1, "wordID": 176, "type": "PRES_VIS", "trial_index": 165}, "uniqueid": "MTK2718:3XLBSAQ9Z5JF00RMYRX5H9XEZ7GZ7F", "dateTime": 1519252069196}, {"current_trial": 166, "trialdata": {"rt": -1, "trial_type": "single-stim", "word": "fox", "stimulus": "<p id=\"stim\">FOX</p>", "conditions": [12, 800, "v", 24000], "internal_node_id": "0.0-121.0", "trial": 4, "time_elapsed": 749475, "serialpos": 9, "key_press": -1, "wordID": 597, "type": "PRES_VIS", "trial_index": 166}, "uniqueid": "MTK2718:3XLBSAQ9Z5JF00RMYRX5H9XEZ7GZ7F", "dateTime": 1519252070996}, {"current_trial": 167, "trialdata": {"rt": -1, "trial_type": "single-stim", "word": "pigeon", "stimulus": "<p id=\"stim\">PIGEON</p>", "conditions": [12, 800, "v", 24000], "internal_node_id": "0.0-122.0", "trial": 4, "time_elapsed": 751082, "serialpos": 10, "key_press": -1, "wordID": 1064, "type": "PRES_VIS", "trial_index": 167}, "uniqueid": "MTK2718:3XLBSAQ9Z5JF00RMYRX5H9XEZ7GZ7F", "dateTime": 1519252072603}, {"current_trial": 168, "trialdata": {"rt": -1, "trial_type": "single-stim", "word": "turtle", "stimulus": "<p id=\"stim\">TURTLE</p>", "conditions": [12, 800, "v", 24000], "internal_node_id": "0.0-123.0", "trial": 4, "time_elapsed": 752707, "serialpos": 11, "key_press": -1, "wordID": 1521, "type": "PRES_VIS", "trial_index": 168}, "uniqueid": "MTK2718:3XLBSAQ9Z5JF00RMYRX5H9XEZ7GZ7F", "dateTime": 1519252074227}, {"current_trial": 169, "trialdata": {"rt": -1, "trial_type": "single-stim", "stimulus": "", "internal_node_id": "0.0-124.0-0.0", "time_elapsed": 755046, "key_press": -1, "type": "PRE_RECALL_DELAY", "trial_index": 169}, "uniqueid": "MTK2718:3XLBSAQ9Z5JF00RMYRX5H9XEZ7GZ7F", "dateTime": 1519252076566}, {"current_trial": 170, "trialdata": {"rt": -1000, "trial_type": "single-audio", "stimulus": "/static/audio/400Hz.wav", "internal_node_id": "0.0-125.0", "time_elapsed": 755547, "key_press": -1, "type": "PRE_RECALL_ALERT", "trial_index": 170}, "uniqueid": "MTK2718:3XLBSAQ9Z5JF00RMYRX5H9XEZ7GZ7F", "dateTime": 1519252077067}, {"current_trial": 171, "trialdata": {"rt": [3008, 4022, 5647, 6447, 10487, 11488, 12520], "recwords": ["brook", "whistle", "spool", "fox", "pigeon", "turtle", "spool"], "key_times": [2255, 2432, 2527, 2639, 2807, 3008, 3151, 3263, 3448, 3480, 3703, 3807, 3928, 4022, 4511, 4776, 4911, 4975, 5159, 5263, 5439, 5647, 5911, 6015, 6136, 6447, 6767, 6888, 7303, 7592, 7727, 7888, 7952, 8167, 8280, 8632, 8799, 8943, 9615, 9919, 10032, 10247, 10487, 10679, 10839, 10943, 11111, 11223, 11351, 11488, 11728, 11839, 12023, 12135, 12319, 12520], "trial_type": "free-recall", "conditions": [12, 800, "v", 24000], "internal_node_id": "0.0-126.0-0.0", "key_presses": [66, 82, 79, 79, 75, 13, 87, 72, 73, 83, 84, 76, 69, 13, 80, 8, 83, 80, 79, 79, 76, 13, 70, 79, 88, 13, 80, 69, 73, 8, 8, 73, 69, 71, 79, 8, 8, 8, 71, 69, 79, 78, 13, 84, 85, 82, 84, 76, 69, 13, 83, 80, 79, 79, 76, 13], "trial": 4, "time_elapsed": 815556, "type": "FREE_RECALL", "trial_index": 171}, "uniqueid": "MTK2718:3XLBSAQ9Z5JF00RMYRX5H9XEZ7GZ7F", "dateTime": 1519252137078}, {"current_trial": 172, "trialdata": {"rt": 24129, "trial_type": "text", "internal_node_id": "0.0-127.0", "time_elapsed": 841693, "key_press": 32, "type": "INSTRUCTIONS", "trial_index": 172}, "uniqueid": "MTK2718:3XLBSAQ9Z5JF00RMYRX5H9XEZ7GZ7F", "dateTime": 1519252163213}, {"current_trial": 173, "trialdata": {"rt": [7545], "trial_type": "math-distractor", "key_times": [7049, 7409, 7545], "responses": ["18"], "num2": [5, 1], "num3": [7, 9], "conditions": [24, 800, "v", 12000], "internal_node_id": "0.0-128.0", "key_presses": [49, 56, 13], "trial": 5, "time_elapsed": 855702, "type": "DISTRACTOR", "trial_index": 173, "num1": [6, 4]}, "uniqueid": "MTK2718:3XLBSAQ9Z5JF00RMYRX5H9XEZ7GZ7F", "dateTime": 1519252177222}, {"current_trial": 174, "trialdata": {"rt": -1, "trial_type": "single-stim", "stimulus": "<p id=\"stim\">10</p>", "internal_node_id": "0.0-129.0-0.0", "time_elapsed": 858708, "key_press": -1, "trial_index": 174}, "uniqueid": "MTK2718:3XLBSAQ9Z5JF00RMYRX5H9XEZ7GZ7F", "dateTime": 1519252180229}, {"current_trial": 175, "trialdata": {"rt": -1, "trial_type": "single-stim", "stimulus": "<p id=\"stim\">9</p>", "internal_node_id": "0.0-129.0-1.0", "time_elapsed": 859712, "key_press": -1, "trial_index": 175}, "uniqueid": "MTK2718:3XLBSAQ9Z5JF00RMYRX5H9XEZ7GZ7F", "dateTime": 1519252181232}, {"current_trial": 176, "trialdata": {"rt": -1, "trial_type": "single-stim", "stimulus": "<p id=\"stim\">8</p>", "internal_node_id": "0.0-129.0-2.0", "time_elapsed": 860716, "key_press": -1, "trial_index": 176}, "uniqueid": "MTK2718:3XLBSAQ9Z5JF00RMYRX5H9XEZ7GZ7F", "dateTime": 1519252182236}, {"current_trial": 177, "trialdata": {"rt": -1, "trial_type": "single-stim", "stimulus": "<p id=\"stim\">7</p>", "internal_node_id": "0.0-129.0-3.0", "time_elapsed": 861720, "key_press": -1, "trial_index": 177}, "uniqueid": "MTK2718:3XLBSAQ9Z5JF00RMYRX5H9XEZ7GZ7F", "dateTime": 1519252183240}, {"current_trial": 178, "trialdata": {"rt": -1, "trial_type": "single-stim", "stimulus": "<p id=\"stim\">6</p>", "internal_node_id": "0.0-129.0-4.0", "time_elapsed": 862725, "key_press": -1, "trial_index": 178}, "uniqueid": "MTK2718:3XLBSAQ9Z5JF00RMYRX5H9XEZ7GZ7F", "dateTime": 1519252184245}, {"current_trial": 179, "trialdata": {"rt": -1, "trial_type": "single-stim", "stimulus": "<p id=\"stim\">5</p>", "internal_node_id": "0.0-129.0-5.0", "time_elapsed": 863729, "key_press": -1, "trial_index": 179}, "uniqueid": "MTK2718:3XLBSAQ9Z5JF00RMYRX5H9XEZ7GZ7F", "dateTime": 1519252185249}, {"current_trial": 180, "trialdata": {"rt": -1, "trial_type": "single-stim", "stimulus": "<p id=\"stim\">4</p>", "internal_node_id": "0.0-129.0-6.0", "time_elapsed": 864733, "key_press": -1, "trial_index": 180}, "uniqueid": "MTK2718:3XLBSAQ9Z5JF00RMYRX5H9XEZ7GZ7F", "dateTime": 1519252186253}, {"current_trial": 181, "trialdata": {"rt": -1, "trial_type": "single-stim", "stimulus": "<p id=\"stim\">3</p>", "internal_node_id": "0.0-129.0-7.0", "time_elapsed": 865737, "key_press": -1, "trial_index": 181}, "uniqueid": "MTK2718:3XLBSAQ9Z5JF00RMYRX5H9XEZ7GZ7F", "dateTime": 1519252187257}, {"current_trial": 182, "trialdata": {"rt": -1, "trial_type": "single-stim", "stimulus": "<p id=\"stim\">2</p>", "internal_node_id": "0.0-129.0-8.0", "time_elapsed": 866741, "key_press": -1, "trial_index": 182}, "uniqueid": "MTK2718:3XLBSAQ9Z5JF00RMYRX5H9XEZ7GZ7F", "dateTime": 1519252188261}, {"current_trial": 183, "trialdata": {"rt": -1, "trial_type": "single-stim", "stimulus": "<p id=\"stim\">1</p>", "internal_node_id": "0.0-129.0-9.0", "time_elapsed": 867745, "key_press": -1, "trial_index": 183}, "uniqueid": "MTK2718:3XLBSAQ9Z5JF00RMYRX5H9XEZ7GZ7F", "dateTime": 1519252189265}, {"current_trial": 184, "trialdata": {"rt": -1, "trial_type": "single-stim", "stimulus": "<p id=\"stim\">+</p>", "internal_node_id": "0.0-130.0-0.0", "time_elapsed": 869249, "key_press": -1, "type": "FIXATION", "trial_index": 184}, "uniqueid": "MTK2718:3XLBSAQ9Z5JF00RMYRX5H9XEZ7GZ7F", "dateTime": 1519252190769}, {"current_trial": 185, "trialdata": {"rt": -1, "trial_type": "single-stim", "word": "queen", "stimulus": "<p id=\"stim\">QUEEN</p>", "conditions": [24, 800, "v", 12000], "internal_node_id": "0.0-131.0", "trial": 5, "time_elapsed": 870051, "serialpos": 0, "key_press": -1, "wordID": 1148, "type": "PRES_VIS", "trial_index": 185}, "uniqueid": "MTK2718:3XLBSAQ9Z5JF00RMYRX5H9XEZ7GZ7F", "dateTime": 1519252191571}, {"current_trial": 186, "trialdata": {"rt": -1, "trial_type": "single-stim", "word": "wagon", "stimulus": "<p id=\"stim\">WAGON</p>", "conditions": [24, 800, "v", 12000], "internal_node_id": "0.0-132.0", "trial": 5, "time_elapsed": 871964, "serialpos": 1, "key_press": -1, "wordID": 1577, "type": "PRES_VIS", "trial_index": 186}, "uniqueid": "MTK2718:3XLBSAQ9Z5JF00RMYRX5H9XEZ7GZ7F", "dateTime": 1519252193484}, {"current_trial": 187, "trialdata": {"rt": -1, "trial_type": "single-stim", "word": "driver", "stimulus": "<p id=\"stim\">DRIVER</p>", "conditions": [24, 800, "v", 12000], "internal_node_id": "0.0-133.0", "trial": 5, "time_elapsed": 873729, "serialpos": 2, "key_press": -1, "wordID": 498, "type": "PRES_VIS", "trial_index": 187}, "uniqueid": "MTK2718:3XLBSAQ9Z5JF00RMYRX5H9XEZ7GZ7F", "dateTime": 1519252195249}, {"current_trial": 188, "trialdata": {"rt": -1, "trial_type": "single-stim", "word": "slope", "stimulus": "<p id=\"stim\">SLOPE</p>", "conditions": [24, 800, "v", 12000], "internal_node_id": "0.0-134.0", "trial": 5, "time_elapsed": 875476, "serialpos": 3, "key_press": -1, "wordID": 1327, "type": "PRES_VIS", "trial_index": 188}, "uniqueid": "MTK2718:3XLBSAQ9Z5JF00RMYRX5H9XEZ7GZ7F", "dateTime": 1519252196996}, {"current_trial": 189, "trialdata": {"rt": -1, "trial_type": "single-stim", "word": "stove", "stimulus": "<p id=\"stim\">STOVE</p>", "conditions": [24, 800, "v", 12000], "internal_node_id": "0.0-135.0", "trial": 5, "time_elapsed": 877449, "serialpos": 4, "key_press": -1, "wordID": 1387, "type": "PRES_VIS", "trial_index": 189}, "uniqueid": "MTK2718:3XLBSAQ9Z5JF00RMYRX5H9XEZ7GZ7F", "dateTime": 1519252198969}, {"current_trial": 190, "trialdata": {"rt": -1, "trial_type": "single-stim", "word": "lake", "stimulus": "<p id=\"stim\">LAKE</p>", "conditions": [24, 800, "v", 12000], "internal_node_id": "0.0-136.0", "trial": 5, "time_elapsed": 879121, "serialpos": 5, "key_press": -1, "wordID": 795, "type": "PRES_VIS", "trial_index": 190}, "uniqueid": "MTK2718:3XLBSAQ9Z5JF00RMYRX5H9XEZ7GZ7F", "dateTime": 1519252200641}, {"current_trial": 191, "trialdata": {"rt": -1, "trial_type": "single-stim", "word": "goblin", "stimulus": "<p id=\"stim\">GOBLIN</p>", "conditions": [24, 800, "v", 12000], "internal_node_id": "0.0-137.0", "trial": 5, "time_elapsed": 880728, "serialpos": 6, "key_press": -1, "wordID": 644, "type": "PRES_VIS", "trial_index": 191}, "uniqueid": "MTK2718:3XLBSAQ9Z5JF00RMYRX5H9XEZ7GZ7F", "dateTime": 1519252202249}, {"current_trial": 192, "trialdata": {"rt": -1, "trial_type": "single-stim", "word": "egypt", "stimulus": "<p id=\"stim\">EGYPT</p>", "conditions": [24, 800, "v", 12000], "internal_node_id": "0.0-138.0", "trial": 5, "time_elapsed": 882632, "serialpos": 7, "key_press": -1, "wordID": 518, "type": "PRES_VIS", "trial_index": 192}, "uniqueid": "MTK2718:3XLBSAQ9Z5JF00RMYRX5H9XEZ7GZ7F", "dateTime": 1519252204152}, {"current_trial": 193, "trialdata": {"rt": -1, "trial_type": "single-stim", "word": "patrol", "stimulus": "<p id=\"stim\">PATROL</p>", "conditions": [24, 800, "v", 12000], "internal_node_id": "0.0-139.0", "trial": 5, "time_elapsed": 884321, "serialpos": 8, "key_press": -1, "wordID": 1026, "type": "PRES_VIS", "trial_index": 193}, "uniqueid": "MTK2718:3XLBSAQ9Z5JF00RMYRX5H9XEZ7GZ7F", "dateTime": 1519252205842}, {"current_trial": 194, "trialdata": {"rt": -1, "trial_type": "single-stim", "word": "police", "stimulus": "<p id=\"stim\">POLICE</p>", "conditions": [24, 800, "v", 12000], "internal_node_id": "0.0-140.0", "trial": 5, "time_elapsed": 886312, "serialpos": 9, "key_press": -1, "wordID": 1097, "type": "PRES_VIS", "trial_index": 194}, "uniqueid": "MTK2718:3XLBSAQ9Z5JF00RMYRX5H9XEZ7GZ7F", "dateTime": 1519252207832}, {"current_trial": 195, "trialdata": {"rt": -1, "trial_type": "single-stim", "word": "truck", "stimulus": "<p id=\"stim\">TRUCK</p>", "conditions": [24, 800, "v", 12000], "internal_node_id": "0.0-141.0", "trial": 5, "time_elapsed": 888123, "serialpos": 10, "key_press": -1, "wordID": 1511, "type": "PRES_VIS", "trial_index": 195}, "uniqueid": "MTK2718:3XLBSAQ9Z5JF00RMYRX5H9XEZ7GZ7F", "dateTime": 1519252209643}, {"current_trial": 196, "trialdata": {"rt": -1, "trial_type": "single-stim", "word": "statue", "stimulus": "<p id=\"stim\">STATUE</p>", "conditions": [24, 800, "v", 12000], "internal_node_id": "0.0-142.0", "trial": 5, "time_elapsed": 889945, "serialpos": 11, "key_press": -1, "wordID": 1373, "type": "PRES_VIS", "trial_index": 196}, "uniqueid": "MTK2718:3XLBSAQ9Z5JF00RMYRX5H9XEZ7GZ7F", "dateTime": 1519252211465}, {"current_trial": 197, "trialdata": {"rt": -1, "trial_type": "single-stim", "word": "child", "stimulus": "<p id=\"stim\">CHILD</p>", "conditions": [24, 800, "v", 12000], "internal_node_id": "0.0-143.0", "trial": 5, "time_elapsed": 891924, "serialpos": 12, "key_press": -1, "wordID": 298, "type": "PRES_VIS", "trial_index": 197}, "uniqueid": "MTK2718:3XLBSAQ9Z5JF00RMYRX5H9XEZ7GZ7F", "dateTime": 1519252213444}, {"current_trial": 198, "trialdata": {"rt": -1, "trial_type": "single-stim", "word": "candy", "stimulus": "<p id=\"stim\">CANDY</p>", "conditions": [24, 800, "v", 12000], "internal_node_id": "0.0-144.0", "trial": 5, "time_elapsed": 893683, "serialpos": 13, "key_press": -1, "wordID": 229, "type": "PRES_VIS", "trial_index": 198}, "uniqueid": "MTK2718:3XLBSAQ9Z5JF00RMYRX5H9XEZ7GZ7F", "dateTime": 1519252215203}, {"current_trial": 199, "trialdata": {"rt": -1, "trial_type": "single-stim", "word": "snack", "stimulus": "<p id=\"stim\">SNACK</p>", "conditions": [24, 800, "v", 12000], "internal_node_id": "0.0-145.0", "trial": 5, "time_elapsed": 895300, "serialpos": 14, "key_press": -1, "wordID": 1330, "type": "PRES_VIS", "trial_index": 199}, "uniqueid": "MTK2718:3XLBSAQ9Z5JF00RMYRX5H9XEZ7GZ7F", "dateTime": 1519252216820}, {"current_trial": 200, "trialdata": {"rt": -1, "trial_type": "single-stim", "word": "hook", "stimulus": "<p id=\"stim\">HOOK</p>", "conditions": [24, 800, "v", 12000], "internal_node_id": "0.0-146.0", "trial": 5, "time_elapsed": 897229, "serialpos": 15, "key_press": -1, "wordID": 714, "type": "PRES_VIS", "trial_index": 200}, "uniqueid": "MTK2718:3XLBSAQ9Z5JF00RMYRX5H9XEZ7GZ7F", "dateTime": 1519252218749}, {"current_trial": 201, "trialdata": {"rt": -1, "trial_type": "single-stim", "word": "bug", "stimulus": "<p id=\"stim\">BUG</p>", "conditions": [24, 800, "v", 12000], "internal_node_id": "0.0-147.0", "trial": 5, "time_elapsed": 898849, "serialpos": 16, "key_press": -1, "wordID": 186, "type": "PRES_VIS", "trial_index": 201}, "uniqueid": "MTK2718:3XLBSAQ9Z5JF00RMYRX5H9XEZ7GZ7F", "dateTime": 1519252220369}, {"current_trial": 202, "trialdata": {"rt": -1, "trial_type": "single-stim", "word": "dorm", "stimulus": "<p id=\"stim\">DORM</p>", "conditions": [24, 800, "v", 12000], "internal_node_id": "0.0-148.0", "trial": 5, "time_elapsed": 900508, "serialpos": 17, "key_press": -1, "wordID": 487, "type": "PRES_VIS", "trial_index": 202}, "uniqueid": "MTK2718:3XLBSAQ9Z5JF00RMYRX5H9XEZ7GZ7F", "dateTime": 1519252222028}, {"current_trial": 203, "trialdata": {"rt": -1, "trial_type": "single-stim", "word": "switch", "stimulus": "<p id=\"stim\">SWITCH</p>", "conditions": [24, 800, "v", 12000], "internal_node_id": "0.0-149.0", "trial": 5, "time_elapsed": 902238, "serialpos": 18, "key_press": -1, "wordID": 1421, "type": "PRES_VIS", "trial_index": 203}, "uniqueid": "MTK2718:3XLBSAQ9Z5JF00RMYRX5H9XEZ7GZ7F", "dateTime": 1519252223758}, {"current_trial": 204, "trialdata": {"rt": -1, "trial_type": "single-stim", "word": "elbow", "stimulus": "<p id=\"stim\">ELBOW</p>", "conditions": [24, 800, "v", 12000], "internal_node_id": "0.0-150.0", "trial": 5, "time_elapsed": 903968, "serialpos": 19, "key_press": -1, "wordID": 519, "type": "PRES_VIS", "trial_index": 204}, "uniqueid": "MTK2718:3XLBSAQ9Z5JF00RMYRX5H9XEZ7GZ7F", "dateTime": 1519252225488}, {"current_trial": 205, "trialdata": {"rt": -1, "trial_type": "single-stim", "word": "mildew", "stimulus": "<p id=\"stim\">MILDEW</p>", "conditions": [24, 800, "v", 12000], "internal_node_id": "0.0-151.0", "trial": 5, "time_elapsed": 905888, "serialpos": 20, "key_press": -1, "wordID": 892, "type": "PRES_VIS", "trial_index": 205}, "uniqueid": "MTK2718:3XLBSAQ9Z5JF00RMYRX5H9XEZ7GZ7F", "dateTime": 1519252227409}, {"current_trial": 206, "trialdata": {"rt": -1, "trial_type": "single-stim", "word": "stamp", "stimulus": "<p id=\"stim\">STAMP</p>", "conditions": [24, 800, "v", 12000], "internal_node_id": "0.0-152.0", "trial": 5, "time_elapsed": 907711, "serialpos": 21, "key_press": -1, "wordID": 1369, "type": "PRES_VIS", "trial_index": 206}, "uniqueid": "MTK2718:3XLBSAQ9Z5JF00RMYRX5H9XEZ7GZ7F", "dateTime": 1519252229231}, {"current_trial": 207, "trialdata": {"rt": -1, "trial_type": "single-stim", "word": "fireplace", "stimulus": "<p id=\"stim\">FIREPLACE</p>", "conditions": [24, 800, "v", 12000], "internal_node_id": "0.0-153.0", "trial": 5, "time_elapsed": 909569, "serialpos": 22, "key_press": -1, "wordID": 569, "type": "PRES_VIS", "trial_index": 207}, "uniqueid": "MTK2718:3XLBSAQ9Z5JF00RMYRX5H9XEZ7GZ7F", "dateTime": 1519252231089}, {"current_trial": 208, "trialdata": {"rt": -1, "trial_type": "single-stim", "word": "ankle", "stimulus": "<p id=\"stim\">ANKLE</p>", "conditions": [24, 800, "v", 12000], "internal_node_id": "0.0-154.0", "trial": 5, "time_elapsed": 911484, "serialpos": 23, "key_press": -1, "wordID": 23, "type": "PRES_VIS", "trial_index": 208}, "uniqueid": "MTK2718:3XLBSAQ9Z5JF00RMYRX5H9XEZ7GZ7F", "dateTime": 1519252233004}, {"current_trial": 209, "trialdata": {"rt": -1, "trial_type": "single-stim", "stimulus": "", "internal_node_id": "0.0-155.0-0.0", "time_elapsed": 913515, "key_press": -1, "type": "PRE_RECALL_DELAY", "trial_index": 209}, "uniqueid": "MTK2718:3XLBSAQ9Z5JF00RMYRX5H9XEZ7GZ7F", "dateTime": 1519252235035}, {"current_trial": 210, "trialdata": {"rt": -1000, "trial_type": "single-audio", "stimulus": "/static/audio/400Hz.wav", "internal_node_id": "0.0-156.0", "time_elapsed": 914016, "key_press": -1, "type": "PRE_RECALL_ALERT", "trial_index": 210}, "uniqueid": "MTK2718:3XLBSAQ9Z5JF00RMYRX5H9XEZ7GZ7F", "dateTime": 1519252235536}, {"current_trial": 211, "trialdata": {"rt": [2998, 5149, 6398, 8278, 9998, 14182, 14998, 15957, 17510, 19166, 20981, 22261, 23557, 24798, 26765, 31702, 34222, 37405, 38669, 41270, 42693, 43894, 46382, 48974], "recwords": ["ankle", "fireplace", "stamp", "mildew", "elbow", "switch", "dorm", "bug", "hook", "snack", "candy", "child", "statue", "truck", "police", "patrol", "egypt", "goblin", "lake", "stove", "lope", "driver", "wagon", "queen"], "key_times": [2014, 2062, 2262, 2454, 2637, 2998, 3518, 3678, 3765, 3933, 4038, 4198, 4278, 4486, 4670, 5149, 5341, 5557, 5773, 5846, 6046, 6398, 7349, 7541, 7709, 7765, 7957, 8134, 8278, 8893, 9030, 9174, 9542, 9638, 9998, 13190, 13398, 13502, 13637, 13854, 13925, 14182, 14422, 14550, 14677, 14781, 14998, 15182, 15309, 15413, 15957, 16734, 16974, 17102, 17277, 17510, 18414, 18590, 18686, 18878, 18949, 19166, 20078, 20326, 20462, 20542, 20773, 20981, 21478, 21606, 21830, 22029, 22141, 22261, 22454, 22701, 22933, 23150, 23262, 23365, 23557, 24062, 24238, 24318, 24445, 24509, 24798, 25805, 25966, 26158, 26342, 26414, 26613, 26765, 27181, 27342, 27598, 27750, 27798, 27973, 29558, 29806, 30006, 30094, 30214, 30733, 30901, 31061, 31222, 31374, 31702, 32070, 32301, 32502, 32598, 32694, 32941, 33118, 33278, 33437, 33542, 33702, 33797, 33901, 34222, 35270, 35381, 35565, 35669, 35814, 36150, 36309, 36469, 36589, 36709, 36902, 36974, 37405, 38246, 38326, 38446, 38525, 38669, 40397, 40653, 40774, 40885, 41086, 41270, 42046, 42246, 42422, 42509, 42693, 42990, 43190, 43278, 43407, 43605, 43782, 43894, 44670, 44886, 45157, 45365, 46093, 46382, 48334, 48438, 48565, 48693, 48757, 48974], "trial_type": "free-recall", "conditions": [24, 800, "v", 12000], "internal_node_id": "0.0-157.0-0.0", "key_presses": [65, 78, 75, 76, 69, 13, 70, 73, 82, 69, 80, 76, 65, 67, 69, 13, 83, 84, 65, 77, 80, 13, 77, 73, 76, 68, 69, 87, 13, 69, 76, 66, 79, 87, 13, 83, 87, 73, 84, 67, 72, 13, 68, 79, 82, 77, 13, 66, 85, 71, 13, 72, 79, 79, 75, 13, 83, 78, 65, 67, 75, 13, 67, 65, 78, 68, 89, 13, 67, 72, 73, 76, 68, 13, 83, 84, 65, 84, 85, 69, 13, 84, 82, 85, 67, 75, 13, 80, 79, 76, 73, 67, 69, 13, 80, 65, 84, 82, 79, 76, 69, 71, 89, 80, 84, 8, 8, 8, 8, 8, 13, 69, 89, 71, 80, 84, 8, 8, 8, 8, 71, 89, 80, 84, 13, 71, 79, 76, 66, 79, 8, 8, 8, 66, 76, 73, 78, 13, 76, 65, 75, 69, 13, 83, 84, 79, 86, 69, 13, 76, 79, 80, 69, 13, 68, 82, 73, 86, 69, 82, 13, 87, 65, 71, 79, 78, 13, 81, 85, 69, 69, 78, 13], "trial": 5, "time_elapsed": 974023, "type": "FREE_RECALL", "trial_index": 211}, "uniqueid": "MTK2718:3XLBSAQ9Z5JF00RMYRX5H9XEZ7GZ7F", "dateTime": 1519252295545}, {"current_trial": 212, "trialdata": {"rt": 1716, "trial_type": "text", "internal_node_id": "0.0-158.0", "time_elapsed": 977742, "key_press": 32, "type": "INSTRUCTIONS", "trial_index": 212}, "uniqueid": "MTK2718:3XLBSAQ9Z5JF00RMYRX5H9XEZ7GZ7F", "dateTime": 1519252299263}, {"current_trial": 213, "trialdata": {"rt": [3408, 11057, 17376, 20416], "trial_type": "math-distractor", "key_times": [2256, 2472, 2479, 2936, 3088, 3184, 3408, 10522, 10921, 11057, 17231, 17376, 19775, 20192, 20416], "responses": ["13", "14", "9", "16"], "num2": [9, 6, 2, 8, 8], "num3": [3, 9, 3, 6, 7], "conditions": [12, 1600, "v", 24000], "internal_node_id": "0.0-159.0", "key_presses": [49, 52, 51, 8, 8, 51, 13, 49, 52, 13, 57, 13, 49, 54, 13], "trial": 6, "time_elapsed": 1003752, "type": "DISTRACTOR", "trial_index": 213, "num1": [1, 9, 4, 2, 8]}, "uniqueid": "MTK2718:3XLBSAQ9Z5JF00RMYRX5H9XEZ7GZ7F", "dateTime": 1519252325273}, {"current_trial": 214, "trialdata": {"rt": -1, "trial_type": "single-stim", "stimulus": "<p id=\"stim\">10</p>", "internal_node_id": "0.0-160.0-0.0", "time_elapsed": 1006758, "key_press": -1, "trial_index": 214}, "uniqueid": "MTK2718:3XLBSAQ9Z5JF00RMYRX5H9XEZ7GZ7F", "dateTime": 1519252328278}, {"current_trial": 215, "trialdata": {"rt": -1, "trial_type": "single-stim", "stimulus": "<p id=\"stim\">9</p>", "internal_node_id": "0.0-160.0-1.0", "time_elapsed": 1007763, "key_press": -1, "trial_index": 215}, "uniqueid": "MTK2718:3XLBSAQ9Z5JF00RMYRX5H9XEZ7GZ7F", "dateTime": 1519252329283}, {"current_trial": 216, "trialdata": {"rt": -1, "trial_type": "single-stim", "stimulus": "<p id=\"stim\">8</p>", "internal_node_id": "0.0-160.0-2.0", "time_elapsed": 1008767, "key_press": -1, "trial_index": 216}, "uniqueid": "MTK2718:3XLBSAQ9Z5JF00RMYRX5H9XEZ7GZ7F", "dateTime": 1519252330287}, {"current_trial": 217, "trialdata": {"rt": -1, "trial_type": "single-stim", "stimulus": "<p id=\"stim\">7</p>", "internal_node_id": "0.0-160.0-3.0", "time_elapsed": 1009771, "key_press": -1, "trial_index": 217}, "uniqueid": "MTK2718:3XLBSAQ9Z5JF00RMYRX5H9XEZ7GZ7F", "dateTime": 1519252331291}, {"current_trial": 218, "trialdata": {"rt": -1, "trial_type": "single-stim", "stimulus": "<p id=\"stim\">6</p>", "internal_node_id": "0.0-160.0-4.0", "time_elapsed": 1010775, "key_press": -1, "trial_index": 218}, "uniqueid": "MTK2718:3XLBSAQ9Z5JF00RMYRX5H9XEZ7GZ7F", "dateTime": 1519252332295}, {"current_trial": 219, "trialdata": {"rt": -1, "trial_type": "single-stim", "stimulus": "<p id=\"stim\">5</p>", "internal_node_id": "0.0-160.0-5.0", "time_elapsed": 1011779, "key_press": -1, "trial_index": 219}, "uniqueid": "MTK2718:3XLBSAQ9Z5JF00RMYRX5H9XEZ7GZ7F", "dateTime": 1519252333300}, {"current_trial": 220, "trialdata": {"rt": -1, "trial_type": "single-stim", "stimulus": "<p id=\"stim\">4</p>", "internal_node_id": "0.0-160.0-6.0", "time_elapsed": 1012783, "key_press": -1, "trial_index": 220}, "uniqueid": "MTK2718:3XLBSAQ9Z5JF00RMYRX5H9XEZ7GZ7F", "dateTime": 1519252334303}, {"current_trial": 221, "trialdata": {"rt": -1, "trial_type": "single-stim", "stimulus": "<p id=\"stim\">3</p>", "internal_node_id": "0.0-160.0-7.0", "time_elapsed": 1013787, "key_press": -1, "trial_index": 221}, "uniqueid": "MTK2718:3XLBSAQ9Z5JF00RMYRX5H9XEZ7GZ7F", "dateTime": 1519252335307}, {"current_trial": 222, "trialdata": {"rt": -1, "trial_type": "single-stim", "stimulus": "<p id=\"stim\">2</p>", "internal_node_id": "0.0-160.0-8.0", "time_elapsed": 1014791, "key_press": -1, "trial_index": 222}, "uniqueid": "MTK2718:3XLBSAQ9Z5JF00RMYRX5H9XEZ7GZ7F", "dateTime": 1519252336312}, {"current_trial": 223, "trialdata": {"rt": -1, "trial_type": "single-stim", "stimulus": "<p id=\"stim\">1</p>", "internal_node_id": "0.0-160.0-9.0", "time_elapsed": 1015796, "key_press": -1, "trial_index": 223}, "uniqueid": "MTK2718:3XLBSAQ9Z5JF00RMYRX5H9XEZ7GZ7F", "dateTime": 1519252337316}, {"current_trial": 224, "trialdata": {"rt": -1, "trial_type": "single-stim", "stimulus": "<p id=\"stim\">+</p>", "internal_node_id": "0.0-161.0-0.0", "time_elapsed": 1017299, "key_press": -1, "type": "FIXATION", "trial_index": 224}, "uniqueid": "MTK2718:3XLBSAQ9Z5JF00RMYRX5H9XEZ7GZ7F", "dateTime": 1519252338819}, {"current_trial": 225, "trialdata": {"rt": -1, "trial_type": "single-stim", "word": "student", "stimulus": "<p id=\"stim\">STUDENT</p>", "conditions": [12, 1600, "v", 24000], "internal_node_id": "0.0-162.0", "trial": 6, "time_elapsed": 1018900, "serialpos": 0, "key_press": -1, "wordID": 1394, "type": "PRES_VIS", "trial_index": 225}, "uniqueid": "MTK2718:3XLBSAQ9Z5JF00RMYRX5H9XEZ7GZ7F", "dateTime": 1519252340420}, {"current_trial": 226, "trialdata": {"rt": -1, "trial_type": "single-stim", "word": "pecan", "stimulus": "<p id=\"stim\">PECAN</p>", "conditions": [12, 1600, "v", 24000], "internal_node_id": "0.0-163.0", "trial": 6, "time_elapsed": 1021373, "serialpos": 1, "key_press": -1, "wordID": 1035, "type": "PRES_VIS", "trial_index": 226}, "uniqueid": "MTK2718:3XLBSAQ9Z5JF00RMYRX5H9XEZ7GZ7F", "dateTime": 1519252342894}, {"current_trial": 227, "trialdata": {"rt": -1, "trial_type": "single-stim", "word": "peanut", "stimulus": "<p id=\"stim\">PEANUT</p>", "conditions": [12, 1600, "v", 24000], "internal_node_id": "0.0-164.0", "trial": 6, "time_elapsed": 1023915, "serialpos": 2, "key_press": -1, "wordID": 1031, "type": "PRES_VIS", "trial_index": 227}, "uniqueid": "MTK2718:3XLBSAQ9Z5JF00RMYRX5H9XEZ7GZ7F", "dateTime": 1519252345435}, {"current_trial": 228, "trialdata": {"rt": -1, "trial_type": "single-stim", "word": "arm", "stimulus": "<p id=\"stim\">ARM</p>", "conditions": [12, 1600, "v", 24000], "internal_node_id": "0.0-165.0", "trial": 6, "time_elapsed": 1026701, "serialpos": 3, "key_press": -1, "wordID": 37, "type": "PRES_VIS", "trial_index": 228}, "uniqueid": "MTK2718:3XLBSAQ9Z5JF00RMYRX5H9XEZ7GZ7F", "dateTime": 1519252348222}, {"current_trial": 229, "trialdata": {"rt": -1, "trial_type": "single-stim", "word": "burglar", "stimulus": "<p id=\"stim\">BURGLAR</p>", "conditions": [12, 1600, "v", 24000], "internal_node_id": "0.0-166.0", "trial": 6, "time_elapsed": 1029185, "serialpos": 4, "key_press": -1, "wordID": 199, "type": "PRES_VIS", "trial_index": 229}, "uniqueid": "MTK2718:3XLBSAQ9Z5JF00RMYRX5H9XEZ7GZ7F", "dateTime": 1519252350705}, {"current_trial": 230, "trialdata": {"rt": -1, "trial_type": "single-stim", "word": "champagne", "stimulus": "<p id=\"stim\">CHAMPAGNE</p>", "conditions": [12, 1600, "v", 24000], "internal_node_id": "0.0-167.0", "trial": 6, "time_elapsed": 1031931, "serialpos": 5, "key_press": -1, "wordID": 277, "type": "PRES_VIS", "trial_index": 230}, "uniqueid": "MTK2718:3XLBSAQ9Z5JF00RMYRX5H9XEZ7GZ7F", "dateTime": 1519252353451}, {"current_trial": 231, "trialdata": {"rt": -1, "trial_type": "single-stim", "word": "college", "stimulus": "<p id=\"stim\">COLLEGE</p>", "conditions": [12, 1600, "v", 24000], "internal_node_id": "0.0-168.0", "trial": 6, "time_elapsed": 1034670, "serialpos": 6, "key_press": -1, "wordID": 345, "type": "PRES_VIS", "trial_index": 231}, "uniqueid": "MTK2718:3XLBSAQ9Z5JF00RMYRX5H9XEZ7GZ7F", "dateTime": 1519252356190}, {"current_trial": 232, "trialdata": {"rt": -1, "trial_type": "single-stim", "word": "jello", "stimulus": "<p id=\"stim\">JELLO</p>", "conditions": [12, 1600, "v", 24000], "internal_node_id": "0.0-169.0", "trial": 6, "time_elapsed": 1037282, "serialpos": 7, "key_press": -1, "wordID": 753, "type": "PRES_VIS", "trial_index": 232}, "uniqueid": "MTK2718:3XLBSAQ9Z5JF00RMYRX5H9XEZ7GZ7F", "dateTime": 1519252358802}, {"current_trial": 233, "trialdata": {"rt": -1, "trial_type": "single-stim", "word": "skirt", "stimulus": "<p id=\"stim\">SKIRT</p>", "conditions": [12, 1600, "v", 24000], "internal_node_id": "0.0-170.0", "trial": 6, "time_elapsed": 1039870, "serialpos": 8, "key_press": -1, "wordID": 1318, "type": "PRES_VIS", "trial_index": 233}, "uniqueid": "MTK2718:3XLBSAQ9Z5JF00RMYRX5H9XEZ7GZ7F", "dateTime": 1519252361390}, {"current_trial": 234, "trialdata": {"rt": -1, "trial_type": "single-stim", "word": "denim", "stimulus": "<p id=\"stim\">DENIM</p>", "conditions": [12, 1600, "v", 24000], "internal_node_id": "0.0-171.0", "trial": 6, "time_elapsed": 1042453, "serialpos": 9, "key_press": -1, "wordID": 445, "type": "PRES_VIS", "trial_index": 234}, "uniqueid": "MTK2718:3XLBSAQ9Z5JF00RMYRX5H9XEZ7GZ7F", "dateTime": 1519252363973}, {"current_trial": 235, "trialdata": {"rt": -1, "trial_type": "single-stim", "word": "slug", "stimulus": "<p id=\"stim\">SLUG</p>", "conditions": [12, 1600, "v", 24000], "internal_node_id": "0.0-172.0", "trial": 6, "time_elapsed": 1044926, "serialpos": 10, "key_press": -1, "wordID": 1328, "type": "PRES_VIS", "trial_index": 235}, "uniqueid": "MTK2718:3XLBSAQ9Z5JF00RMYRX5H9XEZ7GZ7F", "dateTime": 1519252366446}, {"current_trial": 236, "trialdata": {"rt": -1, "trial_type": "single-stim", "word": "daisy", "stimulus": "<p id=\"stim\">DAISY</p>", "conditions": [12, 1600, "v", 24000], "internal_node_id": "0.0-173.0", "trial": 6, "time_elapsed": 1047450, "serialpos": 11, "key_press": -1, "wordID": 434, "type": "PRES_VIS", "trial_index": 236}, "uniqueid": "MTK2718:3XLBSAQ9Z5JF00RMYRX5H9XEZ7GZ7F", "dateTime": 1519252368970}, {"current_trial": 237, "trialdata": {"rt": -1, "trial_type": "single-stim", "stimulus": "", "internal_node_id": "0.0-174.0-0.0", "time_elapsed": 1049551, "key_press": -1, "type": "PRE_RECALL_DELAY", "trial_index": 237}, "uniqueid": "MTK2718:3XLBSAQ9Z5JF00RMYRX5H9XEZ7GZ7F", "dateTime": 1519252371071}, {"current_trial": 238, "trialdata": {"rt": -1000, "trial_type": "single-audio", "stimulus": "/static/audio/400Hz.wav", "internal_node_id": "0.0-175.0", "time_elapsed": 1050053, "key_press": -1, "type": "PRE_RECALL_ALERT", "trial_index": 238}, "uniqueid": "MTK2718:3XLBSAQ9Z5JF00RMYRX5H9XEZ7GZ7F", "dateTime": 1519252371573}, {"current_trial": 239, "trialdata": {"rt": [2297, 3353, 4553, 6008, 7137, 8561, 9329, 11042, 12353, 14312, 20433, 23169], "recwords": ["daisy", "slug", "denim", "jello", "skirt", "college", "arm", "peanut", "pecan", "student", "champagne", "burgular"], "key_times": [1418, 1593, 1762, 1817, 1937, 2297, 2625, 2897, 3105, 3201, 3353, 3601, 3817, 3945, 4121, 4305, 4553, 5001, 5177, 5329, 5449, 5625, 6008, 6457, 6569, 6729, 6825, 7001, 7137, 7505, 7625, 7825, 7921, 8049, 8249, 8433, 8561, 8753, 8961, 9073, 9329, 10217, 10313, 10482, 10569, 10753, 10841, 11042, 11433, 11520, 11761, 11945, 12041, 12353, 12514, 12736, 12825, 12961, 13392, 13545, 13736, 13792, 13953, 14041, 14153, 14312, 16674, 16793, 16897, 17009, 17793, 17921, 18145, 18250, 18433, 19433, 19601, 19753, 19841, 20025, 20161, 20433, 21521, 21809, 21897, 22105, 22361, 22690, 22753, 23001, 23169], "trial_type": "free-recall", "conditions": [12, 1600, "v", 24000], "internal_node_id": "0.0-176.0-0.0", "key_presses": [68, 65, 73, 83, 89, 13, 83, 76, 85, 71, 13, 68, 69, 78, 73, 77, 13, 74, 69, 76, 76, 79, 13, 83, 75, 73, 82, 84, 13, 67, 79, 76, 76, 69, 71, 69, 13, 65, 82, 77, 13, 80, 69, 65, 78, 85, 84, 13, 80, 69, 67, 65, 78, 13, 83, 84, 73, 68, 8, 8, 85, 68, 69, 78, 84, 13, 67, 72, 65, 77, 80, 65, 78, 71, 69, 8, 8, 8, 71, 78, 69, 13, 66, 85, 82, 71, 85, 76, 65, 82, 13], "trial": 6, "time_elapsed": 1110061, "type": "FREE_RECALL", "trial_index": 239}, "uniqueid": "MTK2718:3XLBSAQ9Z5JF00RMYRX5H9XEZ7GZ7F", "dateTime": 1519252431583}, {"current_trial": 240, "trialdata": {"rt": 1889, "trial_type": "text", "internal_node_id": "0.0-177.0", "time_elapsed": 1113958, "key_press": 32, "type": "INSTRUCTIONS", "trial_index": 240}, "uniqueid": "MTK2718:3XLBSAQ9Z5JF00RMYRX5H9XEZ7GZ7F", "dateTime": 1519252435478}, {"current_trial": 241, "trialdata": {"rt": [6969, 16848], "trial_type": "math-distractor", "key_times": [3761, 4617, 6585, 6857, 6969, 16432, 16607, 16848], "responses": ["13", "20"], "num2": [8, 7, 7], "num3": [4, 9, 4], "conditions": [24, 1600, "v", 24000], "internal_node_id": "0.0-178.0", "key_presses": [49, 8, 49, 51, 13, 50, 48, 13], "trial": 7, "time_elapsed": 1139968, "type": "DISTRACTOR", "trial_index": 241, "num1": [1, 5, 4]}, "uniqueid": "MTK2718:3XLBSAQ9Z5JF00RMYRX5H9XEZ7GZ7F", "dateTime": 1519252461488}, {"current_trial": 242, "trialdata": {"rt": -1, "trial_type": "single-stim", "stimulus": "<p id=\"stim\">10</p>", "internal_node_id": "0.0-179.0-0.0", "time_elapsed": 1142977, "key_press": -1, "trial_index": 242}, "uniqueid": "MTK2718:3XLBSAQ9Z5JF00RMYRX5H9XEZ7GZ7F", "dateTime": 1519252464497}, {"current_trial": 243, "trialdata": {"rt": -1, "trial_type": "single-stim", "stimulus": "<p id=\"stim\">9</p>", "internal_node_id": "0.0-179.0-1.0", "time_elapsed": 1143979, "key_press": -1, "trial_index": 243}, "uniqueid": "MTK2718:3XLBSAQ9Z5JF00RMYRX5H9XEZ7GZ7F", "dateTime": 1519252465499}, {"current_trial": 244, "trialdata": {"rt": -1, "trial_type": "single-stim", "stimulus": "<p id=\"stim\">8</p>", "internal_node_id": "0.0-179.0-2.0", "time_elapsed": 1144983, "key_press": -1, "trial_index": 244}, "uniqueid": "MTK2718:3XLBSAQ9Z5JF00RMYRX5H9XEZ7GZ7F", "dateTime": 1519252466503}, {"current_trial": 245, "trialdata": {"rt": -1, "trial_type": "single-stim", "stimulus": "<p id=\"stim\">7</p>", "internal_node_id": "0.0-179.0-3.0", "time_elapsed": 1145988, "key_press": -1, "trial_index": 245}, "uniqueid": "MTK2718:3XLBSAQ9Z5JF00RMYRX5H9XEZ7GZ7F", "dateTime": 1519252467508}, {"current_trial": 246, "trialdata": {"rt": -1, "trial_type": "single-stim", "stimulus": "<p id=\"stim\">6</p>", "internal_node_id": "0.0-179.0-4.0", "time_elapsed": 1146992, "key_press": -1, "trial_index": 246}, "uniqueid": "MTK2718:3XLBSAQ9Z5JF00RMYRX5H9XEZ7GZ7F", "dateTime": 1519252468512}, {"current_trial": 247, "trialdata": {"rt": -1, "trial_type": "single-stim", "stimulus": "<p id=\"stim\">5</p>", "internal_node_id": "0.0-179.0-5.0", "time_elapsed": 1147995, "key_press": -1, "trial_index": 247}, "uniqueid": "MTK2718:3XLBSAQ9Z5JF00RMYRX5H9XEZ7GZ7F", "dateTime": 1519252469515}, {"current_trial": 248, "trialdata": {"rt": -1, "trial_type": "single-stim", "stimulus": "<p id=\"stim\">4</p>", "internal_node_id": "0.0-179.0-6.0", "time_elapsed": 1149000, "key_press": -1, "trial_index": 248}, "uniqueid": "MTK2718:3XLBSAQ9Z5JF00RMYRX5H9XEZ7GZ7F", "dateTime": 1519252470521}, {"current_trial": 249, "trialdata": {"rt": -1, "trial_type": "single-stim", "stimulus": "<p id=\"stim\">3</p>", "internal_node_id": "0.0-179.0-7.0", "time_elapsed": 1150003, "key_press": -1, "trial_index": 249}, "uniqueid": "MTK2718:3XLBSAQ9Z5JF00RMYRX5H9XEZ7GZ7F", "dateTime": 1519252471524}, {"current_trial": 250, "trialdata": {"rt": -1, "trial_type": "single-stim", "stimulus": "<p id=\"stim\">2</p>", "internal_node_id": "0.0-179.0-8.0", "time_elapsed": 1151008, "key_press": -1, "trial_index": 250}, "uniqueid": "MTK2718:3XLBSAQ9Z5JF00RMYRX5H9XEZ7GZ7F", "dateTime": 1519252472528}, {"current_trial": 251, "trialdata": {"rt": -1, "trial_type": "single-stim", "stimulus": "<p id=\"stim\">1</p>", "internal_node_id": "0.0-179.0-9.0", "time_elapsed": 1152011, "key_press": -1, "trial_index": 251}, "uniqueid": "MTK2718:3XLBSAQ9Z5JF00RMYRX5H9XEZ7GZ7F", "dateTime": 1519252473532}, {"current_trial": 252, "trialdata": {"rt": -1, "trial_type": "single-stim", "stimulus": "<p id=\"stim\">+</p>", "internal_node_id": "0.0-180.0-0.0", "time_elapsed": 1153515, "key_p