{"assignmentId": "3I0BTBYZAYS1DZHXH6ADONEPKYFY0T", "workerId": "MTK2688", "questiondata": {"origin": "United States", "strat-rehearsal": "0", "marital": "Married/Domestic Partnership", "education": "Some college", "ethnicity": "Not Hispanic", "color_depth": 24, "distracted": "No", "wrote-notes": "Yes", "strat-other": "I wrote first and last letter of some of the words down", "screen_width": 1366, "avail_screen_width": 1366, "avail_screen_height": 728, "strat-image": "6", "language": "english", "gender": "Female", "age": "44", "gender_other": "", "race": [], "strat-categorize": "53", "pixel_depth": 24, "strat-spatial": "23", "strat-story": "26", "race_other": "", "screen_height": 768}, "bonus": 0, "hitId": "3SR6AEG6W50A1FPZPCCW5VHMM7FYHI", "counterbalance": 760, "useragent": "Mozilla/5.0 (Windows NT 10.0; Win64; x64) AppleWebKit/537.36 (KHTML, like Gecko) Chrome/64.0.3282.167 Safari/537.36", "eventdata": [{"eventtype": "initialized", "interval": 0, "value": null, "timestamp": 1519236638524}, {"eventtype": "window_resize", "interval": 0, "value": [1366, 721], "timestamp": 1519236638524}, {"eventtype": "window_resize", "interval": 61813, "value": [1366, 677], "timestamp": 1519236700337}, {"eventtype": "focus", "interval": 6840, "value": "off", "timestamp": 1519236707177}, {"eventtype": "focus", "interval": 8891, "value": "on", "timestamp": 1519236716068}, {"eventtype": "focus", "interval": 88719, "value": "off", "timestamp": 1519236804787}, {"eventtype": "focus", "interval": 8512, "value": "on", "timestamp": 1519236813299}, {"eventtype": "focus", "interval": 2218607, "value": "off", "timestamp": 1519239031906}, {"eventtype": "focus", "interval": 9956, "value": "on", "timestamp": 1519239041862}, {"eventtype": "focus", "interval": 125855, "value": "off", "timestamp": 1519239167717}, {"eventtype": "focus", "interval": 6085, "value": "on", "timestamp": 1519239173802}], "data": [{"current_trial": 0, "trialdata": {"rt": 2505, "trial_type": "text", "internal_node_id": "0.0-0.0", "time_elapsed": 2508, "key_press": 68, "type": "INSTRUCTIONS", "trial_index": 0}, "uniqueid": "MTK2688:3I0BTBYZAYS1DZHXH6ADONEPKYFY0T", "dateTime": 1519236650468}, {"current_trial": 1, "trialdata": {"rt": 17951, "trial_type": "text", "internal_node_id": "0.0-1.0", "time_elapsed": 20463, "key_press": 68, "type": "INSTRUCTIONS", "trial_index": 1}, "uniqueid": "MTK2688:3I0BTBYZAYS1DZHXH6ADONEPKYFY0T", "dateTime": 1519236668421}, {"current_trial": 2, "trialdata": {"rt": [52044], "trial_type": "audio-test", "responses": ["ocean"], "internal_node_id": "0.0-2.0", "time_elapsed": 72524, "type": "AUDIO_TEST", "trial_index": 2}, "uniqueid": "MTK2688:3I0BTBYZAYS1DZHXH6ADONEPKYFY0T", "dateTime": 1519236720482}, {"current_trial": 3, "trialdata": {"rt": [21921], "trial_type": "audio-test", "responses": ["crystal"], "internal_node_id": "0.0-3.0", "time_elapsed": 94450, "type": "AUDIO_TEST", "trial_index": 3}, "uniqueid": "MTK2688:3I0BTBYZAYS1DZHXH6ADONEPKYFY0T", "dateTime": 1519236742408}, {"current_trial": 4, "trialdata": {"rt": [8921], "trial_type": "audio-test", "responses": ["spice"], "internal_node_id": "0.0-4.0", "time_elapsed": 103375, "type": "AUDIO_TEST", "trial_index": 4}, "uniqueid": "MTK2688:3I0BTBYZAYS1DZHXH6ADONEPKYFY0T", "dateTime": 1519236751333}, {"current_trial": 5, "trialdata": {"rt": 25529, "trial_type": "survey-text", "responses": "{\"Q0\":\"11:00\",\"Q1\":\"7:30\",\"Q2\":\"3\"}", "internal_node_id": "0.0-5.0", "time_elapsed": 129660, "type": "SLEEP_SURVEY", "trial_index": 5}, "uniqueid": "MTK2688:3I0BTBYZAYS1DZHXH6ADONEPKYFY0T", "dateTime": 1519236777618}, {"current_trial": 6, "trialdata": {"rt": 41884, "trial_type": "text", "internal_node_id": "0.0-6.0", "time_elapsed": 172545, "key_press": 83, "type": "INSTRUCTIONS", "trial_index": 6}, "uniqueid": "MTK2688:3I0BTBYZAYS1DZHXH6ADONEPKYFY0T", "dateTime": 1519236820504}, {"current_trial": 7, "trialdata": {"rt": 15509, "trial_type": "text", "internal_node_id": "0.0-7.0", "time_elapsed": 188557, "key_press": 83, "type": "INSTRUCTIONS", "trial_index": 7}, "uniqueid": "MTK2688:3I0BTBYZAYS1DZHXH6ADONEPKYFY0T", "dateTime": 1519236836515}, {"current_trial": 8, "trialdata": {"rt": 11732, "trial_type": "text", "internal_node_id": "0.0-8.0", "time_elapsed": 200793, "key_press": 83, "type": "INSTRUCTIONS", "trial_index": 8}, "uniqueid": "MTK2688:3I0BTBYZAYS1DZHXH6ADONEPKYFY0T", "dateTime": 1519236848751}, {"current_trial": 9, "trialdata": {"rt": [5068, 9291, 13161, 16975], "trial_type": "math-distractor", "key_times": [3427, 3700, 5068, 8197, 8436, 9291, 12257, 13161, 16348, 16587, 16975], "responses": ["18", "23", "4", "15"], "num2": [5, 8, 1, 7, 7], "num3": [8, 7, 2, 4, 4], "conditions": [18, 1200, "a", 18000], "internal_node_id": "0.0-9.0", "key_presses": [97, 104, 13, 98, 99, 13, 100, 13, 97, 101, 13], "trial": 0, "time_elapsed": 219806, "type": "DISTRACTOR", "trial_index": 9, "num1": [5, 8, 1, 4, 5]}, "uniqueid": "MTK2688:3I0BTBYZAYS1DZHXH6ADONEPKYFY0T", "dateTime": 1519236867764}, {"current_trial": 10, "trialdata": {"rt": -1, "trial_type": "single-stim", "stimulus": "<p id=\"stim\">10</p>", "internal_node_id": "0.0-10.0-0.0", "time_elapsed": 222810, "key_press": -1, "trial_index": 10}, "uniqueid": "MTK2688:3I0BTBYZAYS1DZHXH6ADONEPKYFY0T", "dateTime": 1519236870769}, {"current_trial": 11, "trialdata": {"rt": -1, "trial_type": "single-stim", "stimulus": "<p id=\"stim\">9</p>", "internal_node_id": "0.0-10.0-1.0", "time_elapsed": 223813, "key_press": -1, "trial_index": 11}, "uniqueid": "MTK2688:3I0BTBYZAYS1DZHXH6ADONEPKYFY0T", "dateTime": 1519236871772}, {"current_trial": 12, "trialdata": {"rt": -1, "trial_type": "single-stim", "stimulus": "<p id=\"stim\">8</p>", "internal_node_id": "0.0-10.0-2.0", "time_elapsed": 224937, "key_press": -1, "trial_index": 12}, "uniqueid": "MTK2688:3I0BTBYZAYS1DZHXH6ADONEPKYFY0T", "dateTime": 1519236872895}, {"current_trial": 13, "trialdata": {"rt": -1, "trial_type": "single-stim", "stimulus": "<p id=\"stim\">7</p>", "internal_node_id": "0.0-10.0-3.0", "time_elapsed": 225940, "key_press": -1, "trial_index": 13}, "uniqueid": "MTK2688:3I0BTBYZAYS1DZHXH6ADONEPKYFY0T", "dateTime": 1519236873898}, {"current_trial": 14, "trialdata": {"rt": -1, "trial_type": "single-stim", "stimulus": "<p id=\"stim\">6</p>", "internal_node_id": "0.0-10.0-4.0", "time_elapsed": 226942, "key_press": -1, "trial_index": 14}, "uniqueid": "MTK2688:3I0BTBYZAYS1DZHXH6ADONEPKYFY0T", "dateTime": 1519236874900}, {"current_trial": 15, "trialdata": {"rt": -1, "trial_type": "single-stim", "stimulus": "<p id=\"stim\">5</p>", "internal_node_id": "0.0-10.0-5.0", "time_elapsed": 227944, "key_press": -1, "trial_index": 15}, "uniqueid": "MTK2688:3I0BTBYZAYS1DZHXH6ADONEPKYFY0T", "dateTime": 1519236875902}, {"current_trial": 16, "trialdata": {"rt": -1, "trial_type": "single-stim", "stimulus": "<p id=\"stim\">4</p>", "internal_node_id": "0.0-10.0-6.0", "time_elapsed": 228946, "key_press": -1, "trial_index": 16}, "uniqueid": "MTK2688:3I0BTBYZAYS1DZHXH6ADONEPKYFY0T", "dateTime": 1519236876904}, {"current_trial": 17, "trialdata": {"rt": -1, "trial_type": "single-stim", "stimulus": "<p id=\"stim\">3</p>", "internal_node_id": "0.0-10.0-7.0", "time_elapsed": 229948, "key_press": -1, "trial_index": 17}, "uniqueid": "MTK2688:3I0BTBYZAYS1DZHXH6ADONEPKYFY0T", "dateTime": 1519236877906}, {"current_trial": 18, "trialdata": {"rt": -1, "trial_type": "single-stim", "stimulus": "<p id=\"stim\">2</p>", "internal_node_id": "0.0-10.0-8.0", "time_elapsed": 230950, "key_press": -1, "trial_index": 18}, "uniqueid": "MTK2688:3I0BTBYZAYS1DZHXH6ADONEPKYFY0T", "dateTime": 1519236878908}, {"current_trial": 19, "trialdata": {"rt": -1, "trial_type": "single-stim", "stimulus": "<p id=\"stim\">1</p>", "internal_node_id": "0.0-10.0-9.0", "time_elapsed": 231953, "key_press": -1, "trial_index": 19}, "uniqueid": "MTK2688:3I0BTBYZAYS1DZHXH6ADONEPKYFY0T", "dateTime": 1519236879911}, {"current_trial": 20, "trialdata": {"rt": -1, "trial_type": "single-stim", "stimulus": "<p id=\"stim\">+</p>", "internal_node_id": "0.0-11.0-0.0", "time_elapsed": 233456, "key_press": -1, "type": "FIXATION", "trial_index": 20}, "uniqueid": "MTK2688:3I0BTBYZAYS1DZHXH6ADONEPKYFY0T", "dateTime": 1519236881414}, {"current_trial": 21, "trialdata": {"rt": -1000, "trial_type": "single-audio", "word": "sunrise", "stimulus": "/static/audio/wordpool/SUNRISE.wav", "conditions": [18, 1200, "a", 18000], "internal_node_id": "0.0-12.0", "trial": 0, "time_elapsed": 235568, "serialpos": 0, "key_press": -1, "wordID": 1406, "type": "PRES_AUD", "trial_index": 21}, "uniqueid": "MTK2688:3I0BTBYZAYS1DZHXH6ADONEPKYFY0T", "dateTime": 1519236883527}, {"current_trial": 22, "trialdata": {"rt": -1000, "trial_type": "single-audio", "word": "drink", "stimulus": "/static/audio/wordpool/DRINK.wav", "conditions": [18, 1200, "a", 18000], "internal_node_id": "0.0-13.0", "trial": 0, "time_elapsed": 237851, "serialpos": 1, "key_press": -1, "wordID": 497, "type": "PRES_AUD", "trial_index": 22}, "uniqueid": "MTK2688:3I0BTBYZAYS1DZHXH6ADONEPKYFY0T", "dateTime": 1519236885809}, {"current_trial": 23, "trialdata": {"rt": -1000, "trial_type": "single-audio", "word": "asia", "stimulus": "/static/audio/wordpool/ASIA.wav", "conditions": [18, 1200, "a", 18000], "internal_node_id": "0.0-14.0", "trial": 0, "time_elapsed": 239962, "serialpos": 2, "key_press": -1, "wordID": 45, "type": "PRES_AUD", "trial_index": 23}, "uniqueid": "MTK2688:3I0BTBYZAYS1DZHXH6ADONEPKYFY0T", "dateTime": 1519236887920}, {"current_trial": 24, "trialdata": {"rt": -1000, "trial_type": "single-audio", "word": "shovel", "stimulus": "/static/audio/wordpool/SHOVEL.wav", "conditions": [18, 1200, "a", 18000], "internal_node_id": "0.0-15.0", "trial": 0, "time_elapsed": 242233, "serialpos": 3, "key_press": -1, "wordID": 1294, "type": "PRES_AUD", "trial_index": 24}, "uniqueid": "MTK2688:3I0BTBYZAYS1DZHXH6ADONEPKYFY0T", "dateTime": 1519236890191}, {"current_trial": 25, "trialdata": {"rt": -1000, "trial_type": "single-audio", "word": "creature", "stimulus": "/static/audio/wordpool/CREATURE.wav", "conditions": [18, 1200, "a", 18000], "internal_node_id": "0.0-16.0", "trial": 0, "time_elapsed": 244554, "serialpos": 4, "key_press": -1, "wordID": 402, "type": "PRES_AUD", "trial_index": 25}, "uniqueid": "MTK2688:3I0BTBYZAYS1DZHXH6ADONEPKYFY0T", "dateTime": 1519236892512}, {"current_trial": 26, "trialdata": {"rt": -1000, "trial_type": "single-audio", "word": "trombone", "stimulus": "/static/audio/wordpool/TROMBONE.wav", "conditions": [18, 1200, "a", 18000], "internal_node_id": "0.0-17.0", "trial": 0, "time_elapsed": 246747, "serialpos": 5, "key_press": -1, "wordID": 1507, "type": "PRES_AUD", "trial_index": 26}, "uniqueid": "MTK2688:3I0BTBYZAYS1DZHXH6ADONEPKYFY0T", "dateTime": 1519236894706}, {"current_trial": 27, "trialdata": {"rt": -1000, "trial_type": "single-audio", "word": "carriage", "stimulus": "/static/audio/wordpool/CARRIAGE.wav", "conditions": [18, 1200, "a", 18000], "internal_node_id": "0.0-18.0", "trial": 0, "time_elapsed": 248863, "serialpos": 6, "key_press": -1, "wordID": 247, "type": "PRES_AUD", "trial_index": 27}, "uniqueid": "MTK2688:3I0BTBYZAYS1DZHXH6ADONEPKYFY0T", "dateTime": 1519236896821}, {"current_trial": 28, "trialdata": {"rt": -1000, "trial_type": "single-audio", "word": "gymnast", "stimulus": "/static/audio/wordpool/GYMNAST.wav", "conditions": [18, 1200, "a", 18000], "internal_node_id": "0.0-19.0", "trial": 0, "time_elapsed": 251260, "serialpos": 7, "key_press": -1, "wordID": 674, "type": "PRES_AUD", "trial_index": 28}, "uniqueid": "MTK2688:3I0BTBYZAYS1DZHXH6ADONEPKYFY0T", "dateTime": 1519236899218}, {"current_trial": 29, "trialdata": {"rt": -1000, "trial_type": "single-audio", "word": "rooster", "stimulus": "/static/audio/wordpool/ROOSTER.wav", "conditions": [18, 1200, "a", 18000], "internal_node_id": "0.0-20.0", "trial": 0, "time_elapsed": 253319, "serialpos": 8, "key_press": -1, "wordID": 1208, "type": "PRES_AUD", "trial_index": 29}, "uniqueid": "MTK2688:3I0BTBYZAYS1DZHXH6ADONEPKYFY0T", "dateTime": 1519236901278}, {"current_trial": 30, "trialdata": {"rt": -1000, "trial_type": "single-audio", "word": "beaver", "stimulus": "/static/audio/wordpool/BEAVER.wav", "conditions": [18, 1200, "a", 18000], "internal_node_id": "0.0-21.0", "trial": 0, "time_elapsed": 255562, "serialpos": 9, "key_press": -1, "wordID": 108, "type": "PRES_AUD", "trial_index": 30}, "uniqueid": "MTK2688:3I0BTBYZAYS1DZHXH6ADONEPKYFY0T", "dateTime": 1519236903521}, {"current_trial": 31, "trialdata": {"rt": -1000, "trial_type": "single-audio", "word": "bacon", "stimulus": "/static/audio/wordpool/BACON.wav", "conditions": [18, 1200, "a", 18000], "internal_node_id": "0.0-22.0", "trial": 0, "time_elapsed": 257732, "serialpos": 10, "key_press": -1, "wordID": 66, "type": "PRES_AUD", "trial_index": 31}, "uniqueid": "MTK2688:3I0BTBYZAYS1DZHXH6ADONEPKYFY0T", "dateTime": 1519236905691}, {"current_trial": 32, "trialdata": {"rt": -1000, "trial_type": "single-audio", "word": "child", "stimulus": "/static/audio/wordpool/CHILD.wav", "conditions": [18, 1200, "a", 18000], "internal_node_id": "0.0-23.0", "trial": 0, "time_elapsed": 260015, "serialpos": 11, "key_press": -1, "wordID": 298, "type": "PRES_AUD", "trial_index": 32}, "uniqueid": "MTK2688:3I0BTBYZAYS1DZHXH6ADONEPKYFY0T", "dateTime": 1519236907973}, {"current_trial": 33, "trialdata": {"rt": -1000, "trial_type": "single-audio", "word": "hood", "stimulus": "/static/audio/wordpool/HOOD.wav", "conditions": [18, 1200, "a", 18000], "internal_node_id": "0.0-24.0", "trial": 0, "time_elapsed": 262378, "serialpos": 12, "key_press": -1, "wordID": 713, "type": "PRES_AUD", "trial_index": 33}, "uniqueid": "MTK2688:3I0BTBYZAYS1DZHXH6ADONEPKYFY0T", "dateTime": 1519236910336}, {"current_trial": 34, "trialdata": {"rt": -1000, "trial_type": "single-audio", "word": "lover", "stimulus": "/static/audio/wordpool/LOVER.wav", "conditions": [18, 1200, "a", 18000], "internal_node_id": "0.0-25.0", "trial": 0, "time_elapsed": 264525, "serialpos": 13, "key_press": -1, "wordID": 845, "type": "PRES_AUD", "trial_index": 34}, "uniqueid": "MTK2688:3I0BTBYZAYS1DZHXH6ADONEPKYFY0T", "dateTime": 1519236912483}, {"current_trial": 35, "trialdata": {"rt": -1000, "trial_type": "single-audio", "word": "radish", "stimulus": "/static/audio/wordpool/RADISH.wav", "conditions": [18, 1200, "a", 18000], "internal_node_id": "0.0-26.0", "trial": 0, "time_elapsed": 266840, "serialpos": 14, "key_press": -1, "wordID": 1157, "type": "PRES_AUD", "trial_index": 35}, "uniqueid": "MTK2688:3I0BTBYZAYS1DZHXH6ADONEPKYFY0T", "dateTime": 1519236914799}, {"current_trial": 36, "trialdata": {"rt": -1000, "trial_type": "single-audio", "word": "summit", "stimulus": "/static/audio/wordpool/SUMMIT.wav", "conditions": [18, 1200, "a", 18000], "internal_node_id": "0.0-27.0", "trial": 0, "time_elapsed": 269046, "serialpos": 15, "key_press": -1, "wordID": 1404, "type": "PRES_AUD", "trial_index": 36}, "uniqueid": "MTK2688:3I0BTBYZAYS1DZHXH6ADONEPKYFY0T", "dateTime": 1519236917005}, {"current_trial": 37, "trialdata": {"rt": -1000, "trial_type": "single-audio", "word": "college", "stimulus": "/static/audio/wordpool/COLLEGE.wav", "conditions": [18, 1200, "a", 18000], "internal_node_id": "0.0-28.0", "trial": 0, "time_elapsed": 271328, "serialpos": 16, "key_press": -1, "wordID": 345, "type": "PRES_AUD", "trial_index": 37}, "uniqueid": "MTK2688:3I0BTBYZAYS1DZHXH6ADONEPKYFY0T", "dateTime": 1519236919287}, {"current_trial": 38, "trialdata": {"rt": -1000, "trial_type": "single-audio", "word": "braces", "stimulus": "/static/audio/wordpool/BRACES.wav", "conditions": [18, 1200, "a", 18000], "internal_node_id": "0.0-29.0", "trial": 0, "time_elapsed": 273442, "serialpos": 17, "key_press": -1, "wordID": 163, "type": "PRES_AUD", "trial_index": 38}, "uniqueid": "MTK2688:3I0BTBYZAYS1DZHXH6ADONEPKYFY0T", "dateTime": 1519236921401}, {"current_trial": 39, "trialdata": {"rt": -1, "trial_type": "single-stim", "stimulus": "", "internal_node_id": "0.0-30.0-0.0", "time_elapsed": 274774, "key_press": -1, "type": "PRE_RECALL_DELAY", "trial_index": 39}, "uniqueid": "MTK2688:3I0BTBYZAYS1DZHXH6ADONEPKYFY0T", "dateTime": 1519236922732}, {"current_trial": 40, "trialdata": {"rt": -1000, "trial_type": "single-audio", "stimulus": "/static/audio/400Hz.wav", "internal_node_id": "0.0-31.0", "time_elapsed": 275282, "key_press": -1, "type": "PRE_RECALL_ALERT", "trial_index": 40}, "uniqueid": "MTK2688:3I0BTBYZAYS1DZHXH6ADONEPKYFY0T", "dateTime": 1519236923240}, {"current_trial": 41, "trialdata": {"rt": [9619, 13555, 17164, 21159, 24812, 27815, 30899, 34531, 37314, 39546, 41685, 46499], "recwords": ["sunrise", "asia", "carriage", "shovel", "preacher", "rooster", "bacon", "beaver", "lover", "college", "braces", "radish"], "key_times": [4632, 4821, 5148, 5552, 5738, 6865, 7194, 7687, 7849, 7980, 8195, 9619, 10077, 10255, 10457, 10645, 13555, 14777, 14969, 15324, 15492, 15751, 16080, 16416, 16562, 17164, 18386, 18581, 18732, 18871, 19052, 19290, 21159, 21862, 22035, 22207, 22402, 22668, 22839, 22970, 23299, 24812, 25541, 25785, 25935, 26101, 26310, 26520, 26653, 27815, 29650, 29832, 30141, 30343, 30593, 30899, 31527, 31739, 31975, 32134, 32325, 32446, 34531, 35176, 35378, 35512, 35739, 35860, 37314, 37652, 37906, 38199, 38350, 38511, 38849, 39064, 39546, 40062, 40361, 40457, 40761, 40955, 41146, 41685, 44206, 44376, 44566, 44718, 44944, 45143, 46499], "trial_type": "free-recall", "conditions": [18, 1200, "a", 18000], "internal_node_id": "0.0-32.0-0.0", "key_presses": [83, 73, 77, 8, 8, 85, 78, 82, 73, 83, 69, 13, 65, 83, 73, 65, 13, 67, 65, 82, 82, 73, 65, 71, 69, 13, 83, 72, 79, 86, 69, 76, 13, 80, 82, 69, 65, 67, 72, 69, 82, 13, 82, 79, 79, 83, 84, 69, 82, 13, 66, 65, 67, 79, 78, 13, 66, 69, 65, 86, 69, 82, 13, 76, 79, 86, 69, 82, 13, 67, 79, 76, 76, 69, 71, 69, 13, 66, 82, 65, 67, 69, 83, 13, 82, 65, 68, 73, 83, 72, 13], "trial": 0, "time_elapsed": 335289, "type": "FREE_RECALL", "trial_index": 41}, "uniqueid": "MTK2688:3I0BTBYZAYS1DZHXH6ADONEPKYFY0T", "dateTime": 1519236983252}, {"current_trial": 42, "trialdata": {"rt": 2207, "trial_type": "text", "internal_node_id": "0.0-33.0", "time_elapsed": 339504, "key_press": 68, "type": "INSTRUCTIONS", "trial_index": 42}, "uniqueid": "MTK2688:3I0BTBYZAYS1DZHXH6ADONEPKYFY0T", "dateTime": 1519236987462}, {"current_trial": 43, "trialdata": {"rt": [6275, 11478, 13860, 16768], "trial_type": "math-distractor", "key_times": [4644, 4998, 6275, 10734, 10962, 11478, 13260, 13516, 13860, 16092, 16315, 16768], "responses": ["17", "15", "15", "10"], "num2": [5, 4, 9, 1, 6], "num3": [8, 9, 6, 2, 1], "conditions": [18, 1200, "a", 18000], "internal_node_id": "0.0-34.0", "key_presses": [97, 103, 13, 97, 101, 13, 97, 101, 13, 97, 96, 13], "trial": 1, "time_elapsed": 359510, "type": "DISTRACTOR", "trial_index": 43, "num1": [4, 2, 5, 7, 7]}, "uniqueid": "MTK2688:3I0BTBYZAYS1DZHXH6ADONEPKYFY0T", "dateTime": 1519237007468}, {"current_trial": 44, "trialdata": {"rt": -1, "trial_type": "single-stim", "stimulus": "<p id=\"stim\">10</p>", "internal_node_id": "0.0-35.0-0.0", "time_elapsed": 362513, "key_press": -1, "trial_index": 44}, "uniqueid": "MTK2688:3I0BTBYZAYS1DZHXH6ADONEPKYFY0T", "dateTime": 1519237010472}, {"current_trial": 45, "trialdata": {"rt": -1, "trial_type": "single-stim", "stimulus": "<p id=\"stim\">9</p>", "internal_node_id": "0.0-35.0-1.0", "time_elapsed": 363516, "key_press": -1, "trial_index": 45}, "uniqueid": "MTK2688:3I0BTBYZAYS1DZHXH6ADONEPKYFY0T", "dateTime": 1519237011474}, {"current_trial": 46, "trialdata": {"rt": -1, "trial_type": "single-stim", "stimulus": "<p id=\"stim\">8</p>", "internal_node_id": "0.0-35.0-2.0", "time_elapsed": 364519, "key_press": -1, "trial_index": 46}, "uniqueid": "MTK2688:3I0BTBYZAYS1DZHXH6ADONEPKYFY0T", "dateTime": 1519237012477}, {"current_trial": 47, "trialdata": {"rt": -1, "trial_type": "single-stim", "stimulus": "<p id=\"stim\">7</p>", "internal_node_id": "0.0-35.0-3.0", "time_elapsed": 365521, "key_press": -1, "trial_index": 47}, "uniqueid": "MTK2688:3I0BTBYZAYS1DZHXH6ADONEPKYFY0T", "dateTime": 1519237013479}, {"current_trial": 48, "trialdata": {"rt": -1, "trial_type": "single-stim", "stimulus": "<p id=\"stim\">6</p>", "internal_node_id": "0.0-35.0-4.0", "time_elapsed": 366523, "key_press": -1, "trial_index": 48}, "uniqueid": "MTK2688:3I0BTBYZAYS1DZHXH6ADONEPKYFY0T", "dateTime": 1519237014482}, {"current_trial": 49, "trialdata": {"rt": -1, "trial_type": "single-stim", "stimulus": "<p id=\"stim\">5</p>", "internal_node_id": "0.0-35.0-5.0", "time_elapsed": 367666, "key_press": -1, "trial_index": 49}, "uniqueid": "MTK2688:3I0BTBYZAYS1DZHXH6ADONEPKYFY0T", "dateTime": 1519237015624}, {"current_trial": 50, "trialdata": {"rt": -1, "trial_type": "single-stim", "stimulus": "<p id=\"stim\">4</p>", "internal_node_id": "0.0-35.0-6.0", "time_elapsed": 368669, "key_press": -1, "trial_index": 50}, "uniqueid": "MTK2688:3I0BTBYZAYS1DZHXH6ADONEPKYFY0T", "dateTime": 1519237016627}, {"current_trial": 51, "trialdata": {"rt": -1, "trial_type": "single-stim", "stimulus": "<p id=\"stim\">3</p>", "internal_node_id": "0.0-35.0-7.0", "time_elapsed": 369671, "key_press": -1, "trial_index": 51}, "uniqueid": "MTK2688:3I0BTBYZAYS1DZHXH6ADONEPKYFY0T", "dateTime": 1519237017629}, {"current_trial": 52, "trialdata": {"rt": -1, "trial_type": "single-stim", "stimulus": "<p id=\"stim\">2</p>", "internal_node_id": "0.0-35.0-8.0", "time_elapsed": 370673, "key_press": -1, "trial_index": 52}, "uniqueid": "MTK2688:3I0BTBYZAYS1DZHXH6ADONEPKYFY0T", "dateTime": 1519237018631}, {"current_trial": 53, "trialdata": {"rt": -1, "trial_type": "single-stim", "stimulus": "<p id=\"stim\">1</p>", "internal_node_id": "0.0-35.0-9.0", "time_elapsed": 371676, "key_press": -1, "trial_index": 53}, "uniqueid": "MTK2688:3I0BTBYZAYS1DZHXH6ADONEPKYFY0T", "dateTime": 1519237019634}, {"current_trial": 54, "trialdata": {"rt": -1, "trial_type": "single-stim", "stimulus": "<p id=\"stim\">+</p>", "internal_node_id": "0.0-36.0-0.0", "time_elapsed": 373178, "key_press": -1, "type": "FIXATION", "trial_index": 54}, "uniqueid": "MTK2688:3I0BTBYZAYS1DZHXH6ADONEPKYFY0T", "dateTime": 1519237021137}, {"current_trial": 55, "trialdata": {"rt": -1000, "trial_type": "single-audio", "word": "waiter", "stimulus": "/static/audio/wordpool/WAITER.wav", "conditions": [18, 1200, "a", 18000], "internal_node_id": "0.0-37.0", "trial": 1, "time_elapsed": 375189, "serialpos": 0, "key_press": -1, "wordID": 1579, "type": "PRES_AUD", "trial_index": 55}, "uniqueid": "MTK2688:3I0BTBYZAYS1DZHXH6ADONEPKYFY0T", "dateTime": 1519237023148}, {"current_trial": 56, "trialdata": {"rt": -1000, "trial_type": "single-audio", "word": "cabin", "stimulus": "/static/audio/wordpool/CABIN.wav", "conditions": [18, 1200, "a", 18000], "internal_node_id": "0.0-38.0", "trial": 1, "time_elapsed": 377397, "serialpos": 1, "key_press": -1, "wordID": 210, "type": "PRES_AUD", "trial_index": 56}, "uniqueid": "MTK2688:3I0BTBYZAYS1DZHXH6ADONEPKYFY0T", "dateTime": 1519237025356}, {"current_trial": 57, "trialdata": {"rt": -1000, "trial_type": "single-audio", "word": "student", "stimulus": "/static/audio/wordpool/STUDENT.wav", "conditions": [18, 1200, "a", 18000], "internal_node_id": "0.0-39.0", "trial": 1, "time_elapsed": 379468, "serialpos": 2, "key_press": -1, "wordID": 1394, "type": "PRES_AUD", "trial_index": 57}, "uniqueid": "MTK2688:3I0BTBYZAYS1DZHXH6ADONEPKYFY0T", "dateTime": 1519237027427}, {"current_trial": 58, "trialdata": {"rt": -1000, "trial_type": "single-audio", "word": "coin", "stimulus": "/static/audio/wordpool/COIN.wav", "conditions": [18, 1200, "a", 18000], "internal_node_id": "0.0-40.0", "trial": 1, "time_elapsed": 381821, "serialpos": 3, "key_press": -1, "wordID": 342, "type": "PRES_AUD", "trial_index": 58}, "uniqueid": "MTK2688:3I0BTBYZAYS1DZHXH6ADONEPKYFY0T", "dateTime": 1519237029779}, {"current_trial": 59, "trialdata": {"rt": -1000, "trial_type": "single-audio", "word": "pistol", "stimulus": "/static/audio/wordpool/PISTOL.wav", "conditions": [18, 1200, "a", 18000], "internal_node_id": "0.0-41.0", "trial": 1, "time_elapsed": 384243, "serialpos": 4, "key_press": -1, "wordID": 1074, "type": "PRES_AUD", "trial_index": 59}, "uniqueid": "MTK2688:3I0BTBYZAYS1DZHXH6ADONEPKYFY0T", "dateTime": 1519237032201}, {"current_trial": 60, "trialdata": {"rt": -1000, "trial_type": "single-audio", "word": "scribble", "stimulus": "/static/audio/wordpool/SCRIBBLE.wav", "conditions": [18, 1200, "a", 18000], "internal_node_id": "0.0-42.0", "trial": 1, "time_elapsed": 386325, "serialpos": 5, "key_press": -1, "wordID": 1255, "type": "PRES_AUD", "trial_index": 60}, "uniqueid": "MTK2688:3I0BTBYZAYS1DZHXH6ADONEPKYFY0T", "dateTime": 1519237034283}, {"current_trial": 61, "trialdata": {"rt": -1000, "trial_type": "single-audio", "word": "hornet", "stimulus": "/static/audio/wordpool/HORNET.wav", "conditions": [18, 1200, "a", 18000], "internal_node_id": "0.0-43.0", "trial": 1, "time_elapsed": 388523, "serialpos": 6, "key_press": -1, "wordID": 717, "type": "PRES_AUD", "trial_index": 61}, "uniqueid": "MTK2688:3I0BTBYZAYS1DZHXH6ADONEPKYFY0T", "dateTime": 1519237036481}, {"current_trial": 62, "trialdata": {"rt": -1000, "trial_type": "single-audio", "word": "hook", "stimulus": "/static/audio/wordpool/HOOK.wav", "conditions": [18, 1200, "a", 18000], "internal_node_id": "0.0-44.0", "trial": 1, "time_elapsed": 390578, "serialpos": 7, "key_press": -1, "wordID": 714, "type": "PRES_AUD", "trial_index": 62}, "uniqueid": "MTK2688:3I0BTBYZAYS1DZHXH6ADONEPKYFY0T", "dateTime": 1519237038536}, {"current_trial": 63, "trialdata": {"rt": -1000, "trial_type": "single-audio", "word": "slide", "stimulus": "/static/audio/wordpool/SLIDE.wav", "conditions": [18, 1200, "a", 18000], "internal_node_id": "0.0-45.0", "trial": 1, "time_elapsed": 392620, "serialpos": 8, "key_press": -1, "wordID": 1325, "type": "PRES_AUD", "trial_index": 63}, "uniqueid": "MTK2688:3I0BTBYZAYS1DZHXH6ADONEPKYFY0T", "dateTime": 1519237040578}, {"current_trial": 64, "trialdata": {"rt": -1000, "trial_type": "single-audio", "word": "tombstone", "stimulus": "/static/audio/wordpool/TOMBSTONE.wav", "conditions": [18, 1200, "a", 18000], "internal_node_id": "0.0-46.0", "trial": 1, "time_elapsed": 394937, "serialpos": 9, "key_press": -1, "wordID": 1477, "type": "PRES_AUD", "trial_index": 64}, "uniqueid": "MTK2688:3I0BTBYZAYS1DZHXH6ADONEPKYFY0T", "dateTime": 1519237042895}, {"current_trial": 65, "trialdata": {"rt": -1000, "trial_type": "single-audio", "word": "worker", "stimulus": "/static/audio/wordpool/WORKER.wav", "conditions": [18, 1200, "a", 18000], "internal_node_id": "0.0-47.0", "trial": 1, "time_elapsed": 397076, "serialpos": 10, "key_press": -1, "wordID": 1620, "type": "PRES_AUD", "trial_index": 65}, "uniqueid": "MTK2688:3I0BTBYZAYS1DZHXH6ADONEPKYFY0T", "dateTime": 1519237045034}, {"current_trial": 66, "trialdata": {"rt": -1000, "trial_type": "single-audio", "word": "cabbage", "stimulus": "/static/audio/wordpool/CABBAGE.wav", "conditions": [18, 1200, "a", 18000], "internal_node_id": "0.0-48.0", "trial": 1, "time_elapsed": 399372, "serialpos": 11, "key_press": -1, "wordID": 209, "type": "PRES_AUD", "trial_index": 66}, "uniqueid": "MTK2688:3I0BTBYZAYS1DZHXH6ADONEPKYFY0T", "dateTime": 1519237047330}, {"current_trial": 67, "trialdata": {"rt": -1000, "trial_type": "single-audio", "word": "flute", "stimulus": "/static/audio/wordpool/FLUTE.wav", "conditions": [18, 1200, "a", 18000], "internal_node_id": "0.0-49.0", "trial": 1, "time_elapsed": 401689, "serialpos": 12, "key_press": -1, "wordID": 584, "type": "PRES_AUD", "trial_index": 67}, "uniqueid": "MTK2688:3I0BTBYZAYS1DZHXH6ADONEPKYFY0T", "dateTime": 1519237049647}, {"current_trial": 68, "trialdata": {"rt": -1000, "trial_type": "single-audio", "word": "antler", "stimulus": "/static/audio/wordpool/ANTLER.wav", "conditions": [18, 1200, "a", 18000], "internal_node_id": "0.0-50.0", "trial": 1, "time_elapsed": 403907, "serialpos": 13, "key_press": -1, "wordID": 28, "type": "PRES_AUD", "trial_index": 68}, "uniqueid": "MTK2688:3I0BTBYZAYS1DZHXH6ADONEPKYFY0T", "dateTime": 1519237051865}, {"current_trial": 69, "trialdata": {"rt": -1000, "trial_type": "single-audio", "word": "lunch", "stimulus": "/static/audio/wordpool/LUNCH.wav", "conditions": [18, 1200, "a", 18000], "internal_node_id": "0.0-51.0", "trial": 1, "time_elapsed": 406281, "serialpos": 14, "key_press": -1, "wordID": 848, "type": "PRES_AUD", "trial_index": 69}, "uniqueid": "MTK2688:3I0BTBYZAYS1DZHXH6ADONEPKYFY0T", "dateTime": 1519237054239}, {"current_trial": 70, "trialdata": {"rt": -1000, "trial_type": "single-audio", "word": "tunnel", "stimulus": "/static/audio/wordpool/TUNNEL.wav", "conditions": [18, 1200, "a", 18000], "internal_node_id": "0.0-52.0", "trial": 1, "time_elapsed": 408562, "serialpos": 15, "key_press": -1, "wordID": 1518, "type": "PRES_AUD", "trial_index": 70}, "uniqueid": "MTK2688:3I0BTBYZAYS1DZHXH6ADONEPKYFY0T", "dateTime": 1519237056520}, {"current_trial": 71, "trialdata": {"rt": -1000, "trial_type": "single-audio", "word": "mars", "stimulus": "/static/audio/wordpool/MARS.wav", "conditions": [18, 1200, "a", 18000], "internal_node_id": "0.0-53.0", "trial": 1, "time_elapsed": 410801, "serialpos": 16, "key_press": -1, "wordID": 872, "type": "PRES_AUD", "trial_index": 71}, "uniqueid": "MTK2688:3I0BTBYZAYS1DZHXH6ADONEPKYFY0T", "dateTime": 1519237058760}, {"current_trial": 72, "trialdata": {"rt": -1000, "trial_type": "single-audio", "word": "trout", "stimulus": "/static/audio/wordpool/TROUT.wav", "conditions": [18, 1200, "a", 18000], "internal_node_id": "0.0-54.0", "trial": 1, "time_elapsed": 412846, "serialpos": 17, "key_press": -1, "wordID": 1510, "type": "PRES_AUD", "trial_index": 72}, "uniqueid": "MTK2688:3I0BTBYZAYS1DZHXH6ADONEPKYFY0T", "dateTime": 1519237060804}, {"current_trial": 73, "trialdata": {"rt": -1, "trial_type": "single-stim", "stimulus": "", "internal_node_id": "0.0-55.0-0.0", "time_elapsed": 414159, "key_press": -1, "type": "PRE_RECALL_DELAY", "trial_index": 73}, "uniqueid": "MTK2688:3I0BTBYZAYS1DZHXH6ADONEPKYFY0T", "dateTime": 1519237062117}, {"current_trial": 74, "trialdata": {"rt": -1000, "trial_type": "single-audio", "stimulus": "/static/audio/400Hz.wav", "internal_node_id": "0.0-56.0", "time_elapsed": 414662, "key_press": -1, "type": "PRE_RECALL_ALERT", "trial_index": 74}, "uniqueid": "MTK2688:3I0BTBYZAYS1DZHXH6ADONEPKYFY0T", "dateTime": 1519237062620}, {"current_trial": 75, "trialdata": {"rt": [5330, 7352, 9060, 11070, 13572, 16398, 18735, 23271, 25524, 27397, 30523, 32892, 38223], "recwords": ["waiter", "cabin", "coin", "student", "pistol", "scribble", "hornet", "fly", "flute", "worker", "antler", "mars", "tunnel"], "key_times": [2919, 3127, 3322, 3583, 3680, 3799, 5330, 6072, 6241, 6527, 6760, 7065, 7352, 8102, 8299, 8512, 8784, 9060, 9358, 9579, 9821, 9997, 10177, 10388, 10582, 11070, 11706, 12007, 12177, 12395, 12558, 12807, 13572, 14137, 14392, 14617, 14781, 15096, 15342, 15431, 15558, 16398, 17137, 17348, 17492, 17761, 17838, 18078, 18735, 21562, 21739, 22039, 23271, 24449, 24629, 24850, 24996, 25153, 25524, 25995, 26150, 26271, 26456, 26588, 26794, 27397, 28173, 28340, 28702, 29200, 29402, 29618, 30523, 31841, 31991, 32200, 32393, 32892, 35380, 35598, 35936, 36075, 36229, 36425, 38223], "trial_type": "free-recall", "conditions": [18, 1200, "a", 18000], "internal_node_id": "0.0-57.0-0.0", "key_presses": [87, 65, 73, 84, 69, 82, 13, 67, 65, 66, 73, 78, 13, 67, 79, 73, 78, 13, 83, 84, 85, 68, 69, 78, 84, 13, 80, 73, 83, 84, 79, 76, 13, 83, 67, 82, 73, 66, 66, 76, 69, 13, 72, 79, 82, 78, 69, 84, 13, 70, 76, 89, 13, 70, 76, 85, 84, 69, 13, 87, 79, 82, 75, 69, 82, 13, 65, 78, 84, 76, 69, 82, 13, 77, 65, 82, 83, 13, 84, 85, 78, 78, 69, 76, 13], "trial": 1, "time_elapsed": 474667, "type": "FREE_RECALL", "trial_index": 75}, "uniqueid": "MTK2688:3I0BTBYZAYS1DZHXH6ADONEPKYFY0T", "dateTime": 1519237122628}, {"current_trial": 76, "trialdata": {"rt": 4434, "trial_type": "text", "internal_node_id": "0.0-58.0", "time_elapsed": 481106, "key_press": 68, "type": "INSTRUCTIONS", "trial_index": 76}, "uniqueid": "MTK2688:3I0BTBYZAYS1DZHXH6ADONEPKYFY0T", "dateTime": 1519237129064}, {"current_trial": 77, "trialdata": {"rt": [4597, 11307, 14892, 17972, 22765], "trial_type": "math-distractor", "key_times": [3856, 4083, 4597, 8283, 8570, 11307, 14085, 14294, 14892, 17244, 17516, 17972, 22201, 22442, 22765], "responses": ["14", "12", "14", "15", "10"], "num2": [8, 8, 7, 1, 2, 3], "num3": [3, 1, 2, 8, 7, 7], "conditions": [24, 1600, "a", 24000], "internal_node_id": "0.0-59.0", "key_presses": [97, 100, 13, 97, 98, 13, 97, 100, 13, 97, 101, 13, 97, 96, 13], "trial": 2, "time_elapsed": 506123, "type": "DISTRACTOR", "trial_index": 77, "num1": [3, 3, 5, 6, 1, 4]}, "uniqueid": "MTK2688:3I0BTBYZAYS1DZHXH6ADONEPKYFY0T", "dateTime": 1519237154081}, {"current_trial": 78, "trialdata": {"rt": -1, "trial_type": "single-stim", "stimulus": "<p id=\"stim\">10</p>", "internal_node_id": "0.0-60.0-0.0", "time_elapsed": 509164, "key_press": -1, "trial_index": 78}, "uniqueid": "MTK2688:3I0BTBYZAYS1DZHXH6ADONEPKYFY0T", "dateTime": 1519237157122}, {"current_trial": 79, "trialdata": {"rt": -1, "trial_type": "single-stim", "stimulus": "<p id=\"stim\">9</p>", "internal_node_id": "0.0-60.0-1.0", "time_elapsed": 510166, "key_press": -1, "trial_index": 79}, "uniqueid": "MTK2688:3I0BTBYZAYS1DZHXH6ADONEPKYFY0T", "dateTime": 1519237158124}, {"current_trial": 80, "trialdata": {"rt": -1, "trial_type": "single-stim", "stimulus": "<p id=\"stim\">8</p>", "internal_node_id": "0.0-60.0-2.0", "time_elapsed": 511167, "key_press": -1, "trial_index": 80}, "uniqueid": "MTK2688:3I0BTBYZAYS1DZHXH6ADONEPKYFY0T", "dateTime": 1519237159127}, {"current_trial": 81, "trialdata": {"rt": -1, "trial_type": "single-stim", "stimulus": "<p id=\"stim\">7</p>", "internal_node_id": "0.0-60.0-3.0", "time_elapsed": 512171, "key_press": -1, "trial_index": 81}, "uniqueid": "MTK2688:3I0BTBYZAYS1DZHXH6ADONEPKYFY0T", "dateTime": 1519237160129}, {"current_trial": 82, "trialdata": {"rt": -1, "trial_type": "single-stim", "stimulus": "<p id=\"stim\">6</p>", "internal_node_id": "0.0-60.0-4.0", "time_elapsed": 513172, "key_press": -1, "trial_index": 82}, "uniqueid": "MTK2688:3I0BTBYZAYS1DZHXH6ADONEPKYFY0T", "dateTime": 1519237161131}, {"current_trial": 83, "trialdata": {"rt": -1, "trial_type": "single-stim", "stimulus": "<p id=\"stim\">5</p>", "internal_node_id": "0.0-60.0-5.0", "time_elapsed": 514175, "key_press": -1, "trial_index": 83}, "uniqueid": "MTK2688:3I0BTBYZAYS1DZHXH6ADONEPKYFY0T", "dateTime": 1519237162133}, {"current_trial": 84, "trialdata": {"rt": -1, "trial_type": "single-stim", "stimulus": "<p id=\"stim\">4</p>", "internal_node_id": "0.0-60.0-6.0", "time_elapsed": 515177, "key_press": -1, "trial_index": 84}, "uniqueid": "MTK2688:3I0BTBYZAYS1DZHXH6ADONEPKYFY0T", "dateTime": 1519237163135}, {"current_trial": 85, "trialdata": {"rt": -1, "trial_type": "single-stim", "stimulus": "<p id=\"stim\">3</p>", "internal_node_id": "0.0-60.0-7.0", "time_elapsed": 516179, "key_press": -1, "trial_index": 85}, "uniqueid": "MTK2688:3I0BTBYZAYS1DZHXH6ADONEPKYFY0T", "dateTime": 1519237164137}, {"current_trial": 86, "trialdata": {"rt": -1, "trial_type": "single-stim", "stimulus": "<p id=\"stim\">2</p>", "internal_node_id": "0.0-60.0-8.0", "time_elapsed": 517182, "key_press": -1, "trial_index": 86}, "uniqueid": "MTK2688:3I0BTBYZAYS1DZHXH6ADONEPKYFY0T", "dateTime": 1519237165141}, {"current_trial": 87, "trialdata": {"rt": -1, "trial_type": "single-stim", "stimulus": "<p id=\"stim\">1</p>", "internal_node_id": "0.0-60.0-9.0", "time_elapsed": 518184, "key_press": -1, "trial_index": 87}, "uniqueid": "MTK2688:3I0BTBYZAYS1DZHXH6ADONEPKYFY0T", "dateTime": 1519237166142}, {"current_trial": 88, "trialdata": {"rt": -1, "trial_type": "single-stim", "stimulus": "<p id=\"stim\">+</p>", "internal_node_id": "0.0-61.0-0.0", "time_elapsed": 519685, "key_press": -1, "type": "FIXATION", "trial_index": 88}, "uniqueid": "MTK2688:3I0BTBYZAYS1DZHXH6ADONEPKYFY0T", "dateTime": 1519237167644}, {"current_trial": 89, "trialdata": {"rt": -1000, "trial_type": "single-audio", "word": "suspect", "stimulus": "/static/audio/wordpool/SUSPECT.wav", "conditions": [24, 1600, "a", 24000], "internal_node_id": "0.0-62.0", "trial": 2, "time_elapsed": 522177, "serialpos": 0, "key_press": -1, "wordID": 1414, "type": "PRES_AUD", "trial_index": 89}, "uniqueid": "MTK2688:3I0BTBYZAYS1DZHXH6ADONEPKYFY0T", "dateTime": 1519237170135}, {"current_trial": 90, "trialdata": {"rt": -1000, "trial_type": "single-audio", "word": "brick", "stimulus": "/static/audio/wordpool/BRICK.wav", "conditions": [24, 1600, "a", 24000], "internal_node_id": "0.0-63.0", "trial": 2, "time_elapsed": 524927, "serialpos": 1, "key_press": -1, "wordID": 171, "type": "PRES_AUD", "trial_index": 90}, "uniqueid": "MTK2688:3I0BTBYZAYS1DZHXH6ADONEPKYFY0T", "dateTime": 1519237172885}, {"current_trial": 91, "trialdata": {"rt": -1000, "trial_type": "single-audio", "word": "pebble", "stimulus": "/static/audio/wordpool/PEBBLE.wav", "conditions": [24, 1600, "a", 24000], "internal_node_id": "0.0-64.0", "trial": 2, "time_elapsed": 527539, "serialpos": 2, "key_press": -1, "wordID": 1034, "type": "PRES_AUD", "trial_index": 91}, "uniqueid": "MTK2688:3I0BTBYZAYS1DZHXH6ADONEPKYFY0T", "dateTime": 1519237175497}, {"current_trial": 92, "trialdata": {"rt": -1000, "trial_type": "single-audio", "word": "backbone", "stimulus": "/static/audio/wordpool/BACKBONE.wav", "conditions": [24, 1600, "a", 24000], "internal_node_id": "0.0-65.0", "trial": 2, "time_elapsed": 530172, "serialpos": 3, "key_press": -1, "wordID": 65, "type": "PRES_AUD", "trial_index": 92}, "uniqueid": "MTK2688:3I0BTBYZAYS1DZHXH6ADONEPKYFY0T", "dateTime": 1519237178130}, {"current_trial": 93, "trialdata": {"rt": -1000, "trial_type": "single-audio", "word": "seafood", "stimulus": "/static/audio/wordpool/SEAFOOD.wav", "conditions": [24, 1600, "a", 24000], "internal_node_id": "0.0-66.0", "trial": 2, "time_elapsed": 532620, "serialpos": 4, "key_press": -1, "wordID": 1259, "type": "PRES_AUD", "trial_index": 93}, "uniqueid": "MTK2688:3I0BTBYZAYS1DZHXH6ADONEPKYFY0T", "dateTime": 1519237180578}, {"current_trial": 94, "trialdata": {"rt": -1000, "trial_type": "single-audio", "word": "zebra", "stimulus": "/static/audio/wordpool/ZEBRA.wav", "conditions": [24, 1600, "a", 24000], "internal_node_id": "0.0-67.0", "trial": 2, "time_elapsed": 535049, "serialpos": 5, "key_press": -1, "wordID": 1634, "type": "PRES_AUD", "trial_index": 94}, "uniqueid": "MTK2688:3I0BTBYZAYS1DZHXH6ADONEPKYFY0T", "dateTime": 1519237183007}, {"current_trial": 95, "trialdata": {"rt": -1000, "trial_type": "single-audio", "word": "panther", "stimulus": "/static/audio/wordpool/PANTHER.wav", "conditions": [24, 1600, "a", 24000], "internal_node_id": "0.0-68.0", "trial": 2, "time_elapsed": 537618, "serialpos": 6, "key_press": -1, "wordID": 1008, "type": "PRES_AUD", "trial_index": 95}, "uniqueid": "MTK2688:3I0BTBYZAYS1DZHXH6ADONEPKYFY0T", "dateTime": 1519237185576}, {"current_trial": 96, "trialdata": {"rt": -1000, "trial_type": "single-audio", "word": "flower", "stimulus": "/static/audio/wordpool/FLOWER.wav", "conditions": [24, 1600, "a", 24000], "internal_node_id": "0.0-69.0", "trial": 2, "time_elapsed": 540250, "serialpos": 7, "key_press": -1, "wordID": 583, "type": "PRES_AUD", "trial_index": 96}, "uniqueid": "MTK2688:3I0BTBYZAYS1DZHXH6ADONEPKYFY0T", "dateTime": 1519237188208}, {"current_trial": 97, "trialdata": {"rt": -1000, "trial_type": "single-audio", "word": "scallop", "stimulus": "/static/audio/wordpool/SCALLOP.wav", "conditions": [24, 1600, "a", 24000], "internal_node_id": "0.0-70.0", "trial": 2, "time_elapsed": 542659, "serialpos": 8, "key_press": -1, "wordID": 1241, "type": "PRES_AUD", "trial_index": 97}, "uniqueid": "MTK2688:3I0BTBYZAYS1DZHXH6ADONEPKYFY0T", "dateTime": 1519237190617}, {"current_trial": 98, "trialdata": {"rt": -1000, "trial_type": "single-audio", "word": "teacher", "stimulus": "/static/audio/wordpool/TEACHER.wav", "conditions": [24, 1600, "a", 24000], "internal_node_id": "0.0-71.0", "trial": 2, "time_elapsed": 545161, "serialpos": 9, "key_press": -1, "wordID": 1439, "type": "PRES_AUD", "trial_index": 98}, "uniqueid": "MTK2688:3I0BTBYZAYS1DZHXH6ADONEPKYFY0T", "dateTime": 1519237193119}, {"current_trial": 99, "trialdata": {"rt": -1000, "trial_type": "single-audio", "word": "widow", "stimulus": "/static/audio/wordpool/WIDOW.wav", "conditions": [24, 1600, "a", 24000], "internal_node_id": "0.0-72.0", "trial": 2, "time_elapsed": 547893, "serialpos": 10, "key_press": -1, "wordID": 1607, "type": "PRES_AUD", "trial_index": 99}, "uniqueid": "MTK2688:3I0BTBYZAYS1DZHXH6ADONEPKYFY0T", "dateTime": 1519237195851}, {"current_trial": 100, "trialdata": {"rt": -1000, "trial_type": "single-audio", "word": "cocoon", "stimulus": "/static/audio/wordpool/COCOON.wav", "conditions": [24, 1600, "a", 24000], "internal_node_id": "0.0-73.0", "trial": 2, "time_elapsed": 550419, "serialpos": 11, "key_press": -1, "wordID": 338, "type": "PRES_AUD", "trial_index": 100}, "uniqueid": "MTK2688:3I0BTBYZAYS1DZHXH6ADONEPKYFY0T", "dateTime": 1519237198377}, {"current_trial": 101, "trialdata": {"rt": -1000, "trial_type": "single-audio", "word": "pepper", "stimulus": "/static/audio/wordpool/PEPPER.wav", "conditions": [24, 1600, "a", 24000], "internal_node_id": "0.0-74.0", "trial": 2, "time_elapsed": 552861, "serialpos": 12, "key_press": -1, "wordID": 1046, "type": "PRES_AUD", "trial_index": 101}, "uniqueid": "MTK2688:3I0BTBYZAYS1DZHXH6ADONEPKYFY0T", "dateTime": 1519237200819}, {"current_trial": 102, "trialdata": {"rt": -1000, "trial_type": "single-audio", "word": "flask", "stimulus": "/static/audio/wordpool/FLASK.wav", "conditions": [24, 1600, "a", 24000], "internal_node_id": "0.0-75.0", "trial": 2, "time_elapsed": 555563, "serialpos": 13, "key_press": -1, "wordID": 575, "type": "PRES_AUD", "trial_index": 102}, "uniqueid": "MTK2688:3I0BTBYZAYS1DZHXH6ADONEPKYFY0T", "dateTime": 1519237203522}, {"current_trial": 103, "trialdata": {"rt": -1000, "trial_type": "single-audio", "word": "butcher", "stimulus": "/static/audio/wordpool/BUTCHER.wav", "conditions": [24, 1600, "a", 24000], "internal_node_id": "0.0-76.0", "trial": 2, "time_elapsed": 558119, "serialpos": 14, "key_press": -1, "wordID": 202, "type": "PRES_AUD", "trial_index": 103}, "uniqueid": "MTK2688:3I0BTBYZAYS1DZHXH6ADONEPKYFY0T", "dateTime": 1519237206077}, {"current_trial": 104, "trialdata": {"rt": -1000, "trial_type": "single-audio", "word": "wife", "stimulus": "/static/audio/wordpool/WIFE.wav", "conditions": [24, 1600, "a", 24000], "internal_node_id": "0.0-77.0", "trial": 2, "time_elapsed": 560605, "serialpos": 15, "key_press": -1, "wordID": 1608, "type": "PRES_AUD", "trial_index": 104}, "uniqueid": "MTK2688:3I0BTBYZAYS1DZHXH6ADONEPKYFY0T", "dateTime": 1519237208563}, {"current_trial": 105, "trialdata": {"rt": -1000, "trial_type": "single-audio", "word": "bison", "stimulus": "/static/audio/wordpool/BISON.wav", "conditions": [24, 1600, "a", 24000], "internal_node_id": "0.0-78.0", "trial": 2, "time_elapsed": 563392, "serialpos": 16, "key_press": -1, "wordID": 130, "type": "PRES_AUD", "trial_index": 105}, "uniqueid": "MTK2688:3I0BTBYZAYS1DZHXH6ADONEPKYFY0T", "dateTime": 1519237211350}, {"current_trial": 106, "trialdata": {"rt": -1000, "trial_type": "single-audio", "word": "pliers", "stimulus": "/static/audio/wordpool/PLIERS.wav", "conditions": [24, 1600, "a", 24000], "internal_node_id": "0.0-79.0", "trial": 2, "time_elapsed": 566070, "serialpos": 17, "key_press": -1, "wordID": 1088, "type": "PRES_AUD", "trial_index": 106}, "uniqueid": "MTK2688:3I0BTBYZAYS1DZHXH6ADONEPKYFY0T", "dateTime": 1519237214028}, {"current_trial": 107, "trialdata": {"rt": -1000, "trial_type": "single-audio", "word": "parsley", "stimulus": "/static/audio/wordpool/PARSLEY.wav", "conditions": [24, 1600, "a", 24000], "internal_node_id": "0.0-80.0", "trial": 2, "time_elapsed": 568585, "serialpos": 18, "key_press": -1, "wordID": 1015, "type": "PRES_AUD", "trial_index": 107}, "uniqueid": "MTK2688:3I0BTBYZAYS1DZHXH6ADONEPKYFY0T", "dateTime": 1519237216543}, {"current_trial": 108, "trialdata": {"rt": -1000, "trial_type": "single-audio", "word": "police", "stimulus": "/static/audio/wordpool/POLICE.wav", "conditions": [24, 1600, "a", 24000], "internal_node_id": "0.0-81.0", "trial": 2, "time_elapsed": 571413, "serialpos": 19, "key_press": -1, "wordID": 1097, "type": "PRES_AUD", "trial_index": 108}, "uniqueid": "MTK2688:3I0BTBYZAYS1DZHXH6ADONEPKYFY0T", "dateTime": 1519237219372}, {"current_trial": 109, "trialdata": {"rt": -1000, "trial_type": "single-audio", "word": "lily", "stimulus": "/static/audio/wordpool/LILY.wav", "conditions": [24, 1600, "a", 24000], "internal_node_id": "0.0-82.0", "trial": 2, "time_elapsed": 573985, "serialpos": 20, "key_press": -1, "wordID": 820, "type": "PRES_AUD", "trial_index": 109}, "uniqueid": "MTK2688:3I0BTBYZAYS1DZHXH6ADONEPKYFY0T", "dateTime": 1519237221943}, {"current_trial": 110, "trialdata": {"rt": -1000, "trial_type": "single-audio", "word": "daisy", "stimulus": "/static/audio/wordpool/DAISY.wav", "conditions": [24, 1600, "a", 24000], "internal_node_id": "0.0-83.0", "trial": 2, "time_elapsed": 576541, "serialpos": 21, "key_press": -1, "wordID": 434, "type": "PRES_AUD", "trial_index": 110}, "uniqueid": "MTK2688:3I0BTBYZAYS1DZHXH6ADONEPKYFY0T", "dateTime": 1519237224499}, {"current_trial": 111, "trialdata": {"rt": -1000, "trial_type": "single-audio", "word": "patient", "stimulus": "/static/audio/wordpool/PATIENT.wav", "conditions": [24, 1600, "a", 24000], "internal_node_id": "0.0-84.0", "trial": 2, "time_elapsed": 579264, "serialpos": 22, "key_press": -1, "wordID": 1023, "type": "PRES_AUD", "trial_index": 111}, "uniqueid": "MTK2688:3I0BTBYZAYS1DZHXH6ADONEPKYFY0T", "dateTime": 1519237227223}, {"current_trial": 112, "trialdata": {"rt": -1000, "trial_type": "single-audio", "word": "coffee", "stimulus": "/static/audio/wordpool/COFFEE.wav", "conditions": [24, 1600, "a", 24000], "internal_node_id": "0.0-85.0", "trial": 2, "time_elapsed": 582072, "serialpos": 23, "key_press": -1, "wordID": 340, "type": "PRES_AUD", "trial_index": 112}, "uniqueid": "MTK2688:3I0BTBYZAYS1DZHXH6ADONEPKYFY0T", "dateTime": 1519237230030}, {"current_trial": 113, "trialdata": {"rt": -1, "trial_type": "single-stim", "stimulus": "", "internal_node_id": "0.0-86.0-0.0", "time_elapsed": 583314, "key_press": -1, "type": "PRE_RECALL_DELAY", "trial_index": 113}, "uniqueid": "MTK2688:3I0BTBYZAYS1DZHXH6ADONEPKYFY0T", "dateTime": 1519237231272}, {"current_trial": 114, "trialdata": {"rt": -1000, "trial_type": "single-audio", "stimulus": "/static/audio/400Hz.wav", "internal_node_id": "0.0-87.0", "time_elapsed": 583825, "key_press": -1, "type": "PRE_RECALL_ALERT", "trial_index": 114}, "uniqueid": "MTK2688:3I0BTBYZAYS1DZHXH6ADONEPKYFY0T", "dateTime": 1519237231783}, {"current_trial": 115, "trialdata": {"rt": [5019, 8866, 11315, 14433, 17183, 19392, 23536, 25976, 35554, 39980, 43053, 47041, 51970], "recwords": ["daisy", "plyers", "bison", "cocoon", "pepper", "flower", "panther", "brick", "suspect", "backbone", "seafood", "widow", "zebra"], "key_times": [3619, 3790, 3977, 4120, 4364, 5019, 6542, 6813, 7077, 7512, 7776, 8052, 8866, 9804, 10046, 10171, 10386, 10635, 11315, 12374, 12758, 13101, 13335, 13500, 13810, 14433, 15196, 15453, 15832, 16025, 16249, 16494, 17183, 17923, 18096, 18306, 18452, 18660, 18739, 19392, 20367, 20565, 20774, 20993, 21207, 21384, 22421, 22797, 22994, 23536, 24476, 24771, 25031, 25176, 25389, 25976, 26660, 26894, 27190, 27540, 27728, 27997, 28200, 35554, 36384, 36572, 36789, 36952, 37384, 37569, 37826, 37961, 39980, 40592, 40770, 40948, 41220, 41520, 41668, 41824, 43053, 43715, 43899, 44121, 44253, 44484, 47041, 49977, 50236, 50739, 51198, 51466, 51970], "trial_type": "free-recall", "conditions": [24, 1600, "a", 24000], "internal_node_id": "0.0-88.0-0.0", "key_presses": [68, 65, 73, 83, 89, 13, 80, 76, 89, 69, 82, 83, 13, 66, 73, 83, 79, 78, 13, 67, 79, 67, 79, 79, 78, 13, 80, 69, 80, 80, 69, 82, 13, 70, 76, 79, 87, 69, 82, 13, 80, 65, 78, 84, 72, 82, 8, 69, 82, 13, 66, 82, 73, 67, 75, 13, 83, 85, 83, 80, 69, 67, 84, 13, 66, 65, 67, 75, 66, 79, 78, 69, 13, 83, 69, 65, 70, 79, 79, 68, 13, 87, 73, 68, 79, 87, 13, 90, 69, 66, 82, 65, 13], "trial": 2, "time_elapsed": 643831, "type": "FREE_RECALL", "trial_index": 115}, "uniqueid": "MTK2688:3I0BTBYZAYS1DZHXH6ADONEPKYFY0T", "dateTime": 1519237291796}, {"current_trial": 116, "trialdata": {"rt": 1947, "trial_type": "text", "internal_node_id": "0.0-89.0", "time_elapsed": 647788, "key_press": 74, "type": "INSTRUCTIONS", "trial_index": 116}, "uniqueid": "MTK2688:3I0BTBYZAYS1DZHXH6ADONEPKYFY0T", "dateTime": 1519237295746}, {"current_trial": 117, "trialdata": {"rt": [4002, 6051, 11471], "trial_type": "math-distractor", "key_times": [3163, 4002, 5422, 5656, 6051, 10855, 11054, 11471], "responses": ["9", "12", "21"], "num2": [4, 5, 5, 7], "num3": [2, 2, 9, 9], "conditions": [24, 800, "a", 12000], "internal_node_id": "0.0-90.0", "key_presses": [105, 13, 97, 98, 13, 98, 97, 13], "trial": 3, "time_elapsed": 661795, "type": "DISTRACTOR", "trial_index": 117, "num1": [3, 5, 7, 7]}, "uniqueid": "MTK2688:3I0BTBYZAYS1DZHXH6ADONEPKYFY0T", "dateTime": 1519237309753}, {"current_trial": 118, "trialdata": {"rt": -1, "trial_type": "single-stim", "stimulus": "<p id=\"stim\">10</p>", "internal_node_id": "0.0-91.0-0.0", "time_elapsed": 664798, "key_press": -1, "trial_index": 118}, "uniqueid": "MTK2688:3I0BTBYZAYS1DZHXH6ADONEPKYFY0T", "dateTime": 1519237312756}, {"current_trial": 119, "trialdata": {"rt": -1, "trial_type": "single-stim", "stimulus": "<p id=\"stim\">9</p>", "internal_node_id": "0.0-91.0-1.0", "time_elapsed": 665800, "key_press": -1, "trial_index": 119}, "uniqueid": "MTK2688:3I0BTBYZAYS1DZHXH6ADONEPKYFY0T", "dateTime": 1519237313759}, {"current_trial": 120, "trialdata": {"rt": -1, "trial_type": "single-stim", "stimulus": "<p id=\"stim\">8</p>", "internal_node_id": "0.0-91.0-2.0", "time_elapsed": 666802, "key_press": -1, "trial_index": 120}, "uniqueid": "MTK2688:3I0BTBYZAYS1DZHXH6ADONEPKYFY0T", "dateTime": 1519237314761}, {"current_trial": 121, "trialdata": {"rt": -1, "trial_type": "single-stim", "stimulus": "<p id=\"stim\">7</p>", "internal_node_id": "0.0-91.0-3.0", "time_elapsed": 667805, "key_press": -1, "trial_index": 121}, "uniqueid": "MTK2688:3I0BTBYZAYS1DZHXH6ADONEPKYFY0T", "dateTime": 1519237315764}, {"current_trial": 122, "trialdata": {"rt": -1, "trial_type": "single-stim", "stimulus": "<p id=\"stim\">6</p>", "internal_node_id": "0.0-91.0-4.0", "time_elapsed": 668808, "key_press": -1, "trial_index": 122}, "uniqueid": "MTK2688:3I0BTBYZAYS1DZHXH6ADONEPKYFY0T", "dateTime": 1519237316766}, {"current_trial": 123, "trialdata": {"rt": -1, "trial_type": "single-stim", "stimulus": "<p id=\"stim\">5</p>", "internal_node_id": "0.0-91.0-5.0", "time_elapsed": 669810, "key_press": -1, "trial_index": 123}, "uniqueid": "MTK2688:3I0BTBYZAYS1DZHXH6ADONEPKYFY0T", "dateTime": 1519237317769}, {"current_trial": 124, "trialdata": {"rt": -1, "trial_type": "single-stim", "stimulus": "<p id=\"stim\">4</p>", "internal_node_id": "0.0-91.0-6.0", "time_elapsed": 670829, "key_press": -1, "trial_index": 124}, "uniqueid": "MTK2688:3I0BTBYZAYS1DZHXH6ADONEPKYFY0T", "dateTime": 1519237318788}, {"current_trial": 125, "trialdata": {"rt": -1, "trial_type": "single-stim", "stimulus": "<p id=\"stim\">3</p>", "internal_node_id": "0.0-91.0-7.0", "time_elapsed": 671830, "key_press": -1, "trial_index": 125}, "uniqueid": "MTK2688:3I0BTBYZAYS1DZHXH6ADONEPKYFY0T", "dateTime": 1519237319789}, {"current_trial": 126, "trialdata": {"rt": -1, "trial_type": "single-stim", "stimulus": "<p id=\"stim\">2</p>", "internal_node_id": "0.0-91.0-8.0", "time_elapsed": 672833, "key_press": -1, "trial_index": 126}, "uniqueid": "MTK2688:3I0BTBYZAYS1DZHXH6ADONEPKYFY0T", "dateTime": 1519237320791}, {"current_trial": 127, "trialdata": {"rt": -1, "trial_type": "single-stim", "stimulus": "<p id=\"stim\">1</p>", "internal_node_id": "0.0-91.0-9.0", "time_elapsed": 673835, "key_press": -1, "trial_index": 127}, "uniqueid": "MTK2688:3I0BTBYZAYS1DZHXH6ADONEPKYFY0T", "dateTime": 1519237321794}, {"current_trial": 128, "trialdata": {"rt": -1, "trial_type": "single-stim", "stimulus": "<p id=\"stim\">+</p>", "internal_node_id": "0.0-92.0-0.0", "time_elapsed": 675340, "key_press": -1, "type": "FIXATION", "trial_index": 128}, "uniqueid": "MTK2688:3I0BTBYZAYS1DZHXH6ADONEPKYFY0T", "dateTime": 1519237323298}, {"current_trial": 129, "trialdata": {"rt": -1000, "trial_type": "single-audio", "word": "monster", "stimulus": "/static/audio/wordpool/MONSTER.wav", "conditions": [24, 800, "a", 12000], "internal_node_id": "0.0-93.0", "trial": 3, "time_elapsed": 677315, "serialpos": 0, "key_press": -1, "wordID": 911, "type": "PRES_AUD", "trial_index": 129}, "uniqueid": "MTK2688:3I0BTBYZAYS1DZHXH6ADONEPKYFY0T", "dateTime": 1519237325274}, {"current_trial": 130, "trialdata": {"rt": -1000, "trial_type": "single-audio", "word": "beast", "stimulus": "/static/audio/wordpool/BEAST.wav", "conditions": [24, 800, "a", 12000], "internal_node_id": "0.0-94.0", "trial": 3, "time_elapsed": 679301, "serialpos": 1, "key_press": -1, "wordID": 107, "type": "PRES_AUD", "trial_index": 130}, "uniqueid": "MTK2688:3I0BTBYZAYS1DZHXH6ADONEPKYFY0T", "dateTime": 1519237327260}, {"current_trial": 131, "trialdata": {"rt": -1000, "trial_type": "single-audio", "word": "lizard", "stimulus": "/static/audio/wordpool/LIZARD.wav", "conditions": [24, 800, "a", 12000], "internal_node_id": "0.0-95.0", "trial": 3, "time_elapsed": 681022, "serialpos": 2, "key_press": -1, "wordID": 833, "type": "PRES_AUD", "trial_index": 131}, "uniqueid": "MTK2688:3I0BTBYZAYS1DZHXH6ADONEPKYFY0T", "dateTime": 1519237328981}, {"current_trial": 132, "trialdata": {"rt": -1000, "trial_type": "single-audio", "word": "lion", "stimulus": "/static/audio/wordpool/LION.wav", "conditions": [24, 800, "a", 12000], "internal_node_id": "0.0-96.0", "trial": 3, "time_elapsed": 682774, "serialpos": 3, "key_press": -1, "wordID": 826, "type": "PRES_AUD", "trial_index": 132}, "uniqueid": "MTK2688:3I0BTBYZAYS1DZHXH6ADONEPKYFY0T", "dateTime": 1519237330732}, {"current_trial": 133, "trialdata": {"rt": -1000, "trial_type": "single-audio", "word": "victim", "stimulus": "/static/audio/wordpool/VICTIM.wav", "conditions": [24, 800, "a", 12000], "internal_node_id": "0.0-97.0", "trial": 3, "time_elapsed": 684417, "serialpos": 4, "key_press": -1, "wordID": 1561, "type": "PRES_AUD", "trial_index": 133}, "uniqueid": "MTK2688:3I0BTBYZAYS1DZHXH6ADONEPKYFY0T", "dateTime": 1519237332375}, {"current_trial": 134, "trialdata": {"rt": -1000, "trial_type": "single-audio", "word": "marsh", "stimulus": "/static/audio/wordpool/MARSH.wav", "conditions": [24, 800, "a", 12000], "internal_node_id": "0.0-98.0", "trial": 3, "time_elapsed": 686064, "serialpos": 5, "key_press": -1, "wordID": 873, "type": "PRES_AUD", "trial_index": 134}, "uniqueid": "MTK2688:3I0BTBYZAYS1DZHXH6ADONEPKYFY0T", "dateTime": 1519237334023}, {"current_trial": 135, "trialdata": {"rt": -1000, "trial_type": "single-audio", "word": "stream", "stimulus": "/static/audio/wordpool/STREAM.wav", "conditions": [24, 800, "a", 12000], "internal_node_id": "0.0-99.0", "trial": 3, "time_elapsed": 687779, "serialpos": 6, "key_press": -1, "wordID": 1391, "type": "PRES_AUD", "trial_index": 135}, "uniqueid": "MTK2688:3I0BTBYZAYS1DZHXH6ADONEPKYFY0T", "dateTime": 1519237335738}, {"current_trial": 136, "trialdata": {"rt": -1000, "trial_type": "single-audio", "word": "cookbook", "stimulus": "/static/audio/wordpool/COOKBOOK.wav", "conditions": [24, 800, "a", 12000], "internal_node_id": "0.0-100.0", "trial": 3, "time_elapsed": 689459, "serialpos": 7, "key_press": -1, "wordID": 372, "type": "PRES_AUD", "trial_index": 136}, "uniqueid": "MTK2688:3I0BTBYZAYS1DZHXH6ADONEPKYFY0T", "dateTime": 1519237337417}, {"current_trial": 137, "trialdata": {"rt": -1000, "trial_type": "single-audio", "word": "plaid", "stimulus": "/static/audio/wordpool/PLAID.wav", "conditions": [24, 800, "a", 12000], "internal_node_id": "0.0-101.0", "trial": 3, "time_elapsed": 691428, "serialpos": 8, "key_press": -1, "wordID": 1079, "type": "PRES_AUD", "trial_index": 137}, "uniqueid": "MTK2688:3I0BTBYZAYS1DZHXH6ADONEPKYFY0T", "dateTime": 1519237339387}, {"current_trial": 138, "trialdata": {"rt": -1000, "trial_type": "single-audio", "word": "bunny", "stimulus": "/static/audio/wordpool/BUNNY.wav", "conditions": [24, 800, "a", 12000], "internal_node_id": "0.0-102.0", "trial": 3, "time_elapsed": 693265, "serialpos": 9, "key_press": -1, "wordID": 197, "type": "PRES_AUD", "trial_index": 138}, "uniqueid": "MTK2688:3I0BTBYZAYS1DZHXH6ADONEPKYFY0T", "dateTime": 1519237341223}, {"current_trial": 139, "trialdata": {"rt": -1000, "trial_type": "single-audio", "word": "plaster", "stimulus": "/static/audio/wordpool/PLASTER.wav", "conditions": [24, 800, "a", 12000], "internal_node_id": "0.0-103.0", "trial": 3, "time_elapsed": 695204, "serialpos": 10, "key_press": -1, "wordID": 1084, "type": "PRES_AUD", "trial_index": 139}, "uniqueid": "MTK2688:3I0BTBYZAYS1DZHXH6ADONEPKYFY0T", "dateTime": 1519237343162}, {"current_trial": 140, "trialdata": {"rt": -1000, "trial_type": "single-audio", "word": "chipmunk", "stimulus": "/static/audio/wordpool/CHIPMUNK.wav", "conditions": [24, 800, "a", 12000], "internal_node_id": "0.0-104.0", "trial": 3, "time_elapsed": 697123, "serialpos": 11, "key_press": -1, "wordID": 303, "type": "PRES_AUD", "trial_index": 140}, "uniqueid": "MTK2688:3I0BTBYZAYS1DZHXH6ADONEPKYFY0T", "dateTime": 1519237345081}, {"current_trial": 141, "trialdata": {"rt": -1000, "trial_type": "single-audio", "word": "cousin", "stimulus": "/static/audio/wordpool/COUSIN.wav", "conditions": [24, 800, "a", 12000], "internal_node_id": "0.0-105.0", "trial": 3, "time_elapsed": 698815, "serialpos": 12, "key_press": -1, "wordID": 391, "type": "PRES_AUD", "trial_index": 141}, "uniqueid": "MTK2688:3I0BTBYZAYS1DZHXH6ADONEPKYFY0T", "dateTime": 1519237346773}, {"current_trial": 142, "trialdata": {"rt": -1000, "trial_type": "single-audio", "word": "dentist", "stimulus": "/static/audio/wordpool/DENTIST.wav", "conditions": [24, 800, "a", 12000], "internal_node_id": "0.0-106.0", "trial": 3, "time_elapsed": 700739, "serialpos": 13, "key_press": -1, "wordID": 446, "type": "PRES_AUD", "trial_index": 142}, "uniqueid": "MTK2688:3I0BTBYZAYS1DZHXH6ADONEPKYFY0T", "dateTime": 1519237348698}, {"current_trial": 143, "trialdata": {"rt": -1000, "trial_type": "single-audio", "word": "hand", "stimulus": "/static/audio/wordpool/HAND.wav", "conditions": [24, 800, "a", 12000], "internal_node_id": "0.0-107.0", "trial": 3, "time_elapsed": 702524, "serialpos": 14, "key_press": -1, "wordID": 682, "type": "PRES_AUD", "trial_index": 143}, "uniqueid": "MTK2688:3I0BTBYZAYS1DZHXH6ADONEPKYFY0T", "dateTime": 1519237350482}, {"current_trial": 144, "trialdata": {"rt": -1000, "trial_type": "single-audio", "word": "custard", "stimulus": "/static/audio/wordpool/CUSTARD.wav", "conditions": [24, 800, "a", 12000], "internal_node_id": "0.0-108.0", "trial": 3, "time_elapsed": 704353, "serialpos": 15, "key_press": -1, "wordID": 428, "type": "PRES_AUD", "trial_index": 144}, "uniqueid": "MTK2688:3I0BTBYZAYS1DZHXH6ADONEPKYFY0T", "dateTime": 1519237352311}, {"current_trial": 145, "trialdata": {"rt": -1000, "trial_type": "single-audio", "word": "jelly", "stimulus": "/static/audio/wordpool/JELLY.wav", "conditions": [24, 800, "a", 12000], "internal_node_id": "0.0-109.0", "trial": 3, "time_elapsed": 706301, "serialpos": 16, "key_press": -1, "wordID": 754, "type": "PRES_AUD", "trial_index": 145}, "uniqueid": "MTK2688:3I0BTBYZAYS1DZHXH6ADONEPKYFY0T", "dateTime": 1519237354259}, {"current_trial": 146, "trialdata": {"rt": -1000, "trial_type": "single-audio", "word": "stove", "stimulus": "/static/audio/wordpool/STOVE.wav", "conditions": [24, 800, "a", 12000], "internal_node_id": "0.0-110.0", "trial": 3, "time_elapsed": 708123, "serialpos": 17, "key_press": -1, "wordID": 1387, "type": "PRES_AUD", "trial_index": 146}, "uniqueid": "MTK2688:3I0BTBYZAYS1DZHXH6ADONEPKYFY0T", "dateTime": 1519237356081}, {"current_trial": 147, "trialdata": {"rt": -1000, "trial_type": "single-audio", "word": "cottage", "stimulus": "/static/audio/wordpool/COTTAGE.wav", "conditions": [24, 800, "a", 12000], "internal_node_id": "0.0-111.0", "trial": 3, "time_elapsed": 709825, "serialpos": 18, "key_press": -1, "wordID": 383, "type": "PRES_AUD", "trial_index": 147}, "uniqueid": "MTK2688:3I0BTBYZAYS1DZHXH6ADONEPKYFY0T", "dateTime": 1519237357784}, {"current_trial": 148, "trialdata": {"rt": -1000, "trial_type": "single-audio", "word": "tart", "stimulus": "/static/audio/wordpool/TART.wav", "conditions": [24, 800, "a", 12000], "internal_node_id": "0.0-112.0", "trial": 3, "time_elapsed": 711596, "serialpos": 19, "key_press": -1, "wordID": 1435, "type": "PRES_AUD", "trial_index": 148}, "uniqueid": "MTK2688:3I0BTBYZAYS1DZHXH6ADONEPKYFY0T", "dateTime": 1519237359554}, {"current_trial": 149, "trialdata": {"rt": -1000, "trial_type": "single-audio", "word": "toaster", "stimulus": "/static/audio/wordpool/TOASTER.wav", "conditions": [24, 800, "a", 12000], "internal_node_id": "0.0-113.0", "trial": 3, "time_elapsed": 713502, "serialpos": 20, "key_press": -1, "wordID": 1471, "type": "PRES_AUD", "trial_index": 149}, "uniqueid": "MTK2688:3I0BTBYZAYS1DZHXH6ADONEPKYFY0T", "dateTime": 1519237361460}, {"current_trial": 150, "trialdata": {"rt": -1000, "trial_type": "single-audio", "word": "trench", "stimulus": "/static/audio/wordpool/TRENCH.wav", "conditions": [24, 800, "a", 12000], "internal_node_id": "0.0-114.0", "trial": 3, "time_elapsed": 715279, "serialpos": 21, "key_press": -1, "wordID": 1502, "type": "PRES_AUD", "trial_index": 150}, "uniqueid": "MTK2688:3I0BTBYZAYS1DZHXH6ADONEPKYFY0T", "dateTime": 1519237363237}, {"current_trial": 151, "trialdata": {"rt": -1000, "trial_type": "single-audio", "word": "laser", "stimulus": "/static/audio/wordpool/LASER.wav", "conditions": [24, 800, "a", 12000], "internal_node_id": "0.0-115.0", "trial": 3, "time_elapsed": 717014, "serialpos": 22, "key_press": -1, "wordID": 800, "type": "PRES_AUD", "trial_index": 151}, "uniqueid": "MTK2688:3I0BTBYZAYS1DZHXH6ADONEPKYFY0T", "dateTime": 1519237364972}, {"current_trial": 152, "trialdata": {"rt": -1000, "trial_type": "single-audio", "word": "swamp", "stimulus": "/static/audio/wordpool/SWAMP.wav", "conditions": [24, 800, "a", 12000], "internal_node_id": "0.0-116.0", "trial": 3, "time_elapsed": 718649, "serialpos": 23, "key_press": -1, "wordID": 1415, "type": "PRES_AUD", "trial_index": 152}, "uniqueid": "MTK2688:3I0BTBYZAYS1DZHXH6ADONEPKYFY0T", "dateTime": 1519237366607}, {"current_trial": 153, "trialdata": {"rt": -1, "trial_type": "single-stim", "stimulus": "", "internal_node_id": "0.0-117.0-0.0", "time_elapsed": 720061, "key_press": -1, "type": "PRE_RECALL_DELAY", "trial_index": 153}, "uniqueid": "MTK2688:3I0BTBYZAYS1DZHXH6ADONEPKYFY0T", "dateTime": 1519237368019}, {"current_trial": 154, "trialdata": {"rt": -1000, "trial_type": "single-audio", "stimulus": "/static/audio/400Hz.wav", "internal_node_id": "0.0-118.0", "time_elapsed": 720563, "key_press": -1, "type": "PRE_RECALL_ALERT", "trial_index": 154}, "uniqueid": "MTK2688:3I0BTBYZAYS1DZHXH6ADONEPKYFY0T", "dateTime": 1519237368522}, {"current_trial": 155, "trialdata": {"rt": [7214, 9387, 13965, 17191, 19838, 23602, 27742, 33223, 45938, 49947], "recwords": ["swamp", "tart", "toaster", "cousin", "trench", "stream", "marsh", "bunny", "victim", "lizard"], "key_times": [3540, 3781, 3976, 4213, 4685, 5307, 6365, 7214, 8383, 8567, 8884, 9001, 9387, 10067, 10190, 10396, 12676, 12932, 13181, 13357, 13549, 13615, 13965, 15744, 15955, 16162, 16492, 16613, 16888, 17191, 18280, 18500, 18655, 18901, 19080, 19283, 19838, 21300, 21521, 21739, 21897, 22105, 22708, 22986, 23307, 23602, 26394, 26531, 26711, 27075, 27315, 27742, 31377, 31874, 32249, 32400, 32664, 33223, 34856, 35078, 35208, 35426, 35610, 36098, 36311, 37067, 37294, 37509, 38831, 39113, 39786, 40034, 42572, 42801, 43665, 43975, 45938, 46688, 47222, 47748, 47951, 48190, 48422, 48621, 48870, 49947], "trial_type": "free-recall", "conditions": [24, 800, "a", 12000], "internal_node_id": "0.0-119.0-0.0", "key_presses": [83, 87, 65, 77, 48, 8, 80, 13, 84, 65, 82, 84, 13, 84, 79, 83, 8, 65, 83, 84, 69, 82, 13, 67, 79, 85, 83, 73, 78, 13, 84, 82, 69, 78, 67, 72, 13, 83, 84, 82, 69, 69, 8, 65, 77, 13, 77, 65, 82, 83, 72, 13, 66, 85, 78, 78, 89, 13, 86, 73, 67, 75, 84, 8, 8, 84, 69, 77, 8, 8, 79, 77, 8, 8, 73, 77, 13, 90, 8, 76, 73, 90, 65, 82, 68, 13], "trial": 3, "time_elapsed": 780571, "type": "FREE_RECALL", "trial_index": 155}, "uniqueid": "MTK2688:3I0BTBYZAYS1DZHXH6ADONEPKYFY0T", "dateTime": 1519237428535}, {"current_trial": 156, "trialdata": {"rt": 2981, "trial_type": "text", "internal_node_id": "0.0-120.0", "time_elapsed": 785559, "key_press": 70, "type": "INSTRUCTIONS", "trial_index": 156}, "uniqueid": "MTK2688:3I0BTBYZAYS1DZHXH6ADONEPKYFY0T", "dateTime": 1519237433518}, {"current_trial": 157, "trialdata": {"rt": [3766, 7020, 12005, 15822, 19508, 23335], "trial_type": "math-distractor", "key_times": [2761, 2948, 3766, 6386, 6641, 7020, 11322, 11491, 12005, 15058, 15314, 15822, 18381, 18637, 19508, 22640, 23025, 23335], "responses": ["14", "10", "14", "17", "17", "13"], "num2": [4, 3, 2, 6, 2, 9, 9], "num3": [3, 4, 5, 5, 5, 2, 5], "conditions": [24, 1600, "a", 24000], "internal_node_id": "0.0-121.0", "key_presses": [97, 100, 13, 97, 96, 13, 97, 100, 13, 97, 103, 13, 97, 103, 13, 97, 99, 13], "trial": 4, "time_elapsed": 811654, "type": "DISTRACTOR", "trial_index": 157, "num1": [7, 3, 7, 6, 5, 2, 7]}, "uniqueid": "MTK2688:3I0BTBYZAYS1DZHXH6ADONEPKYFY0T", "dateTime": 1519237459612}, {"current_trial": 158, "trialdata": {"rt": -1, "trial_type": "single-stim", "stimulus": "<p id=\"stim\">10</p>", "internal_node_id": "0.0-122.0-0.0", "time_elapsed": 814657, "key_press": -1, "trial_index": 158}, "uniqueid": "MTK2688:3I0BTBYZAYS1DZHXH6ADONEPKYFY0T", "dateTime": 1519237462616}, {"current_trial": 159, "trialdata": {"rt": -1, "trial_type": "single-stim", "stimulus": "<p id=\"stim\">9</p>", "internal_node_id": "0.0-122.0-1.0", "time_elapsed": 815702, "key_press": -1, "trial_index": 159}, "uniqueid": "MTK2688:3I0BTBYZAYS1DZHXH6ADONEPKYFY0T", "dateTime": 1519237463661}, {"current_trial": 160, "trialdata": {"rt": -1, "trial_type": "single-stim", "stimulus": "<p id=\"stim\">8</p>", "internal_node_id": "0.0-122.0-2.0", "time_elapsed": 816705, "key_press": -1, "trial_index": 160}, "uniqueid": "MTK2688:3I0BTBYZAYS1DZHXH6ADONEPKYFY0T", "dateTime": 1519237464663}, {"current_trial": 161, "trialdata": {"rt": -1, "trial_type": "single-stim", "stimulus": "<p id=\"stim\">7</p>", "internal_node_id": "0.0-122.0-3.0", "time_elapsed": 817707, "key_press": -1, "trial_index": 161}, "uniqueid": "MTK2688:3I0BTBYZAYS1DZHXH6ADONEPKYFY0T", "dateTime": 1519237465665}, {"current_trial": 162, "trialdata": {"rt": -1, "trial_type": "single-stim", "stimulus": "<p id=\"stim\">6</p>", "internal_node_id": "0.0-122.0-4.0", "time_elapsed": 818709, "key_press": -1, "trial_index": 162}, "uniqueid": "MTK2688:3I0BTBYZAYS1DZHXH6ADONEPKYFY0T", "dateTime": 1519237466668}, {"current_trial": 163, "trialdata": {"rt": -1, "trial_type": "single-stim", "stimulus": "<p id=\"stim\">5</p>", "internal_node_id": "0.0-122.0-5.0", "time_elapsed": 819712, "key_press": -1, "trial_index": 163}, "uniqueid": "MTK2688:3I0BTBYZAYS1DZHXH6ADONEPKYFY0T", "dateTime": 1519237467671}, {"current_trial": 164, "trialdata": {"rt": -1, "trial_type": "single-stim", "stimulus": "<p id=\"stim\">4</p>", "internal_node_id": "0.0-122.0-6.0", "time_elapsed": 820715, "key_press": -1, "trial_index": 164}, "uniqueid": "MTK2688:3I0BTBYZAYS1DZHXH6ADONEPKYFY0T", "dateTime": 1519237468673}, {"current_trial": 165, "trialdata": {"rt": -1, "trial_type": "single-stim", "stimulus": "<p id=\"stim\">3</p>", "internal_node_id": "0.0-122.0-7.0", "time_elapsed": 821791, "key_press": -1, "trial_index": 165}, "uniqueid": "MTK2688:3I0BTBYZAYS1DZHXH6ADONEPKYFY0T", "dateTime": 1519237469749}, {"current_trial": 166, "trialdata": {"rt": -1, "trial_type": "single-stim", "stimulus": "<p id=\"stim\">2</p>", "internal_node_id": "0.0-122.0-8.0", "time_elapsed": 822793, "key_press": -1, "trial_index": 166}, "uniqueid": "MTK2688:3I0BTBYZAYS1DZHXH6ADONEPKYFY0T", "dateTime": 1519237470751}, {"current_trial": 167, "trialdata": {"rt": -1, "trial_type": "single-stim", "stimulus": "<p id=\"stim\">1</p>", "internal_node_id": "0.0-122.0-9.0", "time_elapsed": 823795, "key_press": -1, "trial_index": 167}, "uniqueid": "MTK2688:3I0BTBYZAYS1DZHXH6ADONEPKYFY0T", "dateTime": 1519237471753}, {"current_trial": 168, "trialdata": {"rt": -1, "trial_type": "single-stim", "stimulus": "<p id=\"stim\">+</p>", "internal_node_id": "0.0-123.0-0.0", "time_elapsed": 825297, "key_press": -1, "type": "FIXATION", "trial_index": 168}, "uniqueid": "MTK2688:3I0BTBYZAYS1DZHXH6ADONEPKYFY0T", "dateTime": 1519237473256}, {"current_trial": 169, "trialdata": {"rt": -1000, "trial_type": "single-audio", "word": "possum", "stimulus": "/static/audio/wordpool/POSSUM.wav", "conditions": [24, 1600, "a", 24000], "internal_node_id": "0.0-124.0", "trial": 4, "time_elapsed": 827833, "serialpos": 0, "key_press": -1, "wordID": 1111, "type": "PRES_AUD", "trial_index": 169}, "uniqueid": "MTK2688:3I0BTBYZAYS1DZHXH6ADONEPKYFY0T", "dateTime": 1519237475792}, {"current_trial": 170, "trialdata": {"rt": -1000, "trial_type": "single-audio", "word": "costume", "stimulus": "/static/audio/wordpool/COSTUME.wav", "conditions": [24, 1600, "a", 24000], "internal_node_id": "0.0-125.0", "trial": 4, "time_elapsed": 830617, "serialpos": 1, "key_press": -1, "wordID": 382, "type": "PRES_AUD", "trial_index": 170}, "uniqueid": "MTK2688:3I0BTBYZAYS1DZHXH6ADONEPKYFY0T", "dateTime": 1519237478576}, {"current_trial": 171, "trialdata": {"rt": -1000, "trial_type": "single-audio", "word": "scalpel", "stimulus": "/static/audio/wordpool/SCALPEL.wav", "conditions": [24, 1600, "a", 24000], "internal_node_id": "0.0-126.0", "trial": 4, "time_elapsed": 833184, "serialpos": 2, "key_press": -1, "wordID": 1242, "type": "PRES_AUD", "trial_index": 171}, "uniqueid": "MTK2688:3I0BTBYZAYS1DZHXH6ADONEPKYFY0T", "dateTime": 1519237481143}, {"current_trial": 172, "trialdata": {"rt": -1000, "trial_type": "single-audio", "word": "helmet", "stimulus": "/static/audio/wordpool/HELMET.wav", "conditions": [24, 1600, "a", 24000], "internal_node_id": "0.0-127.0", "trial": 4, "time_elapsed": 835889, "serialpos": 3, "key_press": -1, "wordID": 701, "type": "PRES_AUD", "trial_index": 172}, "uniqueid": "MTK2688:3I0BTBYZAYS1DZHXH6ADONEPKYFY0T", "dateTime": 1519237483847}, {"current_trial": 173, "trialdata": {"rt": -1000, "trial_type": "single-audio", "word": "canal", "stimulus": "/static/audio/wordpool/CANAL.wav", "conditions": [24, 1600, "a", 24000], "internal_node_id": "0.0-128.0", "trial": 4, "time_elapsed": 838442, "serialpos": 4, "key_press": -1, "wordID": 225, "type": "PRES_AUD", "trial_index": 173}, "uniqueid": "MTK2688:3I0BTBYZAYS1DZHXH6ADONEPKYFY0T", "dateTime": 1519237486400}, {"current_trial": 174, "trialdata": {"rt": -1000, "trial_type": "single-audio", "word": "saddle", "stimulus": "/static/audio/wordpool/SADDLE.wav", "conditions": [24, 1600, "a", 24000], "internal_node_id": "0.0-129.0", "trial": 4, "time_elapsed": 841233, "serialpos": 5, "key_press": -1, "wordID": 1220, "type": "PRES_AUD", "trial_index": 174}, "uniqueid": "MTK2688:3I0BTBYZAYS1DZHXH6ADONEPKYFY0T", "dateTime": 1519237489191}, {"current_trial": 175, "trialdata": {"rt": -1000, "trial_type": "single-audio", "word": "foot", "stimulus": "/static/audio/wordpool/FOOT.wav", "conditions": [24, 1600, "a", 24000], "internal_node_id": "0.0-130.0", "trial": 4, "time_elapsed": 844028, "serialpos": 6, "key_press": -1, "wordID": 589, "type": "PRES_AUD", "trial_index": 175}, "uniqueid": "MTK2688:3I0BTBYZAYS1DZHXH6ADONEPKYFY0T", "dateTime": 1519237491986}, {"current_trial": 176, "trialdata": {"rt": -1000, "trial_type": "single-audio", "word": "sandwich", "stimulus": "/static/audio/wordpool/SANDWICH.wav", "conditions": [24, 1600, "a", 24000], "internal_node_id": "0.0-131.0", "trial": 4, "time_elapsed": 846727, "serialpos": 7, "key_press": -1, "wordID": 1231, "type": "PRES_AUD", "trial_index": 176}, "uniqueid": "MTK2688:3I0BTBYZAYS1DZHXH6ADONEPKYFY0T", "dateTime": 1519237494686}, {"current_trial": 177, "trialdata": {"rt": -1000, "trial_type": "single-audio", "word": "pizza", "stimulus": "/static/audio/wordpool/PIZZA.wav", "conditions": [24, 1600, "a", 24000], "internal_node_id": "0.0-132.0", "trial": 4, "time_elapsed": 849215, "serialpos": 8, "key_press": -1, "wordID": 1078, "type": "PRES_AUD", "trial_index": 177}, "uniqueid": "MTK2688:3I0BTBYZAYS1DZHXH6ADONEPKYFY0T", "dateTime": 1519237497173}, {"current_trial": 178, "trialdata": {"rt": -1000, "trial_type": "single-audio", "word": "guitar", "stimulus": "/static/audio/wordpool/GUITAR.wav", "conditions": [24, 1600, "a", 24000], "internal_node_id": "0.0-133.0", "trial": 4, "time_elapsed": 852004, "serialpos": 9, "key_press": -1, "wordID": 669, "type": "PRES_AUD", "trial_index": 178}, "uniqueid": "MTK2688:3I0BTBYZAYS1DZHXH6ADONEPKYFY0T", "dateTime": 1519237499962}, {"current_trial": 179, "trialdata": {"rt": -1000, "trial_type": "single-audio", "word": "river", "stimulus": "/static/audio/wordpool/RIVER.wav", "conditions": [24, 1600, "a", 24000], "internal_node_id": "0.0-134.0", "trial": 4, "time_elapsed": 854485, "serialpos": 10, "key_press": -1, "wordID": 1193, "type": "PRES_AUD", "trial_index": 179}, "uniqueid": "MTK2688:3I0BTBYZAYS1DZHXH6ADONEPKYFY0T", "dateTime": 1519237502444}, {"current_trial": 180, "trialdata": {"rt": -1000, "trial_type": "single-audio", "word": "shirt", "stimulus": "/static/audio/wordpool/SHIRT.wav", "conditions": [24, 1600, "a", 24000], "internal_node_id": "0.0-135.0", "trial": 4, "time_elapsed": 857129, "serialpos": 11, "key_press": -1, "wordID": 1286, "type": "PRES_AUD", "trial_index": 180}, "uniqueid": "MTK2688:3I0BTBYZAYS1DZHXH6ADONEPKYFY0T", "dateTime": 1519237505088}, {"current_trial": 181, "trialdata": {"rt": -1000, "trial_type": "single-audio", "word": "permit", "stimulus": "/static/audio/wordpool/PERMIT.wav", "conditions": [24, 1600, "a", 24000], "internal_node_id": "0.0-136.0", "trial": 4, "time_elapsed": 859891, "serialpos": 12, "key_press": -1, "wordID": 1050, "type": "PRES_AUD", "trial_index": 181}, "uniqueid": "MTK2688:3I0BTBYZAYS1DZHXH6ADONEPKYFY0T", "dateTime": 1519237507849}, {"current_trial": 182, "trialdata": {"rt": -1000, "trial_type": "single-audio", "word": "dashboard", "stimulus": "/static/audio/wordpool/DASHBOARD.wav", "conditions": [24, 1600, "a", 24000], "internal_node_id": "0.0-137.0", "trial": 4, "time_elapsed": 862451, "serialpos": 13, "key_press": -1, "wordID": 440, "type": "PRES_AUD", "trial_index": 182}, "uniqueid": "MTK2688:3I0BTBYZAYS1DZHXH6ADONEPKYFY0T", "dateTime": 1519237510409}, {"current_trial": 183, "trialdata": {"rt": -1000, "trial_type": "single-audio", "word": "wagon", "stimulus": "/static/audio/wordpool/WAGON.wav", "conditions": [24, 1600, "a", 24000], "internal_node_id": "0.0-138.0", "trial": 4, "time_elapsed": 865022, "serialpos": 14, "key_press": -1, "wordID": 1577, "type": "PRES_AUD", "trial_index": 183}, "uniqueid": "MTK2688:3I0BTBYZAYS1DZHXH6ADONEPKYFY0T", "dateTime": 1519237512980}, {"current_trial": 184, "trialdata": {"rt": -1000, "trial_type": "single-audio", "word": "robin", "stimulus": "/static/audio/wordpool/ROBIN.wav", "conditions": [24, 1600, "a", 24000], "internal_node_id": "0.0-139.0", "trial": 4, "time_elapsed": 867663, "serialpos": 15, "key_press": -1, "wordID": 1198, "type": "PRES_AUD", "trial_index": 184}, "uniqueid": "MTK2688:3I0BTBYZAYS1DZHXH6ADONEPKYFY0T", "dateTime": 1519237515622}, {"current_trial": 185, "trialdata": {"rt": -1000, "trial_type": "single-audio", "word": "quail", "stimulus": "/static/audio/wordpool/QUAIL.wav", "conditions": [24, 1600, "a", 24000], "internal_node_id": "0.0-140.0", "trial": 4, "time_elapsed": 870126, "serialpos": 16, "key_press": -1, "wordID": 1146, "type": "PRES_AUD", "trial_index": 185}, "uniqueid": "MTK2688:3I0BTBYZAYS1DZHXH6ADONEPKYFY0T", "dateTime": 1519237518085}, {"current_trial": 186, "trialdata": {"rt": -1000, "trial_type": "single-audio", "word": "rocket", "stimulus": "/static/audio/wordpool/ROCKET.wav", "conditions": [24, 1600, "a", 24000], "internal_node_id": "0.0-141.0", "trial": 4, "time_elapsed": 872577, "serialpos": 17, "key_press": -1, "wordID": 1201, "type": "PRES_AUD", "trial_index": 186}, "uniqueid": "MTK2688:3I0BTBYZAYS1DZHXH6ADONEPKYFY0T", "dateTime": 1519237520535}, {"current_trial": 187, "trialdata": {"rt": -1000, "trial_type": "single-audio", "word": "missile", "stimulus": "/static/audio/wordpool/MISSILE.wav", "conditions": [24, 1600, "a", 24000], "internal_node_id": "0.0-142.0", "trial": 4, "time_elapsed": 875373, "serialpos": 18, "key_press": -1, "wordID": 899, "type": "PRES_AUD", "trial_index": 187}, "uniqueid": "MTK2688:3I0BTBYZAYS1DZHXH6ADONEPKYFY0T", "dateTime": 1519237523331}, {"current_trial": 188, "trialdata": {"rt": -1000, "trial_type": "single-audio", "word": "truck", "stimulus": "/static/audio/wordpool/TRUCK.wav", "conditions": [24, 1600, "a", 24000], "internal_node_id": "0.0-143.0", "trial": 4, "time_elapsed": 878117, "serialpos": 19, "key_press": -1, "wordID": 1511, "type": "PRES_AUD", "trial_index": 188}, "uniqueid": "MTK2688:3I0BTBYZAYS1DZHXH6ADONEPKYFY0T", "dateTime": 1519237526077}, {"current_trial": 189, "trialdata": {"rt": -1000, "trial_type": "single-audio", "word": "spider", "stimulus": "/static/audio/wordpool/SPIDER.wav", "conditions": [24, 1600, "a", 24000], "internal_node_id": "0.0-144.0", "trial": 4, "time_elapsed": 880757, "serialpos": 20, "key_press": -1, "wordID": 1350, "type": "PRES_AUD", "trial_index": 189}, "uniqueid": "MTK2688:3I0BTBYZAYS1DZHXH6ADONEPKYFY0T", "dateTime": 1519237528716}, {"current_trial": 190, "trialdata": {"rt": -1000, "trial_type": "single-audio", "word": "branch", "stimulus": "/static/audio/wordpool/BRANCH.wav", "conditions": [24, 1600, "a", 24000], "internal_node_id": "0.0-145.0", "trial": 4, "time_elapsed": 883504, "serialpos": 21, "key_press": -1, "wordID": 167, "type": "PRES_AUD", "trial_index": 190}, "uniqueid": "MTK2688:3I0BTBYZAYS1DZHXH6ADONEPKYFY0T", "dateTime": 1519237531463}, {"current_trial": 191, "trialdata": {"rt": -1000, "trial_type": "single-audio", "word": "dresser", "stimulus": "/static/audio/wordpool/DRESSER.wav", "conditions": [24, 1600, "a", 24000], "internal_node_id": "0.0-146.0", "trial": 4, "time_elapsed": 886080, "serialpos": 22, "key_press": -1, "wordID": 495, "type": "PRES_AUD", "trial_index": 191}, "uniqueid": "MTK2688:3I0BTBYZAYS1DZHXH6ADONEPKYFY0T", "dateTime": 1519237534039}, {"current_trial": 192, "trialdata": {"rt": -1000, "trial_type": "single-audio", "word": "server", "stimulus": "/static/audio/wordpool/SERVER.wav", "conditions": [24, 1600, "a", 24000], "internal_node_id": "0.0-147.0", "trial": 4, "time_elapsed": 888578, "serialpos": 23, "key_press": -1, "wordID": 1271, "type": "PRES_AUD", "trial_index": 192}, "uniqueid": "MTK2688:3I0BTBYZAYS1DZHXH6ADONEPKYFY0T", "dateTime": 1519237536537}, {"current_trial": 193, "trialdata": {"rt": -1, "trial_type": "single-stim", "stimulus": "", "internal_node_id": "0.0-148.0-0.0", "time_elapsed": 889842, "key_press": -1, "type": "PRE_RECALL_DELAY", "trial_index": 193}, "uniqueid": "MTK2688:3I0BTBYZAYS1DZHXH6ADONEPKYFY0T", "dateTime": 1519237537801}, {"current_trial": 194, "trialdata": {"rt": -1000, "trial_type": "single-audio", "stimulus": "/static/audio/400Hz.wav", "internal_node_id": "0.0-149.0", "time_elapsed": 890351, "key_press": -1, "type": "PRE_RECALL_ALERT", "trial_index": 194}, "uniqueid": "MTK2688:3I0BTBYZAYS1DZHXH6ADONEPKYFY0T", "dateTime": 1519237538310}, {"current_trial": 195, "trialdata": {"rt": [5438, 7429, 9281, 13333, 16157, 19692, 22095, 27352, 32030], "recwords": ["saddle", "foot", "river", "dashboard", "quail", "possom", "costume", "canal", "foot"], "key_times": [3738, 3954, 4333, 4477, 4705, 4837, 5438, 6614, 6902, 7050, 7228, 7429, 8048, 8201, 8341, 8607, 8683, 9281, 10840, 11012, 11191, 11415, 11876, 12086, 12187, 12368, 12691, 13333, 13944, 14178, 14503, 15226, 15511, 16157, 17335, 17544, 17821, 17987, 18356, 18859, 19692, 20478, 20668, 20819, 21074, 21264, 21650, 21790, 22095, 25660, 25843, 26094, 26269, 26591, 27352, 28120, 28415, 28575, 28703, 32030], "trial_type": "free-recall", "conditions": [24, 1600, "a", 24000], "internal_node_id": "0.0-150.0-0.0", "key_presses": [83, 65, 68, 68, 76, 69, 13, 70, 79, 79, 84, 13, 82, 73, 86, 69, 82, 13, 68, 65, 83, 72, 66, 79, 65, 82, 68, 13, 81, 85, 65, 73, 76, 13, 80, 79, 83, 83, 79, 77, 13, 67, 79, 83, 84, 85, 77, 69, 13, 67, 65, 78, 65, 76, 13, 70, 79, 79, 84, 13], "trial": 4, "time_elapsed": 950357, "type": "FREE_RECALL", "trial_index": 195}, "uniqueid": "MTK2688:3I0BTBYZAYS1DZHXH6ADONEPKYFY0T", "dateTime": 1519237598323}, {"current_trial": 196, "trialdata": {"rt": 1939, "trial_type": "text", "internal_node_id": "0.0-151.0", "time_elapsed": 954306, "key_press": 75, "type": "INSTRUCTIONS", "trial_index": 196}, "uniqueid": "MTK2688:3I0BTBYZAYS1DZHXH6ADONEPKYFY0T", "dateTime": 1519237602265}, {"current_trial": 197, "trialdata": {"rt": [6461, 11809, 14362, 18551, 21620], "trial_type": "math-distractor", "key_times": [5041, 5393, 6461, 10973, 11225, 11809, 13723, 14362, 17788, 17990, 18551, 20688, 20986, 21620, 23837], "responses": ["13", "14", "8", "14", "18"], "num2": [2, 3, 3, 7, 8, 2], "num3": [5, 5, 4, 7, 9, 5], "conditions": [12, 1600, "a", 24000], "internal_node_id": "0.0-152.0", "key_presses": [97, 99, 13, 97, 100, 13, 104, 13, 97, 100, 13, 97, 104, 13, 97], "trial": 5, "time_elapsed": 980372, "type": "DISTRACTOR", "trial_index": 197, "num1": [5, 6, 1, 2, 1, 5]}, "uniqueid": "MTK2688:3I0BTBYZAYS1DZHXH6ADONEPKYFY0T", "dateTime": 1519237628330}, {"current_trial": 198, "trialdata": {"rt": -1, "trial_type": "single-stim", "stimulus": "<p id=\"stim\">10</p>", "internal_node_id": "0.0-153.0-0.0", "time_elapsed": 983520, "key_press": -1, "trial_index": 198}, "uniqueid": "MTK2688:3I0BTBYZAYS1DZHXH6ADONEPKYFY0T", "dateTime": 1519237631478}, {"current_trial": 199, "trialdata": {"rt": -1, "trial_type": "single-stim", "stimulus": "<p id=\"stim\">9</p>", "internal_node_id": "0.0-153.0-1.0", "time_elapsed": 984522, "key_press": -1, "trial_index": 199}, "uniqueid": "MTK2688:3I0BTBYZAYS1DZHXH6ADONEPKYFY0T", "dateTime": 1519237632481}, {"current_trial": 200, "trialdata": {"rt": -1, "trial_type": "single-stim", "stimulus": "<p id=\"stim\">8</p>", "internal_node_id": "0.0-153.0-2.0", "time_elapsed": 985524, "key_press": -1, "trial_index": 200}, "uniqueid": "MTK2688:3I0BTBYZAYS1DZHXH6ADONEPKYFY0T", "dateTime": 1519237633484}, {"current_trial": 201, "trialdata": {"rt": -1, "trial_type": "single-stim", "stimulus": "<p id=\"stim\">7</p>", "internal_node_id": "0.0-153.0-3.0", "time_elapsed": 986529, "key_press": -1, "trial_index": 201}, "uniqueid": "MTK2688:3I0BTBYZAYS1DZHXH6ADONEPKYFY0T", "dateTime": 1519237634487}, {"current_trial": 202, "trialdata": {"rt": -1, "trial_type": "single-stim", "stimulus": "<p id=\"stim\">6</p>", "internal_node_id": "0.0-153.0-4.0", "time_elapsed": 987531, "key_press": -1, "trial_index": 202}, "uniqueid": "MTK2688:3I0BTBYZAYS1DZHXH6ADONEPKYFY0T", "dateTime": 1519237635489}, {"current_trial": 203, "trialdata": {"rt": -1, "trial_type": "single-stim", "stimulus": "<p id=\"stim\">5</p>", "internal_node_id": "0.0-153.0-5.0", "time_elapsed": 988532, "key_press": -1, "trial_index": 203}, "uniqueid": "MTK2688:3I0BTBYZAYS1DZHXH6ADONEPKYFY0T", "dateTime": 1519237636491}, {"current_trial": 204, "trialdata": {"rt": -1, "trial_type": "single-stim", "stimulus": "<p id=\"stim\">4</p>", "internal_node_id": "0.0-153.0-6.0", "time_elapsed": 989534, "key_press": -1, "trial_index": 204}, "uniqueid": "MTK2688:3I0BTBYZAYS1DZHXH6ADONEPKYFY0T", "dateTime": 1519237637493}, {"current_trial": 205, "trialdata": {"rt": -1, "trial_type": "single-stim", "stimulus": "<p id=\"stim\">3</p>", "internal_node_id": "0.0-153.0-7.0", "time_elapsed": 990582, "key_press": -1, "trial_index": 205}, "uniqueid": "MTK2688:3I0BTBYZAYS1DZHXH6ADONEPKYFY0T", "dateTime": 1519237638540}, {"current_trial": 206, "trialdata": {"rt": -1, "trial_type": "single-stim", "stimulus": "<p id=\"stim\">2</p>", "internal_node_id": "0.0-153.0-8.0", "time_elapsed": 991584, "key_press": -1, "trial_index": 206}, "uniqueid": "MTK2688:3I0BTBYZAYS1DZHXH6ADONEPKYFY0T", "dateTime": 1519237639543}, {"current_trial": 207, "trialdata": {"rt": -1, "trial_type": "single-stim", "stimulus": "<p id=\"stim\">1</p>", "internal_node_id": "0.0-153.0-9.0", "time_elapsed": 992587, "key_press": -1, "trial_index": 207}, "uniqueid": "MTK2688:3I0BTBYZAYS1DZHXH6ADONEPKYFY0T", "dateTime": 1519237640550}, {"current_trial": 208, "trialdata": {"rt": -1, "trial_type": "single-stim", "stimulus": "<p id=\"stim\">+</p>", "internal_node_id": "0.0-154.0-0.0", "time_elapsed": 994094, "key_press": -1, "type": "FIXATION", "trial_index": 208}, "uniqueid": "MTK2688:3I0BTBYZAYS1DZHXH6ADONEPKYFY0T", "dateTime": 1519237642052}, {"current_trial": 209, "trialdata": {"rt": -1000, "trial_type": "single-audio", "word": "goblin", "stimulus": "/static/audio/wordpool/GOBLIN.wav", "conditions": [12, 1600, "a", 24000], "internal_node_id": "0.0-155.0", "trial": 5, "time_elapsed": 996728, "serialpos": 0, "key_press": -1, "wordID": 644, "type": "PRES_AUD", "trial_index": 209}, "uniqueid": "MTK2688:3I0BTBYZAYS1DZHXH6ADONEPKYFY0T", "dateTime": 1519237644686}, {"current_trial": 210, "trialdata": {"rt": -1000, "trial_type": "single-audio", "word": "mildew", "stimulus": "/static/audio/wordpool/MILDEW.wav", "conditions": [12, 1600, "a", 24000], "internal_node_id": "0.0-156.0", "trial": 5, "time_elapsed": 999358, "serialpos": 1, "key_press": -1, "wordID": 892, "type": "PRES_AUD", "trial_index": 210}, "uniqueid": "MTK2688:3I0BTBYZAYS1DZHXH6ADONEPKYFY0T", "dateTime": 1519237647317}, {"current_trial": 211, "trialdata": {"rt": -1000, "trial_type": "single-audio", "word": "pigeon", "stimulus": "/static/audio/wordpool/PIGEON.wav", "conditions": [12, 1600, "a", 24000], "internal_node_id": "0.0-157.0", "trial": 5, "time_elapsed": 1001879, "serialpos": 2, "key_press": -1, "wordID": 1064, "type": "PRES_AUD", "trial_index": 211}, "uniqueid": "MTK2688:3I0BTBYZAYS1DZHXH6ADONEPKYFY0T", "dateTime": 1519237649838}, {"current_trial": 212, "trialdata": {"rt": -1000, "trial_type": "single-audio", "word": "france", "stimulus": "/static/audio/wordpool/FRANCE.wav", "conditions": [12, 1600, "a", 24000], "internal_node_id": "0.0-158.0", "trial": 5, "time_elapsed": 1004322, "serialpos": 3, "key_press": -1, "wordID": 600, "type": "PRES_AUD", "trial_index": 212}, "uniqueid": "MTK2688:3I0BTBYZAYS1DZHXH6ADONEPKYFY0T", "dateTime": 1519237652281}, {"current_trial": 213, "trialdata": {"rt": -1000, "trial_type": "single-audio", "word": "dress", "stimulus": "/static/audio/wordpool/DRESS.wav", "conditions": [12, 1600, "a", 24000], "internal_node_id": "0.0-159.0", "trial": 5, "time_elapsed": 1007109, "serialpos": 4, "key_press": -1, "wordID": 494, "type": "PRES_AUD", "trial_index": 213}, "uniqueid": "MTK2688:3I0BTBYZAYS1DZHXH6ADONEPKYFY0T", "dateTime": 1519237655068}, {"current_trial": 214, "trialdata": {"rt": -1000, "trial_type": "single-audio", "word": "mammal", "stimulus": "/static/audio/wordpool/MAMMAL.wav", "conditions": [12, 1600, "a", 24000], "internal_node_id": "0.0-160.0", "trial": 5, "time_elapsed": 1009749, "serialpos": 5, "key_press": -1, "wordID": 860, "type": "PRES_AUD", "trial_index": 214}, "uniqueid": "MTK2688:3I0BTBYZAYS1DZHXH6ADONEPKYFY0T", "dateTime": 1519237657707}, {"current_trial": 215, "trialdata": {"rt": -1000, "trial_type": "single-audio", "word": "report", "stimulus": "/static/audio/wordpool/REPORT.wav", "conditions": [12, 1600, "a", 24000], "internal_node_id": "0.0-161.0", "trial": 5, "time_elapsed": 1012172, "serialpos": 6, "key_press": -1, "wordID": 1183, "type": "PRES_AUD", "trial_index": 215}, "uniqueid": "MTK2688:3I0BTBYZAYS1DZHXH6ADONEPKYFY0T", "dateTime": 1519237660131}, {"current_trial": 216, "trialdata": {"rt": -1000, "trial_type": "single-audio", "word": "survey", "stimulus": "/static/audio/wordpool/SURVEY.wav", "conditions": [12, 1600, "a", 24000], "internal_node_id": "0.0-162.0", "trial": 5, "time_elapsed": 1014686, "serialpos": 7, "key_press": -1, "wordID": 1413, "type": "PRES_AUD", "trial_index": 216}, "uniqueid": "MTK2688:3I0BTBYZAYS1DZHXH6ADONEPKYFY0T", "dateTime": 1519237662645}, {"current_trial": 217, "trialdata": {"rt": -1000, "trial_type": "single-audio", "word": "grape", "stimulus": "/static/audio/wordpool/GRAPE.wav", "conditions": [12, 1600, "a", 24000], "internal_node_id": "0.0-163.0", "trial": 5, "time_elapsed": 1017098, "serialpos": 8, "key_press": -1, "wordID": 653, "type": "PRES_AUD", "trial_index": 217}, "uniqueid": "MTK2688:3I0BTBYZAYS1DZHXH6ADONEPKYFY0T", "dateTime": 1519237665057}, {"current_trial": 218, "trialdata": {"rt": -1000, "trial_type": "single-audio", "word": "liver", "stimulus": "/static/audio/wordpool/LIVER.wav", "conditions": [12, 1600, "a", 24000], "internal_node_id": "0.0-164.0", "trial": 5, "time_elapsed": 1019955, "serialpos": 9, "key_press": -1, "wordID": 832, "type": "PRES_AUD", "trial_index": 218}, "uniqueid": "MTK2688:3I0BTBYZAYS1DZHXH6ADONEPKYFY0T", "dateTime": 1519237667913}, {"current_trial": 219, "trialdata": {"rt": -1000, "trial_type": "single-audio", "word": "scarf", "stimulus": "/static/audio/wordpool/SCARF.wav", "conditions": [12, 1600, "a", 24000], "internal_node_id": "0.0-165.0", "trial": 5, "time_elapsed": 1022755, "serialpos": 10, "key_press": -1, "wordID": 1245, "type": "PRES_AUD", "trial_index": 219}, "uniqueid": "MTK2688:3I0BTBYZAYS1DZHXH6ADONEPKYFY0T", "dateTime": 1519237670713}, {"current_trial": 220, "trialdata": {"rt": -1000, "trial_type": "single-audio", "word": "basement", "stimulus": "/static/audio/wordpool/BASEMENT.wav", "conditions": [12, 1600, "a", 24000], "internal_node_id": "0.0-166.0", "trial": 5, "time_elapsed": 1025501, "serialpos": 11, "key_press": -1, "wordID": 93, "type": "PRES_AUD", "trial_index": 220}, "uniqueid": "MTK2688:3I0BTBYZAYS1DZHXH6ADONEPKYFY0T", "dateTime": 1519237673459}, {"current_trial": 221, "trialdata": {"rt": -1, "trial_type": "single-stim", "stimulus": "", "internal_node_id": "0.0-167.0-0.0", "time_elapsed": 1026857, "key_press": -1, "type": "PRE_RECALL_DELAY", "trial_index": 221}, "uniqueid": "MTK2688:3I0BTBYZAYS1DZHXH6ADONEPKYFY0T", "dateTime": 1519237674815}, {"current_trial": 222, "trialdata": {"rt": -1000, "trial_type": "single-audio", "stimulus": "/static/audio/400Hz.wav", "internal_node_id": "0.0-168.0", "time_elapsed": 1027360, "key_press": -1, "type": "PRE_RECALL_ALERT", "trial_index": 222}, "uniqueid": "MTK2688:3I0BTBYZAYS1DZHXH6ADONEPKYFY0T", "dateTime": 1519237675318}, {"current_trial": 223, "trialdata": {"rt": [4894, 6812, 10583, 14617, 16980, 20012, 23817], "recwords": ["basement", "scarf", "survey", "fence", "mammal", "goblin", "mildew"], "key_times": [2772, 2925, 3107, 3577, 3893, 3991, 4153, 4263, 4894, 5332, 5567, 5728, 5940, 6186, 6812, 8880, 9359, 9613, 9905, 10089, 10323, 10583, 13175, 13721, 13925, 14099, 14289, 14617, 15565, 15684, 15924, 16124, 16317, 16654, 16980, 18057, 18277, 18541, 18772, 18972, 19456, 20012, 20706, 20895, 21069, 21285, 21562, 21774, 23817], "trial_type": "free-recall", "conditions": [12, 1600, "a", 24000], "internal_node_id": "0.0-169.0-0.0", "key_presses": [66, 65, 83, 69, 77, 69, 78, 84, 13, 83, 67, 65, 82, 70, 13, 83, 85, 82, 86, 69, 89, 13, 70, 69, 78, 67, 69, 13, 77, 65, 77, 77, 65, 76, 13, 71, 79, 66, 76, 73, 78, 13, 77, 73, 76, 68, 69, 87, 13], "trial": 5, "time_elapsed": 1087449, "type": "FREE_RECALL", "trial_index": 223}, "uniqueid": "MTK2688:3I0BTBYZAYS1DZHXH6ADONEPKYFY0T", "dateTime": 1519237735410}, {"current_trial": 224, "trialdata": {"rt": 1929, "trial_type": "text", "internal_node_id": "0.0-170.0", "time_elapsed": 1091384, "key_press": 83, "type": "INSTRUCTIONS", "trial_index": 224}, "uniqueid": "MTK2688:3I0BTBYZAYS1DZHXH6ADONEPKYFY0T", "dateTime": 1519237739342}, {"current_trial": 225, "trialdata": {"rt": [4297, 8206], "trial_type": "math-distractor", "key_times": [3489, 3830, 4297, 7591, 7849, 8206], "responses": ["13", "20"], "num2": [6, 9, 5], "num3": [4, 9, 1], "conditions": [12, 1600, "a", 12000], "internal_node_id": "0.0-171.0", "key_presses": [97, 99, 13, 98, 96, 13], "trial": 6, "time_elapsed": 1105389, "type": "DISTRACTOR", "trial_index": 225, "num1": [3, 2, 8]}, "uniqueid": "MTK2688:3I0BTBYZAYS1DZHXH6ADONEPKYFY0T", "dateTime": 1519237753348}, {"current_trial": 226, "trialdata": {"rt": -1, "trial_type": "single-stim", "stimulus": "<p id=\"stim\">10</p>", "internal_node_id": "0.0-172.0-0.0", "time_elapsed": 1108393, "key_press": -1, "trial_index": 226}, "uniqueid": "MTK2688:3I0BTBYZAYS1DZHXH6ADONEPKYFY0T", "dateTime": 1519237756351}, {"current_trial": 227, "trialdata": {"rt": -1, "trial_type": "single-stim", "stimulus": "<p id=\"stim\">9</p>", "internal_node_id": "0.0-172.0-1.0", "time_elapsed": 1109396, "key_press": -1, "trial_index": 227}, "uniqueid": "MTK2688:3I0BTBYZAYS1DZHXH6ADONEPKYFY0T", "dateTime": 1519237757354}, {"current_trial": 228, "trialdata": {"rt": -1, "trial_type": "single-stim", "stimulus": "<p id=\"stim\">8</p>", "internal_node_id": "0.0-172.0-2.0", "time_elapsed": 1110398, "key_press": -1, "trial_index": 228}, "uniqueid": "MTK2688:3I0BTBYZAYS1DZHXH6ADONEPKYFY0T", "dateTime": 1519237758357}, {"current_trial": 229, "trialdata": {"rt": -1, "trial_type": "single-stim", "stimulus": "<p id=\"stim\">7</p>", "internal_node_id": "0.0-172.0-3.0", "time_elapsed": 1111402, "key_press": -1, "trial_index": 229}, "uniqueid": "MTK2688:3I0BTBYZAYS1DZHXH6ADONEPKYFY0T", "dateTime": 1519237759360}, {"current_trial": 230, "trialdata": {"rt": -1, "trial_type": "single-stim", "stimulus": "<p id=\"stim\">6</p>", "internal_node_id": "0.0-172.0-4.0", "time_elapsed": 1112403, "key_press": -1, "trial_index": 230}, "uniqueid": "MTK2688:3I0BTBYZAYS1DZHXH6ADONEPKYFY0T", "dateTime": 1519237760362}, {"current_trial": 231, "trialdata": {"rt": -1, "trial_type": "single-stim", "stimulus": "<p id=\"stim\">5</p>", "internal_node_id": "0.0-172.0-5.0", "time_elapsed": 1113406, "key_press": -1, "trial_index": 231}, "uniqueid": "MTK2688:3I0BTBYZAYS1DZHXH6ADONEPKYFY0T", "dateTime": 1519237761365}, {"current_trial": 232, "trialdata": {"rt": -1, "trial_type": "single-stim", "stimulus": "<p id=\"stim\">4</p>", "internal_node_id": "0.0-172.0-6.0", "time_elapsed": 1114409, "key_press": -1, "trial_index": 232}, "uniqueid": "MTK2688:3I0BTBYZAYS1DZHXH6ADONEPKYFY0T", "dateTime": 1519237762367}, {"current_trial": 233, "trialdata": {"rt": -1, "trial_type": "single-stim", "stimulus": "<p id=\"stim\">3</p>", "internal_node_id": "0.0-172.0-7.0", "time_elapsed": 1115411, "key_press": -1, "trial_index": 233}, "uniqueid": "MTK2688:3I0BTBYZAYS1DZHXH6ADONEPKYFY0T", "dateTime": 1519237763369}, {"current_trial": 234, "trialdata": {"rt": -1, "trial_type": "single-stim", "stimulus": "<p id=\"stim\">2</p>", "internal_node_id": "0.0-172.0-8.0", "time_elapsed": 1116414, "key_press": -1, "trial_index": 234}, "uniqueid": "MTK2688:3I0BTBYZAYS1DZHXH6ADONEPKYFY0T", "dateTime": 1519237764372}, {"current_trial": 235, "trialdata": {"rt": -1, "trial_type": "single-stim", "stimulus": "<p id=\"stim\">1</p>", "internal_node_id": "0.0-172.0-9.0", "time_elapsed": 1117416, "key_press": -1, "trial_index": 235}, "uniqueid": "MTK2688:3I0BTBYZAYS1DZHXH6ADONEPKYFY0T", "dateTime": 1519237765374}, {"current_trial": 236, "trialdata": {"rt": -1, "trial_type": "single-stim", "stimulus": "<p id=\"stim\">+</p>", "internal_node_id": "0.0-173.0-0.0", "time_elapsed": 1118920, "key_press": -1, "type": "FIXATION", "trial_index": 236}, "uniqueid": "MTK2688:3I0BTBYZAYS1DZHXH6ADONEPKYFY0T", "dateTime": 1519237766878}, {"current_trial": 237, "trialdata": {"rt": -1000, "trial_type": "single-audio", "word": "omelet", "stimulus": "/static/audio/wordpool/OMELET.wav", "conditions": [12, 1600, "a", 12000], "internal_node_id": "0.0-174.0", "trial": 6, "time_elapsed": 1121524, "serialpos": 0, "key_press": -1, "wordID": 975, "type": "PRES_AUD", "trial_index": 237}, "uniqueid": "MTK2688:3I0BTBYZAYS1DZHXH6ADONEPKYFY0T", "dateTime": 1519237769482}, {"current_trial": 238, "trialdata": {"rt": -1000, "trial_type": "single-audio", "word": "portrait", "stimulus": "/static/audio/wordpool/PORTRAIT.wav", "conditions": [12, 1600, "a", 12000], "internal_node_id": "0.0-175.0", "trial": 6, "time_elapsed": 1123951, "serialpos": 1, "key_press": -1, "wordID": 1110, "type": "PRES_AUD", "trial_index": 238}, "uniqueid": "MTK2688:3I0BTBYZAYS1DZHXH6ADONEPKYFY0T", "dateTime": 1519237771910}, {"current_trial": 239, "trialdata": {"rt": -1000, "trial_type": "single-audio", "word": "swimmer", "stimulus": "/static/audio/wordpool/SWIMMER.wav", "conditions": [12, 1600, "a", 12000], "internal_node_id": "0.0-176.0", "trial": 6, "time_elapsed": 1126673, "serialpos": 2, "key_press": -1, "wordID": 1419, "type": "PRES_AUD", "trial_index": 239}, "uniqueid": "MTK2688:3I0BTBYZAYS1DZHXH6ADONEPKYFY0T", "dateTime": 1519237774633}, {"current_trial": 240, "trialdata": {"rt": -1000, "trial_type": "single-audio", "word": "bank", "stimulus": "/static/audio/wordpool/BANK.wav", "conditions": [12, 1600, "a", 12000], "internal_node_id": "0.0-177.0", "trial": 6, "time_elapsed": 1129224, "serialpos": 3, "key_press": -1, "wordID": 82, "type": "PRES_AUD", "trial_index": 240}, "uniqueid": "MTK2688:3I0BTBYZAYS1DZHXH6ADONEPKYFY0T", "dateTime": 1519237777183}, {"current_trial": 241, "trialdata": {"rt": -1000, "trial_type": "single-audio", "word": "robber", "stimulus": "/static/audio/wordpool/ROBBER.wav", "conditions": [12, 1600, "a", 12000], "internal_node_id": "0.0-178.0", "trial": 6, "time_elapsed": 1131649, "serialpos": 4, "key_press": -1, "wordID": 1196, "type": "PRES_AUD", "trial_index": 241}, "uniqueid": "MTK2688:3I0BTBYZAYS1DZHXH6ADONEPKYFY0T", "dateTime": 1519237779608}, {"current_trial": 242, "trialdata": {"rt": -1000, "trial_type": "single-audio", "word": "clothes", "stimulus": "/static/audio/wordpool/CLOTHES.wav", "conditions": [12, 1600, "a", 12000], "internal_node_id": "0.0-179.0", "trial": 6, "time_elapsed": 1134154, "serialpos": 5, "key_press": -1, "wordID": 326, "type": "PRES_AUD", "trial_index": 242}, "uniqueid": "MTK2688:3I0BTBYZAYS1DZHXH6ADONEPKYFY0T", "dateTime": 1519237782112}, {"current_trial": 243, "trialdata": {"rt": -1000, "trial_type": "single-audio", "word": "nightgown", "stimulus": "/static/audio/wordpool/NIGHTGOWN.wav", "conditions": [12, 1600, "a", 12000], "internal_node_id": "0.0-180.0", "trial": 6, "time_elapsed": 1136729, "serialpos": 6, "key_press": -1, "wordID": 952, "type": "PRES_AUD", "trial_index": 243}, "uniqueid": "MTK2688:3I0BTBYZAYS1DZHXH6ADONEPKYFY0T", "dateTime": 1519237784687}, {"current_trial": 244, "trialdata": {"rt": -1000, "trial_type": "single-audio", "word": "brother", "stimulus": "/static/audio/wordpool/BROTHER.wav", "conditions": [12, 1600, "a", 12000], "internal_node_id": "0.0-181.0", "trial": 6, "time_elapsed": 1139205, "serialpos": 7, "key_press": -1, "wordID": 178, "type": "PRES_AUD", "trial_index": 244}, "uniqueid": "MTK2688:3I0BTBYZAYS1DZHXH6ADONEPKYFY0T", "dateTime": 1519237787163}, {"current_trial": 245, "trialdata": {"rt": -1000, "trial_type": "single-audio", "word": "picture", "stimulus": "/static/audio/wordpool/PICTURE.wav", "conditions": [12, 1600, "a", 12000], "internal_node_id": "0.0-182.0", "trial": 6, "time_elapsed": 1141625, "serialpos": 8, "key_press": -1, "wordID": 1060, "type": "PRES_AUD", "trial_index": 245}, "uniqueid": "MTK2688:3I0BTBYZAYS1DZHXH6ADONEPKYFY0T", "dateTime": 1519237789584}, {"current_trial": 246, "trialdata": {"rt": -1000, "trial_type": "single-audio", "word": "pasta", "stimulus": "/static/audio/wordpool/PASTA.wav", "conditions": [12, 1600, "a", 12000], "internal_node_id": "0.0-183.0", "trial": 6, "time_elapsed": 1144364, "serialpos": 9, "key_press": -1, "wordID": 1020, "type": "PRES_AUD", "trial_index": 246}, "uniqueid": "MTK2688:3I0