{"assignmentId": "3QBD8R3Z22Q6I9VWUKOHYZ60PEV4OX", "workerId": "MTK3419", "questiondata": {"origin": "United States", "strat-rehearsal": "71", "marital": "Married/Domestic Partnership", "education": "Some college", "ethnicity": "Not Hispanic", "color_depth": 24, "distracted": "No", "wrote-notes": "No", "strat-other": "", "screen_width": 2048, "avail_screen_width": 2048, "avail_screen_height": 1129, "strat-image": "46", "language": "English", "gender": "Female", "age": "39", "gender_other": "", "race": ["White"], "strat-categorize": "63", "pixel_depth": 24, "strat-spatial": "43", "strat-story": "39", "race_other": "", "screen_height": 1152}, "bonus": 0, "hitId": "3S4TINXCC0UOGOIBJXT2HTGME0SBOI", "counterbalance": 276, "useragent": "Mozilla/5.0 (Macintosh; Intel Mac OS X 10_13_3) AppleWebKit/537.36 (KHTML, like Gecko) Chrome/64.0.3282.186 Safari/537.36", "eventdata": [{"eventtype": "initialized", "interval": 0, "value": null, "timestamp": 1520531334751}, {"eventtype": "window_resize", "interval": 0, "value": [2048, 1078], "timestamp": 1520531334751}, {"eventtype": "focus", "interval": 214411, "value": "off", "timestamp": 1520531549162}, {"eventtype": "focus", "interval": 10777, "value": "on", "timestamp": 1520531559939}, {"eventtype": "focus", "interval": 391113, "value": "off", "timestamp": 1520531951052}, {"eventtype": "focus", "interval": 17852, "value": "on", "timestamp": 1520531968904}, {"eventtype": "focus", "interval": 2512, "value": "off", "timestamp": 1520531971416}, {"eventtype": "focus", "interval": 12096, "value": "on", "timestamp": 1520531983512}, {"eventtype": "focus", "interval": 159718, "value": "off", "timestamp": 1520532143230}, {"eventtype": "focus", "interval": 21776, "value": "on", "timestamp": 1520532165006}, {"eventtype": "focus", "interval": 124162, "value": "off", "timestamp": 1520532289168}, {"eventtype": "focus", "interval": 17743, "value": "on", "timestamp": 1520532306911}, {"eventtype": "focus", "interval": 694633, "value": "off", "timestamp": 1520533001544}, {"eventtype": "focus", "interval": 7497, "value": "on", "timestamp": 1520533009041}, {"eventtype": "focus", "interval": 120767, "value": "off", "timestamp": 1520533129808}, {"eventtype": "focus", "interval": 12464, "value": "on", "timestamp": 1520533142272}], "data": [{"current_trial": 0, "trialdata": {"rt": 898, "trial_type": "text", "internal_node_id": "0.0-0.0", "time_elapsed": 900, "key_press": 75, "type": "INSTRUCTIONS", "trial_index": 0}, "uniqueid": "MTK3419:3QBD8R3Z22Q6I9VWUKOHYZ60PEV4OX", "dateTime": 1520531336351}, {"current_trial": 1, "trialdata": {"rt": 1392, "trial_type": "text", "internal_node_id": "0.0-1.0", "time_elapsed": 2293, "key_press": 13, "type": "INSTRUCTIONS", "trial_index": 1}, "uniqueid": "MTK3419:3QBD8R3Z22Q6I9VWUKOHYZ60PEV4OX", "dateTime": 1520531337744}, {"current_trial": 2, "trialdata": {"rt": [4841], "trial_type": "audio-test", "responses": ["ocean"], "internal_node_id": "0.0-2.0", "time_elapsed": 7137, "type": "AUDIO_TEST", "trial_index": 2}, "uniqueid": "MTK3419:3QBD8R3Z22Q6I9VWUKOHYZ60PEV4OX", "dateTime": 1520531342588}, {"current_trial": 3, "trialdata": {"rt": [5597], "trial_type": "audio-test", "responses": ["crystal"], "internal_node_id": "0.0-3.0", "time_elapsed": 12737, "type": "AUDIO_TEST", "trial_index": 3}, "uniqueid": "MTK3419:3QBD8R3Z22Q6I9VWUKOHYZ60PEV4OX", "dateTime": 1520531348188}, {"current_trial": 4, "trialdata": {"rt": [5634], "trial_type": "audio-test", "responses": ["spice"], "internal_node_id": "0.0-4.0", "time_elapsed": 18374, "type": "AUDIO_TEST", "trial_index": 4}, "uniqueid": "MTK3419:3QBD8R3Z22Q6I9VWUKOHYZ60PEV4OX", "dateTime": 1520531353825}, {"current_trial": 5, "trialdata": {"rt": 16633, "trial_type": "survey-text", "responses": "{\"Q0\":\"11:30 pm\",\"Q1\":\"7:30 am\",\"Q2\":\"4\"}", "internal_node_id": "0.0-5.0", "time_elapsed": 35764, "type": "SLEEP_SURVEY", "trial_index": 5}, "uniqueid": "MTK3419:3QBD8R3Z22Q6I9VWUKOHYZ60PEV4OX", "dateTime": 1520531371215}, {"current_trial": 6, "trialdata": {"rt": 25839, "trial_type": "text", "internal_node_id": "0.0-6.0", "time_elapsed": 62605, "key_press": 75, "type": "INSTRUCTIONS", "trial_index": 6}, "uniqueid": "MTK3419:3QBD8R3Z22Q6I9VWUKOHYZ60PEV4OX", "dateTime": 1520531398056}, {"current_trial": 7, "trialdata": {"rt": 13916, "trial_type": "text", "internal_node_id": "0.0-7.0", "time_elapsed": 77026, "key_press": 74, "type": "INSTRUCTIONS", "trial_index": 7}, "uniqueid": "MTK3419:3QBD8R3Z22Q6I9VWUKOHYZ60PEV4OX", "dateTime": 1520531412477}, {"current_trial": 8, "trialdata": {"rt": 4230, "trial_type": "text", "internal_node_id": "0.0-8.0", "time_elapsed": 81762, "key_press": 72, "type": "INSTRUCTIONS", "trial_index": 8}, "uniqueid": "MTK3419:3QBD8R3Z22Q6I9VWUKOHYZ60PEV4OX", "dateTime": 1520531417213}, {"current_trial": 9, "trialdata": {"rt": [3556, 6984, 9272, 14204, 17360], "trial_type": "math-distractor", "key_times": [3209, 3373, 3556, 6333, 6520, 6984, 8900, 9058, 9272, 13765, 13916, 14204, 17004, 17164, 17360], "responses": ["20", "13", "10", "18", "21"], "num2": [9, 7, 1, 7, 3, 9], "num3": [8, 4, 8, 7, 9, 1], "conditions": [18, 1200, "v", 18000], "internal_node_id": "0.0-9.0", "key_presses": [50, 48, 13, 49, 51, 13, 49, 48, 13, 49, 56, 13, 50, 49, 13], "trial": 0, "time_elapsed": 100771, "type": "DISTRACTOR", "trial_index": 9, "num1": [3, 2, 1, 4, 9, 3]}, "uniqueid": "MTK3419:3QBD8R3Z22Q6I9VWUKOHYZ60PEV4OX", "dateTime": 1520531436222}, {"current_trial": 10, "trialdata": {"rt": -1, "trial_type": "single-stim", "stimulus": "<p id=\"stim\">10</p>", "internal_node_id": "0.0-10.0-0.0", "time_elapsed": 103780, "key_press": -1, "trial_index": 10}, "uniqueid": "MTK3419:3QBD8R3Z22Q6I9VWUKOHYZ60PEV4OX", "dateTime": 1520531439231}, {"current_trial": 11, "trialdata": {"rt": -1, "trial_type": "single-stim", "stimulus": "<p id=\"stim\">9</p>", "internal_node_id": "0.0-10.0-1.0", "time_elapsed": 104784, "key_press": -1, "trial_index": 11}, "uniqueid": "MTK3419:3QBD8R3Z22Q6I9VWUKOHYZ60PEV4OX", "dateTime": 1520531440235}, {"current_trial": 12, "trialdata": {"rt": -1, "trial_type": "single-stim", "stimulus": "<p id=\"stim\">8</p>", "internal_node_id": "0.0-10.0-2.0", "time_elapsed": 105787, "key_press": -1, "trial_index": 12}, "uniqueid": "MTK3419:3QBD8R3Z22Q6I9VWUKOHYZ60PEV4OX", "dateTime": 1520531441238}, {"current_trial": 13, "trialdata": {"rt": -1, "trial_type": "single-stim", "stimulus": "<p id=\"stim\">7</p>", "internal_node_id": "0.0-10.0-3.0", "time_elapsed": 106792, "key_press": -1, "trial_index": 13}, "uniqueid": "MTK3419:3QBD8R3Z22Q6I9VWUKOHYZ60PEV4OX", "dateTime": 1520531442243}, {"current_trial": 14, "trialdata": {"rt": -1, "trial_type": "single-stim", "stimulus": "<p id=\"stim\">6</p>", "internal_node_id": "0.0-10.0-4.0", "time_elapsed": 107795, "key_press": -1, "trial_index": 14}, "uniqueid": "MTK3419:3QBD8R3Z22Q6I9VWUKOHYZ60PEV4OX", "dateTime": 1520531443246}, {"current_trial": 15, "trialdata": {"rt": -1, "trial_type": "single-stim", "stimulus": "<p id=\"stim\">5</p>", "internal_node_id": "0.0-10.0-5.0", "time_elapsed": 108799, "key_press": -1, "trial_index": 15}, "uniqueid": "MTK3419:3QBD8R3Z22Q6I9VWUKOHYZ60PEV4OX", "dateTime": 1520531444250}, {"current_trial": 16, "trialdata": {"rt": -1, "trial_type": "single-stim", "stimulus": "<p id=\"stim\">4</p>", "internal_node_id": "0.0-10.0-6.0", "time_elapsed": 109803, "key_press": -1, "trial_index": 16}, "uniqueid": "MTK3419:3QBD8R3Z22Q6I9VWUKOHYZ60PEV4OX", "dateTime": 1520531445254}, {"current_trial": 17, "trialdata": {"rt": -1, "trial_type": "single-stim", "stimulus": "<p id=\"stim\">3</p>", "internal_node_id": "0.0-10.0-7.0", "time_elapsed": 110808, "key_press": -1, "trial_index": 17}, "uniqueid": "MTK3419:3QBD8R3Z22Q6I9VWUKOHYZ60PEV4OX", "dateTime": 1520531446259}, {"current_trial": 18, "trialdata": {"rt": -1, "trial_type": "single-stim", "stimulus": "<p id=\"stim\">2</p>", "internal_node_id": "0.0-10.0-8.0", "time_elapsed": 111812, "key_press": -1, "trial_index": 18}, "uniqueid": "MTK3419:3QBD8R3Z22Q6I9VWUKOHYZ60PEV4OX", "dateTime": 1520531447263}, {"current_trial": 19, "trialdata": {"rt": -1, "trial_type": "single-stim", "stimulus": "<p id=\"stim\">1</p>", "internal_node_id": "0.0-10.0-9.0", "time_elapsed": 112816, "key_press": -1, "trial_index": 19}, "uniqueid": "MTK3419:3QBD8R3Z22Q6I9VWUKOHYZ60PEV4OX", "dateTime": 1520531448267}, {"current_trial": 20, "trialdata": {"rt": -1, "trial_type": "single-stim", "stimulus": "<p id=\"stim\">+</p>", "internal_node_id": "0.0-11.0-0.0", "time_elapsed": 114319, "key_press": -1, "type": "FIXATION", "trial_index": 20}, "uniqueid": "MTK3419:3QBD8R3Z22Q6I9VWUKOHYZ60PEV4OX", "dateTime": 1520531449770}, {"current_trial": 21, "trialdata": {"rt": -1, "trial_type": "single-stim", "word": "rooster", "stimulus": "<p id=\"stim\">ROOSTER</p>", "conditions": [18, 1200, "v", 18000], "internal_node_id": "0.0-12.0", "trial": 0, "time_elapsed": 115525, "serialpos": 0, "key_press": -1, "wordID": 1208, "type": "PRES_VIS", "trial_index": 21}, "uniqueid": "MTK3419:3QBD8R3Z22Q6I9VWUKOHYZ60PEV4OX", "dateTime": 1520531450976}, {"current_trial": 22, "trialdata": {"rt": -1, "trial_type": "single-stim", "word": "wasp", "stimulus": "<p id=\"stim\">WASP</p>", "conditions": [18, 1200, "v", 18000], "internal_node_id": "0.0-13.0", "trial": 0, "time_elapsed": 117801, "serialpos": 1, "key_press": -1, "wordID": 1592, "type": "PRES_VIS", "trial_index": 22}, "uniqueid": "MTK3419:3QBD8R3Z22Q6I9VWUKOHYZ60PEV4OX", "dateTime": 1520531453252}, {"current_trial": 23, "trialdata": {"rt": -1, "trial_type": "single-stim", "word": "sculpture", "stimulus": "<p id=\"stim\">SCULPTURE</p>", "conditions": [18, 1200, "v", 18000], "internal_node_id": "0.0-14.0", "trial": 0, "time_elapsed": 119839, "serialpos": 2, "key_press": -1, "wordID": 1257, "type": "PRES_VIS", "trial_index": 23}, "uniqueid": "MTK3419:3QBD8R3Z22Q6I9VWUKOHYZ60PEV4OX", "dateTime": 1520531455290}, {"current_trial": 24, "trialdata": {"rt": -1, "trial_type": "single-stim", "word": "primate", "stimulus": "<p id=\"stim\">PRIMATE</p>", "conditions": [18, 1200, "v", 18000], "internal_node_id": "0.0-15.0", "trial": 0, "time_elapsed": 121947, "serialpos": 3, "key_press": -1, "wordID": 1122, "type": "PRES_VIS", "trial_index": 24}, "uniqueid": "MTK3419:3QBD8R3Z22Q6I9VWUKOHYZ60PEV4OX", "dateTime": 1520531457398}, {"current_trial": 25, "trialdata": {"rt": -1, "trial_type": "single-stim", "word": "rattle", "stimulus": "<p id=\"stim\">RATTLE</p>", "conditions": [18, 1200, "v", 18000], "internal_node_id": "0.0-16.0", "trial": 0, "time_elapsed": 124271, "serialpos": 4, "key_press": -1, "wordID": 1169, "type": "PRES_VIS", "trial_index": 25}, "uniqueid": "MTK3419:3QBD8R3Z22Q6I9VWUKOHYZ60PEV4OX", "dateTime": 1520531459723}, {"current_trial": 26, "trialdata": {"rt": -1, "trial_type": "single-stim", "word": "bunny", "stimulus": "<p id=\"stim\">BUNNY</p>", "conditions": [18, 1200, "v", 18000], "internal_node_id": "0.0-17.0", "trial": 0, "time_elapsed": 126415, "serialpos": 5, "key_press": -1, "wordID": 197, "type": "PRES_VIS", "trial_index": 26}, "uniqueid": "MTK3419:3QBD8R3Z22Q6I9VWUKOHYZ60PEV4OX", "dateTime": 1520531461866}, {"current_trial": 27, "trialdata": {"rt": -1, "trial_type": "single-stim", "word": "cabbage", "stimulus": "<p id=\"stim\">CABBAGE</p>", "conditions": [18, 1200, "v", 18000], "internal_node_id": "0.0-18.0", "trial": 0, "time_elapsed": 128731, "serialpos": 6, "key_press": -1, "wordID": 209, "type": "PRES_VIS", "trial_index": 27}, "uniqueid": "MTK3419:3QBD8R3Z22Q6I9VWUKOHYZ60PEV4OX", "dateTime": 1520531464182}, {"current_trial": 28, "trialdata": {"rt": -1, "trial_type": "single-stim", "word": "outlaw", "stimulus": "<p id=\"stim\">OUTLAW</p>", "conditions": [18, 1200, "v", 18000], "internal_node_id": "0.0-19.0", "trial": 0, "time_elapsed": 130795, "serialpos": 7, "key_press": -1, "wordID": 988, "type": "PRES_VIS", "trial_index": 28}, "uniqueid": "MTK3419:3QBD8R3Z22Q6I9VWUKOHYZ60PEV4OX", "dateTime": 1520531466246}, {"current_trial": 29, "trialdata": {"rt": -1, "trial_type": "single-stim", "word": "twig", "stimulus": "<p id=\"stim\">TWIG</p>", "conditions": [18, 1200, "v", 18000], "internal_node_id": "0.0-20.0", "trial": 0, "time_elapsed": 132915, "serialpos": 8, "key_press": -1, "wordID": 1526, "type": "PRES_VIS", "trial_index": 29}, "uniqueid": "MTK3419:3QBD8R3Z22Q6I9VWUKOHYZ60PEV4OX", "dateTime": 1520531468366}, {"current_trial": 30, "trialdata": {"rt": -1, "trial_type": "single-stim", "word": "lace", "stimulus": "<p id=\"stim\">LACE</p>", "conditions": [18, 1200, "v", 18000], "internal_node_id": "0.0-21.0", "trial": 0, "time_elapsed": 135239, "serialpos": 9, "key_press": -1, "wordID": 791, "type": "PRES_VIS", "trial_index": 30}, "uniqueid": "MTK3419:3QBD8R3Z22Q6I9VWUKOHYZ60PEV4OX", "dateTime": 1520531470690}, {"current_trial": 31, "trialdata": {"rt": -1, "trial_type": "single-stim", "word": "worker", "stimulus": "<p id=\"stim\">WORKER</p>", "conditions": [18, 1200, "v", 18000], "internal_node_id": "0.0-22.0", "trial": 0, "time_elapsed": 137377, "serialpos": 10, "key_press": -1, "wordID": 1620, "type": "PRES_VIS", "trial_index": 31}, "uniqueid": "MTK3419:3QBD8R3Z22Q6I9VWUKOHYZ60PEV4OX", "dateTime": 1520531472828}, {"current_trial": 32, "trialdata": {"rt": -1, "trial_type": "single-stim", "word": "mattress", "stimulus": "<p id=\"stim\">MATTRESS</p>", "conditions": [18, 1200, "v", 18000], "internal_node_id": "0.0-23.0", "trial": 0, "time_elapsed": 139743, "serialpos": 11, "key_press": -1, "wordID": 878, "type": "PRES_VIS", "trial_index": 32}, "uniqueid": "MTK3419:3QBD8R3Z22Q6I9VWUKOHYZ60PEV4OX", "dateTime": 1520531475194}, {"current_trial": 33, "trialdata": {"rt": -1, "trial_type": "single-stim", "word": "waitress", "stimulus": "<p id=\"stim\">WAITRESS</p>", "conditions": [18, 1200, "v", 18000], "internal_node_id": "0.0-24.0", "trial": 0, "time_elapsed": 141886, "serialpos": 12, "key_press": -1, "wordID": 1580, "type": "PRES_VIS", "trial_index": 33}, "uniqueid": "MTK3419:3QBD8R3Z22Q6I9VWUKOHYZ60PEV4OX", "dateTime": 1520531477337}, {"current_trial": 34, "trialdata": {"rt": -1, "trial_type": "single-stim", "word": "slime", "stimulus": "<p id=\"stim\">SLIME</p>", "conditions": [18, 1200, "v", 18000], "internal_node_id": "0.0-25.0", "trial": 0, "time_elapsed": 144147, "serialpos": 13, "key_press": -1, "wordID": 1326, "type": "PRES_VIS", "trial_index": 34}, "uniqueid": "MTK3419:3QBD8R3Z22Q6I9VWUKOHYZ60PEV4OX", "dateTime": 1520531479598}, {"current_trial": 35, "trialdata": {"rt": -1, "trial_type": "single-stim", "word": "thread", "stimulus": "<p id=\"stim\">THREAD</p>", "conditions": [18, 1200, "v", 18000], "internal_node_id": "0.0-26.0", "trial": 0, "time_elapsed": 146495, "serialpos": 14, "key_press": -1, "wordID": 1459, "type": "PRES_VIS", "trial_index": 35}, "uniqueid": "MTK3419:3QBD8R3Z22Q6I9VWUKOHYZ60PEV4OX", "dateTime": 1520531481946}, {"current_trial": 36, "trialdata": {"rt": -1, "trial_type": "single-stim", "word": "crayon", "stimulus": "<p id=\"stim\">CRAYON</p>", "conditions": [18, 1200, "v", 18000], "internal_node_id": "0.0-27.0", "trial": 0, "time_elapsed": 148588, "serialpos": 15, "key_press": -1, "wordID": 400, "type": "PRES_VIS", "trial_index": 36}, "uniqueid": "MTK3419:3QBD8R3Z22Q6I9VWUKOHYZ60PEV4OX", "dateTime": 1520531484039}, {"current_trial": 37, "trialdata": {"rt": -1, "trial_type": "single-stim", "word": "asia", "stimulus": "<p id=\"stim\">ASIA</p>", "conditions": [18, 1200, "v", 18000], "internal_node_id": "0.0-28.0", "trial": 0, "time_elapsed": 150623, "serialpos": 16, "key_press": -1, "wordID": 45, "type": "PRES_VIS", "trial_index": 37}, "uniqueid": "MTK3419:3QBD8R3Z22Q6I9VWUKOHYZ60PEV4OX", "dateTime": 1520531486074}, {"current_trial": 38, "trialdata": {"rt": -1, "trial_type": "single-stim", "word": "wife", "stimulus": "<p id=\"stim\">WIFE</p>", "conditions": [18, 1200, "v", 18000], "internal_node_id": "0.0-29.0", "trial": 0, "time_elapsed": 152975, "serialpos": 17, "key_press": -1, "wordID": 1608, "type": "PRES_VIS", "trial_index": 38}, "uniqueid": "MTK3419:3QBD8R3Z22Q6I9VWUKOHYZ60PEV4OX", "dateTime": 1520531488426}, {"current_trial": 39, "trialdata": {"rt": -1, "trial_type": "single-stim", "stimulus": "", "internal_node_id": "0.0-30.0-0.0", "time_elapsed": 155071, "key_press": -1, "type": "PRE_RECALL_DELAY", "trial_index": 39}, "uniqueid": "MTK3419:3QBD8R3Z22Q6I9VWUKOHYZ60PEV4OX", "dateTime": 1520531490522}, {"current_trial": 40, "trialdata": {"rt": -1000, "trial_type": "single-audio", "stimulus": "/static/audio/400Hz.wav", "internal_node_id": "0.0-31.0", "time_elapsed": 155573, "key_press": -1, "type": "PRE_RECALL_ALERT", "trial_index": 40}, "uniqueid": "MTK3419:3QBD8R3Z22Q6I9VWUKOHYZ60PEV4OX", "dateTime": 1520531491024}, {"current_trial": 41, "trialdata": {"rt": [2986, 4270, 4972, 7271, 8459, 23614, 45103], "recwords": ["rooster", "bunny", "asia", "cabbage", "bunny", "", "sculpture"], "key_times": [2004, 2124, 2275, 2375, 2514, 2691, 2811, 2986, 3454, 3533, 3737, 3870, 4048, 4270, 4407, 4527, 4646, 4764, 4972, 5174, 5748, 6110, 6276, 6426, 6592, 6711, 6970, 7134, 7271, 7469, 7609, 7793, 7951, 8159, 8459, 23614, 43515, 43743, 43880, 44047, 44273, 44647, 44790, 44923, 45003, 45103], "trial_type": "free-recall", "conditions": [18, 1200, "v", 18000], "internal_node_id": "0.0-32.0-0.0", "key_presses": [82, 79, 79, 83, 84, 69, 82, 13, 66, 85, 78, 78, 89, 13, 65, 83, 73, 65, 13, 83, 8, 67, 65, 66, 66, 65, 71, 69, 13, 66, 85, 78, 78, 89, 13, 13, 83, 67, 85, 76, 80, 84, 85, 82, 69, 13], "trial": 0, "time_elapsed": 215578, "type": "FREE_RECALL", "trial_index": 41}, "uniqueid": "MTK3419:3QBD8R3Z22Q6I9VWUKOHYZ60PEV4OX", "dateTime": 1520531551032}, {"current_trial": 42, "trialdata": {"rt": 8559, "trial_type": "text", "internal_node_id": "0.0-33.0", "time_elapsed": 226140, "key_press": 74, "type": "INSTRUCTIONS", "trial_index": 42}, "uniqueid": "MTK3419:3QBD8R3Z22Q6I9VWUKOHYZ60PEV4OX", "dateTime": 1520531561591}, {"current_trial": 43, "trialdata": {"rt": [7527, 12236, 15189, 17589], "trial_type": "math-distractor", "key_times": [7166, 7342, 7527, 11945, 12065, 12236, 14898, 14998, 15189, 17040, 17118, 17589], "responses": ["20", "21", "10", "15"], "num2": [6, 9, 4, 6, 5], "num3": [5, 8, 3, 3, 1], "conditions": [18, 1200, "v", 18000], "internal_node_id": "0.0-34.0", "key_presses": [50, 48, 13, 50, 49, 13, 49, 48, 13, 49, 53, 13], "trial": 1, "time_elapsed": 246149, "type": "DISTRACTOR", "trial_index": 43, "num1": [9, 4, 3, 6, 2]}, "uniqueid": "MTK3419:3QBD8R3Z22Q6I9VWUKOHYZ60PEV4OX", "dateTime": 1520531581600}, {"current_trial": 44, "trialdata": {"rt": -1, "trial_type": "single-stim", "stimulus": "<p id=\"stim\">10</p>", "internal_node_id": "0.0-35.0-0.0", "time_elapsed": 249154, "key_press": -1, "trial_index": 44}, "uniqueid": "MTK3419:3QBD8R3Z22Q6I9VWUKOHYZ60PEV4OX", "dateTime": 1520531584605}, {"current_trial": 45, "trialdata": {"rt": -1, "trial_type": "single-stim", "stimulus": "<p id=\"stim\">9</p>", "internal_node_id": "0.0-35.0-1.0", "time_elapsed": 250158, "key_press": -1, "trial_index": 45}, "uniqueid": "MTK3419:3QBD8R3Z22Q6I9VWUKOHYZ60PEV4OX", "dateTime": 1520531585609}, {"current_trial": 46, "trialdata": {"rt": -1, "trial_type": "single-stim", "stimulus": "<p id=\"stim\">8</p>", "internal_node_id": "0.0-35.0-2.0", "time_elapsed": 251162, "key_press": -1, "trial_index": 46}, "uniqueid": "MTK3419:3QBD8R3Z22Q6I9VWUKOHYZ60PEV4OX", "dateTime": 1520531586613}, {"current_trial": 47, "trialdata": {"rt": -1, "trial_type": "single-stim", "stimulus": "<p id=\"stim\">7</p>", "internal_node_id": "0.0-35.0-3.0", "time_elapsed": 252166, "key_press": -1, "trial_index": 47}, "uniqueid": "MTK3419:3QBD8R3Z22Q6I9VWUKOHYZ60PEV4OX", "dateTime": 1520531587617}, {"current_trial": 48, "trialdata": {"rt": -1, "trial_type": "single-stim", "stimulus": "<p id=\"stim\">6</p>", "internal_node_id": "0.0-35.0-4.0", "time_elapsed": 253171, "key_press": -1, "trial_index": 48}, "uniqueid": "MTK3419:3QBD8R3Z22Q6I9VWUKOHYZ60PEV4OX", "dateTime": 1520531588622}, {"current_trial": 49, "trialdata": {"rt": -1, "trial_type": "single-stim", "stimulus": "<p id=\"stim\">5</p>", "internal_node_id": "0.0-35.0-5.0", "time_elapsed": 254175, "key_press": -1, "trial_index": 49}, "uniqueid": "MTK3419:3QBD8R3Z22Q6I9VWUKOHYZ60PEV4OX", "dateTime": 1520531589626}, {"current_trial": 50, "trialdata": {"rt": -1, "trial_type": "single-stim", "stimulus": "<p id=\"stim\">4</p>", "internal_node_id": "0.0-35.0-6.0", "time_elapsed": 255178, "key_press": -1, "trial_index": 50}, "uniqueid": "MTK3419:3QBD8R3Z22Q6I9VWUKOHYZ60PEV4OX", "dateTime": 1520531590630}, {"current_trial": 51, "trialdata": {"rt": -1, "trial_type": "single-stim", "stimulus": "<p id=\"stim\">3</p>", "internal_node_id": "0.0-35.0-7.0", "time_elapsed": 256183, "key_press": -1, "trial_index": 51}, "uniqueid": "MTK3419:3QBD8R3Z22Q6I9VWUKOHYZ60PEV4OX", "dateTime": 1520531591634}, {"current_trial": 52, "trialdata": {"rt": -1, "trial_type": "single-stim", "stimulus": "<p id=\"stim\">2</p>", "internal_node_id": "0.0-35.0-8.0", "time_elapsed": 257187, "key_press": -1, "trial_index": 52}, "uniqueid": "MTK3419:3QBD8R3Z22Q6I9VWUKOHYZ60PEV4OX", "dateTime": 1520531592638}, {"current_trial": 53, "trialdata": {"rt": -1, "trial_type": "single-stim", "stimulus": "<p id=\"stim\">1</p>", "internal_node_id": "0.0-35.0-9.0", "time_elapsed": 258191, "key_press": -1, "trial_index": 53}, "uniqueid": "MTK3419:3QBD8R3Z22Q6I9VWUKOHYZ60PEV4OX", "dateTime": 1520531593642}, {"current_trial": 54, "trialdata": {"rt": -1, "trial_type": "single-stim", "stimulus": "<p id=\"stim\">+</p>", "internal_node_id": "0.0-36.0-0.0", "time_elapsed": 259694, "key_press": -1, "type": "FIXATION", "trial_index": 54}, "uniqueid": "MTK3419:3QBD8R3Z22Q6I9VWUKOHYZ60PEV4OX", "dateTime": 1520531595145}, {"current_trial": 55, "trialdata": {"rt": -1, "trial_type": "single-stim", "word": "catcher", "stimulus": "<p id=\"stim\">CATCHER</p>", "conditions": [18, 1200, "v", 18000], "internal_node_id": "0.0-37.0", "trial": 1, "time_elapsed": 260896, "serialpos": 0, "key_press": -1, "wordID": 257, "type": "PRES_VIS", "trial_index": 55}, "uniqueid": "MTK3419:3QBD8R3Z22Q6I9VWUKOHYZ60PEV4OX", "dateTime": 1520531596347}, {"current_trial": 56, "trialdata": {"rt": -1, "trial_type": "single-stim", "word": "turnip", "stimulus": "<p id=\"stim\">TURNIP</p>", "conditions": [18, 1200, "v", 18000], "internal_node_id": "0.0-38.0", "trial": 1, "time_elapsed": 263263, "serialpos": 1, "key_press": -1, "wordID": 1520, "type": "PRES_VIS", "trial_index": 56}, "uniqueid": "MTK3419:3QBD8R3Z22Q6I9VWUKOHYZ60PEV4OX", "dateTime": 1520531598714}, {"current_trial": 57, "trialdata": {"rt": -1, "trial_type": "single-stim", "word": "switch", "stimulus": "<p id=\"stim\">SWITCH</p>", "conditions": [18, 1200, "v", 18000], "internal_node_id": "0.0-39.0", "trial": 1, "time_elapsed": 265342, "serialpos": 2, "key_press": -1, "wordID": 1421, "type": "PRES_VIS", "trial_index": 57}, "uniqueid": "MTK3419:3QBD8R3Z22Q6I9VWUKOHYZ60PEV4OX", "dateTime": 1520531600793}, {"current_trial": 58, "trialdata": {"rt": -1, "trial_type": "single-stim", "word": "handbag", "stimulus": "<p id=\"stim\">HANDBAG</p>", "conditions": [18, 1200, "v", 18000], "internal_node_id": "0.0-40.0", "trial": 1, "time_elapsed": 267497, "serialpos": 3, "key_press": -1, "wordID": 683, "type": "PRES_VIS", "trial_index": 58}, "uniqueid": "MTK3419:3QBD8R3Z22Q6I9VWUKOHYZ60PEV4OX", "dateTime": 1520531602948}, {"current_trial": 59, "trialdata": {"rt": -1, "trial_type": "single-stim", "word": "playground", "stimulus": "<p id=\"stim\">PLAYGROUND</p>", "conditions": [18, 1200, "v", 18000], "internal_node_id": "0.0-41.0", "trial": 1, "time_elapsed": 269718, "serialpos": 4, "key_press": -1, "wordID": 1086, "type": "PRES_VIS", "trial_index": 59}, "uniqueid": "MTK3419:3QBD8R3Z22Q6I9VWUKOHYZ60PEV4OX", "dateTime": 1520531605170}, {"current_trial": 60, "trialdata": {"rt": -1, "trial_type": "single-stim", "word": "blade", "stimulus": "<p id=\"stim\">BLADE</p>", "conditions": [18, 1200, "v", 18000], "internal_node_id": "0.0-42.0", "trial": 1, "time_elapsed": 271965, "serialpos": 5, "key_press": -1, "wordID": 133, "type": "PRES_VIS", "trial_index": 60}, "uniqueid": "MTK3419:3QBD8R3Z22Q6I9VWUKOHYZ60PEV4OX", "dateTime": 1520531607416}, {"current_trial": 61, "trialdata": {"rt": -1, "trial_type": "single-stim", "word": "cupboard", "stimulus": "<p id=\"stim\">CUPBOARD</p>", "conditions": [18, 1200, "v", 18000], "internal_node_id": "0.0-43.0", "trial": 1, "time_elapsed": 274154, "serialpos": 6, "key_press": -1, "wordID": 424, "type": "PRES_VIS", "trial_index": 61}, "uniqueid": "MTK3419:3QBD8R3Z22Q6I9VWUKOHYZ60PEV4OX", "dateTime": 1520531609605}, {"current_trial": 62, "trialdata": {"rt": -1, "trial_type": "single-stim", "word": "robin", "stimulus": "<p id=\"stim\">ROBIN</p>", "conditions": [18, 1200, "v", 18000], "internal_node_id": "0.0-44.0", "trial": 1, "time_elapsed": 276412, "serialpos": 7, "key_press": -1, "wordID": 1198, "type": "PRES_VIS", "trial_index": 62}, "uniqueid": "MTK3419:3QBD8R3Z22Q6I9VWUKOHYZ60PEV4OX", "dateTime": 1520531611863}, {"current_trial": 63, "trialdata": {"rt": -1, "trial_type": "single-stim", "word": "washer", "stimulus": "<p id=\"stim\">WASHER</p>", "conditions": [18, 1200, "v", 18000], "internal_node_id": "0.0-45.0", "trial": 1, "time_elapsed": 278751, "serialpos": 8, "key_press": -1, "wordID": 1591, "type": "PRES_VIS", "trial_index": 63}, "uniqueid": "MTK3419:3QBD8R3Z22Q6I9VWUKOHYZ60PEV4OX", "dateTime": 1520531614202}, {"current_trial": 64, "trialdata": {"rt": -1, "trial_type": "single-stim", "word": "missile", "stimulus": "<p id=\"stim\">MISSILE</p>", "conditions": [18, 1200, "v", 18000], "internal_node_id": "0.0-46.0", "trial": 1, "time_elapsed": 281094, "serialpos": 9, "key_press": -1, "wordID": 899, "type": "PRES_VIS", "trial_index": 64}, "uniqueid": "MTK3419:3QBD8R3Z22Q6I9VWUKOHYZ60PEV4OX", "dateTime": 1520531616545}, {"current_trial": 65, "trialdata": {"rt": -1, "trial_type": "single-stim", "word": "empire", "stimulus": "<p id=\"stim\">EMPIRE</p>", "conditions": [18, 1200, "v", 18000], "internal_node_id": "0.0-47.0", "trial": 1, "time_elapsed": 283333, "serialpos": 10, "key_press": -1, "wordID": 529, "type": "PRES_VIS", "trial_index": 65}, "uniqueid": "MTK3419:3QBD8R3Z22Q6I9VWUKOHYZ60PEV4OX", "dateTime": 1520531618784}, {"current_trial": 66, "trialdata": {"rt": -1, "trial_type": "single-stim", "word": "pigment", "stimulus": "<p id=\"stim\">PIGMENT</p>", "conditions": [18, 1200, "v", 18000], "internal_node_id": "0.0-48.0", "trial": 1, "time_elapsed": 285577, "serialpos": 11, "key_press": -1, "wordID": 1065, "type": "PRES_VIS", "trial_index": 66}, "uniqueid": "MTK3419:3QBD8R3Z22Q6I9VWUKOHYZ60PEV4OX", "dateTime": 1520531621028}, {"current_trial": 67, "trialdata": {"rt": -1, "trial_type": "single-stim", "word": "braces", "stimulus": "<p id=\"stim\">BRACES</p>", "conditions": [18, 1200, "v", 18000], "internal_node_id": "0.0-49.0", "trial": 1, "time_elapsed": 287793, "serialpos": 12, "key_press": -1, "wordID": 163, "type": "PRES_VIS", "trial_index": 67}, "uniqueid": "MTK3419:3QBD8R3Z22Q6I9VWUKOHYZ60PEV4OX", "dateTime": 1520531623244}, {"current_trial": 68, "trialdata": {"rt": -1, "trial_type": "single-stim", "word": "barrel", "stimulus": "<p id=\"stim\">BARREL</p>", "conditions": [18, 1200, "v", 18000], "internal_node_id": "0.0-50.0", "trial": 1, "time_elapsed": 290196, "serialpos": 13, "key_press": -1, "wordID": 90, "type": "PRES_VIS", "trial_index": 68}, "uniqueid": "MTK3419:3QBD8R3Z22Q6I9VWUKOHYZ60PEV4OX", "dateTime": 1520531625648}, {"current_trial": 69, "trialdata": {"rt": -1, "trial_type": "single-stim", "word": "juggler", "stimulus": "<p id=\"stim\">JUGGLER</p>", "conditions": [18, 1200, "v", 18000], "internal_node_id": "0.0-51.0", "trial": 1, "time_elapsed": 292339, "serialpos": 14, "key_press": -1, "wordID": 762, "type": "PRES_VIS", "trial_index": 69}, "uniqueid": "MTK3419:3QBD8R3Z22Q6I9VWUKOHYZ60PEV4OX", "dateTime": 1520531627790}, {"current_trial": 70, "trialdata": {"rt": -1, "trial_type": "single-stim", "word": "wrench", "stimulus": "<p id=\"stim\">WRENCH</p>", "conditions": [18, 1200, "v", 18000], "internal_node_id": "0.0-52.0", "trial": 1, "time_elapsed": 294429, "serialpos": 15, "key_press": -1, "wordID": 1624, "type": "PRES_VIS", "trial_index": 70}, "uniqueid": "MTK3419:3QBD8R3Z22Q6I9VWUKOHYZ60PEV4OX", "dateTime": 1520531629880}, {"current_trial": 71, "trialdata": {"rt": -1, "trial_type": "single-stim", "word": "lettuce", "stimulus": "<p id=\"stim\">LETTUCE</p>", "conditions": [18, 1200, "v", 18000], "internal_node_id": "0.0-53.0", "trial": 1, "time_elapsed": 296656, "serialpos": 16, "key_press": -1, "wordID": 813, "type": "PRES_VIS", "trial_index": 71}, "uniqueid": "MTK3419:3QBD8R3Z22Q6I9VWUKOHYZ60PEV4OX", "dateTime": 1520531632107}, {"current_trial": 72, "trialdata": {"rt": -1, "trial_type": "single-stim", "word": "expert", "stimulus": "<p id=\"stim\">EXPERT</p>", "conditions": [18, 1200, "v", 18000], "internal_node_id": "0.0-54.0", "trial": 1, "time_elapsed": 298897, "serialpos": 17, "key_press": -1, "wordID": 542, "type": "PRES_VIS", "trial_index": 72}, "uniqueid": "MTK3419:3QBD8R3Z22Q6I9VWUKOHYZ60PEV4OX", "dateTime": 1520531634348}, {"current_trial": 73, "trialdata": {"rt": -1, "trial_type": "single-stim", "stimulus": "", "internal_node_id": "0.0-55.0-0.0", "time_elapsed": 301292, "key_press": -1, "type": "PRE_RECALL_DELAY", "trial_index": 73}, "uniqueid": "MTK3419:3QBD8R3Z22Q6I9VWUKOHYZ60PEV4OX", "dateTime": 1520531636743}, {"current_trial": 74, "trialdata": {"rt": -1000, "trial_type": "single-audio", "stimulus": "/static/audio/400Hz.wav", "internal_node_id": "0.0-56.0", "time_elapsed": 301794, "key_press": -1, "type": "PRE_RECALL_ALERT", "trial_index": 74}, "uniqueid": "MTK3419:3QBD8R3Z22Q6I9VWUKOHYZ60PEV4OX", "dateTime": 1520531637245}, {"current_trial": 75, "trialdata": {"rt": [4083, 6511, 8433, 10175, 12139, 13585, 15141, 17759, 19199, 20874, 23324, 24727, 25851, 27479, 29311, 31091, 33181, 34665], "recwords": ["turnip", "catcher", "handbag", "switch", "playground", "lettuce", "expert", "missile", "empire", "braces", "pigment", "juggler", "barrel", "wrench", "blade", "cupboard", "robin", "washer"], "key_times": [2439, 2465, 2525, 2663, 2973, 3187, 3346, 3702, 4083, 4539, 4692, 4809, 5147, 5477, 5639, 5797, 5925, 6024, 6511, 7420, 7499, 7617, 7698, 7953, 8115, 8253, 8433, 8571, 8753, 8943, 9005, 9536, 9633, 10175, 10691, 10928, 10987, 11164, 11265, 11490, 11589, 11669, 11881, 11999, 12139, 12610, 12757, 12925, 13068, 13127, 13311, 13466, 13585, 13713, 13939, 14159, 14260, 14380, 14589, 15141, 15637, 15775, 15895, 16299, 16419, 16603, 16721, 16741, 16959, 17515, 17555, 17759, 18021, 18234, 18372, 18570, 18735, 18833, 19199, 19758, 19983, 20062, 20291, 20480, 20635, 20874, 21334, 21497, 21640, 21791, 21929, 22009, 22235, 22361, 22495, 22595, 22713, 23324, 23803, 23972, 24172, 24331, 24429, 24509, 24607, 24727, 24957, 25123, 25224, 25388, 25487, 25625, 25851, 26561, 26760, 26900, 27037, 27177, 27315, 27479, 28481, 28601, 28661, 28839, 29075, 29311, 29681, 29801, 29921, 30189, 30389, 30523, 30621, 30823, 31091, 32079, 32651, 32789, 32889, 32989, 33181, 33411, 33531, 33710, 33868, 33967, 34085, 34665], "trial_type": "free-recall", "conditions": [18, 1200, "v", 18000], "internal_node_id": "0.0-57.0-0.0", "key_presses": [84, 85, 82, 80, 8, 78, 73, 80, 13, 67, 65, 84, 72, 8, 67, 72, 69, 82, 13, 72, 65, 78, 68, 66, 65, 71, 13, 83, 87, 73, 84, 67, 72, 13, 80, 76, 65, 89, 71, 82, 79, 85, 78, 68, 13, 76, 69, 84, 84, 85, 67, 69, 13, 69, 88, 80, 69, 82, 84, 13, 77, 73, 76, 8, 83, 83, 73, 76, 73, 8, 69, 13, 69, 77, 80, 73, 82, 69, 13, 66, 82, 65, 67, 69, 83, 13, 80, 73, 71, 77, 65, 78, 8, 8, 69, 78, 84, 13, 74, 85, 71, 71, 76, 69, 82, 13, 66, 65, 82, 82, 69, 76, 13, 87, 82, 69, 78, 67, 72, 13, 66, 76, 65, 68, 69, 13, 67, 85, 80, 66, 79, 65, 82, 68, 13, 82, 79, 66, 73, 78, 13, 87, 65, 83, 72, 69, 82, 13], "trial": 1, "time_elapsed": 361797, "type": "FREE_RECALL", "trial_index": 75}, "uniqueid": "MTK3419:3QBD8R3Z22Q6I9VWUKOHYZ60PEV4OX", "dateTime": 1520531697250}, {"current_trial": 76, "trialdata": {"rt": 12134, "trial_type": "text", "internal_node_id": "0.0-58.0", "time_elapsed": 375939, "key_press": 75, "type": "INSTRUCTIONS", "trial_index": 76}, "uniqueid": "MTK3419:3QBD8R3Z22Q6I9VWUKOHYZ60PEV4OX", "dateTime": 1520531711390}, {"current_trial": 77, "trialdata": {"rt": [4965, 6973, 8306], "trial_type": "math-distractor", "key_times": [4633, 4780, 4965, 6661, 6780, 6973, 8109, 8306], "responses": ["13", "15", "9"], "num2": [5, 5, 7, 3], "num3": [6, 7, 1, 7], "conditions": [12, 800, "v", 12000], "internal_node_id": "0.0-59.0", "key_presses": [49, 51, 13, 49, 53, 13, 57, 13], "trial": 2, "time_elapsed": 388948, "type": "DISTRACTOR", "trial_index": 77, "num1": [2, 3, 1, 9]}, "uniqueid": "MTK3419:3QBD8R3Z22Q6I9VWUKOHYZ60PEV4OX", "dateTime": 1520531724399}, {"current_trial": 78, "trialdata": {"rt": -1, "trial_type": "single-stim", "stimulus": "<p id=\"stim\">10</p>", "internal_node_id": "0.0-60.0-0.0", "time_elapsed": 391958, "key_press": -1, "trial_index": 78}, "uniqueid": "MTK3419:3QBD8R3Z22Q6I9VWUKOHYZ60PEV4OX", "dateTime": 1520531727409}, {"current_trial": 79, "trialdata": {"rt": -1, "trial_type": "single-stim", "stimulus": "<p id=\"stim\">9</p>", "internal_node_id": "0.0-60.0-1.0", "time_elapsed": 392962, "key_press": -1, "trial_index": 79}, "uniqueid": "MTK3419:3QBD8R3Z22Q6I9VWUKOHYZ60PEV4OX", "dateTime": 1520531728414}, {"current_trial": 80, "trialdata": {"rt": -1, "trial_type": "single-stim", "stimulus": "<p id=\"stim\">8</p>", "internal_node_id": "0.0-60.0-2.0", "time_elapsed": 393968, "key_press": -1, "trial_index": 80}, "uniqueid": "MTK3419:3QBD8R3Z22Q6I9VWUKOHYZ60PEV4OX", "dateTime": 1520531729419}, {"current_trial": 81, "trialdata": {"rt": -1, "trial_type": "single-stim", "stimulus": "<p id=\"stim\">7</p>", "internal_node_id": "0.0-60.0-3.0", "time_elapsed": 394972, "key_press": -1, "trial_index": 81}, "uniqueid": "MTK3419:3QBD8R3Z22Q6I9VWUKOHYZ60PEV4OX", "dateTime": 1520531730423}, {"current_trial": 82, "trialdata": {"rt": -1, "trial_type": "single-stim", "stimulus": "<p id=\"stim\">6</p>", "internal_node_id": "0.0-60.0-4.0", "time_elapsed": 395976, "key_press": -1, "trial_index": 82}, "uniqueid": "MTK3419:3QBD8R3Z22Q6I9VWUKOHYZ60PEV4OX", "dateTime": 1520531731427}, {"current_trial": 83, "trialdata": {"rt": -1, "trial_type": "single-stim", "stimulus": "<p id=\"stim\">5</p>", "internal_node_id": "0.0-60.0-5.0", "time_elapsed": 396981, "key_press": -1, "trial_index": 83}, "uniqueid": "MTK3419:3QBD8R3Z22Q6I9VWUKOHYZ60PEV4OX", "dateTime": 1520531732432}, {"current_trial": 84, "trialdata": {"rt": -1, "trial_type": "single-stim", "stimulus": "<p id=\"stim\">4</p>", "internal_node_id": "0.0-60.0-6.0", "time_elapsed": 397984, "key_press": -1, "trial_index": 84}, "uniqueid": "MTK3419:3QBD8R3Z22Q6I9VWUKOHYZ60PEV4OX", "dateTime": 1520531733435}, {"current_trial": 85, "trialdata": {"rt": -1, "trial_type": "single-stim", "stimulus": "<p id=\"stim\">3</p>", "internal_node_id": "0.0-60.0-7.0", "time_elapsed": 398988, "key_press": -1, "trial_index": 85}, "uniqueid": "MTK3419:3QBD8R3Z22Q6I9VWUKOHYZ60PEV4OX", "dateTime": 1520531734440}, {"current_trial": 86, "trialdata": {"rt": -1, "trial_type": "single-stim", "stimulus": "<p id=\"stim\">2</p>", "internal_node_id": "0.0-60.0-8.0", "time_elapsed": 399993, "key_press": -1, "trial_index": 86}, "uniqueid": "MTK3419:3QBD8R3Z22Q6I9VWUKOHYZ60PEV4OX", "dateTime": 1520531735444}, {"current_trial": 87, "trialdata": {"rt": -1, "trial_type": "single-stim", "stimulus": "<p id=\"stim\">1</p>", "internal_node_id": "0.0-60.0-9.0", "time_elapsed": 400996, "key_press": -1, "trial_index": 87}, "uniqueid": "MTK3419:3QBD8R3Z22Q6I9VWUKOHYZ60PEV4OX", "dateTime": 1520531736447}, {"current_trial": 88, "trialdata": {"rt": -1, "trial_type": "single-stim", "stimulus": "<p id=\"stim\">+</p>", "internal_node_id": "0.0-61.0-0.0", "time_elapsed": 402502, "key_press": -1, "type": "FIXATION", "trial_index": 88}, "uniqueid": "MTK3419:3QBD8R3Z22Q6I9VWUKOHYZ60PEV4OX", "dateTime": 1520531737953}, {"current_trial": 89, "trialdata": {"rt": -1, "trial_type": "single-stim", "word": "climber", "stimulus": "<p id=\"stim\">CLIMBER</p>", "conditions": [12, 800, "v", 12000], "internal_node_id": "0.0-62.0", "trial": 2, "time_elapsed": 403306, "serialpos": 0, "key_press": -1, "wordID": 322, "type": "PRES_VIS", "trial_index": 89}, "uniqueid": "MTK3419:3QBD8R3Z22Q6I9VWUKOHYZ60PEV4OX", "dateTime": 1520531738757}, {"current_trial": 90, "trialdata": {"rt": -1, "trial_type": "single-stim", "word": "blender", "stimulus": "<p id=\"stim\">BLENDER</p>", "conditions": [12, 800, "v", 12000], "internal_node_id": "0.0-63.0", "trial": 2, "time_elapsed": 405107, "serialpos": 1, "key_press": -1, "wordID": 135, "type": "PRES_VIS", "trial_index": 90}, "uniqueid": "MTK3419:3QBD8R3Z22Q6I9VWUKOHYZ60PEV4OX", "dateTime": 1520531740558}, {"current_trial": 91, "trialdata": {"rt": -1, "trial_type": "single-stim", "word": "mailman", "stimulus": "<p id=\"stim\">MAILMAN</p>", "conditions": [12, 800, "v", 12000], "internal_node_id": "0.0-64.0", "trial": 2, "time_elapsed": 407100, "serialpos": 2, "key_press": -1, "wordID": 857, "type": "PRES_VIS", "trial_index": 91}, "uniqueid": "MTK3419:3QBD8R3Z22Q6I9VWUKOHYZ60PEV4OX", "dateTime": 1520531742551}, {"current_trial": 92, "trialdata": {"rt": -1, "trial_type": "single-stim", "word": "mailbox", "stimulus": "<p id=\"stim\">MAILBOX</p>", "conditions": [12, 800, "v", 12000], "internal_node_id": "0.0-65.0", "trial": 2, "time_elapsed": 408859, "serialpos": 3, "key_press": -1, "wordID": 856, "type": "PRES_VIS", "trial_index": 92}, "uniqueid": "MTK3419:3QBD8R3Z22Q6I9VWUKOHYZ60PEV4OX", "dateTime": 1520531744310}, {"current_trial": 93, "trialdata": {"rt": -1, "trial_type": "single-stim", "word": "arm", "stimulus": "<p id=\"stim\">ARM</p>", "conditions": [12, 800, "v", 12000], "internal_node_id": "0.0-66.0", "trial": 2, "time_elapsed": 410577, "serialpos": 4, "key_press": -1, "wordID": 37, "type": "PRES_VIS", "trial_index": 93}, "uniqueid": "MTK3419:3QBD8R3Z22Q6I9VWUKOHYZ60PEV4OX", "dateTime": 1520531746028}, {"current_trial": 94, "trialdata": {"rt": -1, "trial_type": "single-stim", "word": "eyelash", "stimulus": "<p id=\"stim\">EYELASH</p>", "conditions": [12, 800, "v", 12000], "internal_node_id": "0.0-67.0", "trial": 2, "time_elapsed": 412391, "serialpos": 5, "key_press": -1, "wordID": 545, "type": "PRES_VIS", "trial_index": 94}, "uniqueid": "MTK3419:3QBD8R3Z22Q6I9VWUKOHYZ60PEV4OX", "dateTime": 1520531747842}, {"current_trial": 95, "trialdata": {"rt": -1, "trial_type": "single-stim", "word": "drawing", "stimulus": "<p id=\"stim\">DRAWING</p>", "conditions": [12, 800, "v", 12000], "internal_node_id": "0.0-68.0", "trial": 2, "time_elapsed": 414277, "serialpos": 6, "key_press": -1, "wordID": 493, "type": "PRES_VIS", "trial_index": 95}, "uniqueid": "MTK3419:3QBD8R3Z22Q6I9VWUKOHYZ60PEV4OX", "dateTime": 1520531749728}, {"current_trial": 96, "trialdata": {"rt": -1, "trial_type": "single-stim", "word": "picture", "stimulus": "<p id=\"stim\">PICTURE</p>", "conditions": [12, 800, "v", 12000], "internal_node_id": "0.0-69.0", "trial": 2, "time_elapsed": 416163, "serialpos": 7, "key_press": -1, "wordID": 1060, "type": "PRES_VIS", "trial_index": 96}, "uniqueid": "MTK3419:3QBD8R3Z22Q6I9VWUKOHYZ60PEV4OX", "dateTime": 1520531751614}, {"current_trial": 97, "trialdata": {"rt": -1, "trial_type": "single-stim", "word": "leg", "stimulus": "<p id=\"stim\">LEG</p>", "conditions": [12, 800, "v", 12000], "internal_node_id": "0.0-70.0", "trial": 2, "time_elapsed": 418075, "serialpos": 8, "key_press": -1, "wordID": 808, "type": "PRES_VIS", "trial_index": 97}, "uniqueid": "MTK3419:3QBD8R3Z22Q6I9VWUKOHYZ60PEV4OX", "dateTime": 1520531753526}, {"current_trial": 98, "trialdata": {"rt": -1, "trial_type": "single-stim", "word": "valve", "stimulus": "<p id=\"stim\">VALVE</p>", "conditions": [12, 800, "v", 12000], "internal_node_id": "0.0-71.0", "trial": 2, "time_elapsed": 420039, "serialpos": 9, "key_press": -1, "wordID": 1545, "type": "PRES_VIS", "trial_index": 98}, "uniqueid": "MTK3419:3QBD8R3Z22Q6I9VWUKOHYZ60PEV4OX", "dateTime": 1520531755490}, {"current_trial": 99, "trialdata": {"rt": -1, "trial_type": "single-stim", "word": "shortcake", "stimulus": "<p id=\"stim\">SHORTCAKE</p>", "conditions": [12, 800, "v", 12000], "internal_node_id": "0.0-72.0", "trial": 2, "time_elapsed": 421847, "serialpos": 10, "key_press": -1, "wordID": 1291, "type": "PRES_VIS", "trial_index": 99}, "uniqueid": "MTK3419:3QBD8R3Z22Q6I9VWUKOHYZ60PEV4OX", "dateTime": 1520531757298}, {"current_trial": 100, "trialdata": {"rt": -1, "trial_type": "single-stim", "word": "swimmer", "stimulus": "<p id=\"stim\">SWIMMER</p>", "conditions": [12, 800, "v", 12000], "internal_node_id": "0.0-73.0", "trial": 2, "time_elapsed": 423516, "serialpos": 11, "key_press": -1, "wordID": 1419, "type": "PRES_VIS", "trial_index": 100}, "uniqueid": "MTK3419:3QBD8R3Z22Q6I9VWUKOHYZ60PEV4OX", "dateTime": 1520531758967}, {"current_trial": 101, "trialdata": {"rt": -1, "trial_type": "single-stim", "stimulus": "", "internal_node_id": "0.0-74.0-0.0", "time_elapsed": 425783, "key_press": -1, "type": "PRE_RECALL_DELAY", "trial_index": 101}, "uniqueid": "MTK3419:3QBD8R3Z22Q6I9VWUKOHYZ60PEV4OX", "dateTime": 1520531761234}, {"current_trial": 102, "trialdata": {"rt": -1000, "trial_type": "single-audio", "stimulus": "/static/audio/400Hz.wav", "internal_node_id": "0.0-75.0", "time_elapsed": 426285, "key_press": -1, "type": "PRE_RECALL_ALERT", "trial_index": 102}, "uniqueid": "MTK3419:3QBD8R3Z22Q6I9VWUKOHYZ60PEV4OX", "dateTime": 1520531761736}, {"current_trial": 103, "trialdata": {"rt": [4443, 7153, 8997, 12335, 13888, 15257, 16753, 18276, 20164, 22292, 23091, 25702, 27231], "recwords": ["picture", "drawing", "climber", "mailman", "mailbox", "blender", "arm", "eyelash", "swimmer", "shortcake", "val", "valve", "leg"], "key_times": [2782, 3647, 3785, 3967, 4046, 4185, 4266, 4443, 5333, 5549, 5647, 5833, 5932, 6197, 6314, 6611, 6769, 6953, 7053, 7153, 8113, 8210, 8349, 8449, 8547, 8741, 8819, 8997, 9909, 10057, 10327, 10915, 11127, 11467, 11597, 11809, 11929, 12067, 12126, 12335, 12629, 12769, 12887, 12947, 13214, 13274, 13451, 13888, 14349, 14486, 14546, 14685, 14785, 14964, 15045, 15257, 15413, 15619, 15822, 16753, 17033, 17227, 17367, 17485, 17605, 17901, 18067, 18276, 19283, 19521, 19619, 19738, 19866, 20004, 20083, 20164, 20351, 20757, 20877, 20915, 21107, 21425, 21601, 21760, 21779, 22292, 22713, 22852, 22951, 23091, 25115, 25235, 25352, 25473, 25623, 25702, 26800, 26881, 27047, 27231], "trial_type": "free-recall", "conditions": [12, 800, "v", 12000], "internal_node_id": "0.0-76.0-0.0", "key_presses": [80, 73, 67, 84, 85, 82, 69, 13, 68, 82, 65, 87, 73, 73, 78, 8, 8, 78, 71, 13, 67, 76, 73, 77, 66, 69, 82, 13, 77, 65, 73, 73, 76, 8, 8, 76, 77, 65, 78, 13, 77, 65, 73, 76, 66, 79, 88, 13, 66, 76, 69, 78, 68, 69, 82, 13, 65, 82, 77, 13, 69, 89, 69, 76, 65, 83, 72, 13, 83, 87, 73, 77, 77, 69, 82, 13, 83, 72, 79, 82, 84, 67, 65, 75, 69, 13, 86, 65, 76, 32, 86, 65, 76, 86, 69, 13, 76, 69, 71, 13], "trial": 2, "time_elapsed": 486292, "type": "FREE_RECALL", "trial_index": 103}, "uniqueid": "MTK3419:3QBD8R3Z22Q6I9VWUKOHYZ60PEV4OX", "dateTime": 1520531821743}, {"current_trial": 104, "trialdata": {"rt": 2933, "trial_type": "text", "internal_node_id": "0.0-77.0", "time_elapsed": 491228, "key_press": 32, "type": "INSTRUCTIONS", "trial_index": 104}, "uniqueid": "MTK3419:3QBD8R3Z22Q6I9VWUKOHYZ60PEV4OX", "dateTime": 1520531826679}, {"current_trial": 105, "trialdata": {"rt": [3231, 5339, 8575, 11057, 14669, 16453, 19755, 21544], "trial_type": "math-distractor", "key_times": [2953, 2993, 3231, 5101, 5181, 5339, 8269, 8395, 8575, 10858, 11057, 14363, 14482, 14669, 15899, 16047, 16453, 19385, 19590, 19755, 21172, 21303, 21544], "responses": ["12", "10", "19", "9", "13", "14", "17", "18"], "num2": [2, 6, 4, 2, 7, 9, 4, 8, 3], "num3": [1, 3, 7, 5, 1, 5, 4, 8, 6], "conditions": [24, 800, "v", 24000], "internal_node_id": "0.0-78.0", "key_presses": [49, 50, 13, 49, 48, 13, 49, 57, 13, 57, 13, 49, 51, 13, 49, 52, 13, 49, 55, 13, 49, 56, 13], "trial": 3, "time_elapsed": 517238, "type": "DISTRACTOR", "trial_index": 105, "num1": [9, 1, 4, 2, 5, 9, 9, 2, 9]}, "uniqueid": "MTK3419:3QBD8R3Z22Q6I9VWUKOHYZ60PEV4OX", "dateTime": 1520531852689}, {"current_trial": 106, "trialdata": {"rt": -1, "trial_type": "single-stim", "stimulus": "<p id=\"stim\">10</p>", "internal_node_id": "0.0-79.0-0.0", "time_elapsed": 520245, "key_press": -1, "trial_index": 106}, "uniqueid": "MTK3419:3QBD8R3Z22Q6I9VWUKOHYZ60PEV4OX", "dateTime": 1520531855696}, {"current_trial": 107, "trialdata": {"rt": -1, "trial_type": "single-stim", "stimulus": "<p id=\"stim\">9</p>", "internal_node_id": "0.0-79.0-1.0", "time_elapsed": 521248, "key_press": -1, "trial_index": 107}, "uniqueid": "MTK3419:3QBD8R3Z22Q6I9VWUKOHYZ60PEV4OX", "dateTime": 1520531856700}, {"current_trial": 108, "trialdata": {"rt": -1, "trial_type": "single-stim", "stimulus": "<p id=\"stim\">8</p>", "internal_node_id": "0.0-79.0-2.0", "time_elapsed": 522253, "key_press": -1, "trial_index": 108}, "uniqueid": "MTK3419:3QBD8R3Z22Q6I9VWUKOHYZ60PEV4OX", "dateTime": 1520531857704}, {"current_trial": 109, "trialdata": {"rt": -1, "trial_type": "single-stim", "stimulus": "<p id=\"stim\">7</p>", "internal_node_id": "0.0-79.0-3.0", "time_elapsed": 523257, "key_press": -1, "trial_index": 109}, "uniqueid": "MTK3419:3QBD8R3Z22Q6I9VWUKOHYZ60PEV4OX", "dateTime": 1520531858708}, {"current_trial": 110, "trialdata": {"rt": -1, "trial_type": "single-stim", "stimulus": "<p id=\"stim\">6</p>", "internal_node_id": "0.0-79.0-4.0", "time_elapsed": 524262, "key_press": -1, "trial_index": 110}, "uniqueid": "MTK3419:3QBD8R3Z22Q6I9VWUKOHYZ60PEV4OX", "dateTime": 1520531859713}, {"current_trial": 111, "trialdata": {"rt": -1, "trial_type": "single-stim", "stimulus": "<p id=\"stim\">5</p>", "internal_node_id": "0.0-79.0-5.0", "time_elapsed": 525265, "key_press": -1, "trial_index": 111}, "uniqueid": "MTK3419:3QBD8R3Z22Q6I9VWUKOHYZ60PEV4OX", "dateTime": 1520531860716}, {"current_trial": 112, "trialdata": {"rt": -1, "trial_type": "single-stim", "stimulus": "<p id=\"stim\">4</p>", "internal_node_id": "0.0-79.0-6.0", "time_elapsed": 526270, "key_press": -1, "trial_index": 112}, "uniqueid": "MTK3419:3QBD8R3Z22Q6I9VWUKOHYZ60PEV4OX", "dateTime": 1520531861721}, {"current_trial": 113, "trialdata": {"rt": -1, "trial_type": "single-stim", "stimulus": "<p id=\"stim\">3</p>", "internal_node_id": "0.0-79.0-7.0", "time_elapsed": 527274, "key_press": -1, "trial_index": 113}, "uniqueid": "MTK3419:3QBD8R3Z22Q6I9VWUKOHYZ60PEV4OX", "dateTime": 1520531862725}, {"current_trial": 114, "trialdata": {"rt": -1, "trial_type": "single-stim", "stimulus": "<p id=\"stim\">2</p>", "internal_node_id": "0.0-79.0-8.0", "time_elapsed": 528277, "key_press": -1, "trial_index": 114}, "uniqueid": "MTK3419:3QBD8R3Z22Q6I9VWUKOHYZ60PEV4OX", "dateTime": 1520531863729}, {"current_trial": 115, "trialdata": {"rt": -1, "trial_type": "single-stim", "stimulus": "<p id=\"stim\">1</p>", "internal_node_id": "0.0-79.0-9.0", "time_elapsed": 529282, "key_press": -1, "trial_index": 115}, "uniqueid": "MTK3419:3QBD8R3Z22Q6I9VWUKOHYZ60PEV4OX", "dateTime": 1520531864733}, {"current_trial": 116, "trialdata": {"rt": -1, "trial_type": "single-stim", "stimulus": "<p id=\"stim\">+</p>", "internal_node_id": "0.0-80.0-0.0", "time_elapsed": 530785, "key_press": -1, "type": "FIXATION", "trial_index": 116}, "uniqueid": "MTK3419:3QBD8R3Z22Q6I9VWUKOHYZ60PEV4OX", "dateTime": 1520531866236}, {"current_trial": 117, "trialdata": {"rt": -1, "trial_type": "single-stim", "word": "ointment", "stimulus": "<p id=\"stim\">OINTMENT</p>", "conditions": [24, 800, "v", 24000], "internal_node_id": "0.0-81.0", "trial": 3, "time_elapsed": 531590, "serialpos": 0, "key_press": -1, "wordID": 973, "type": "PRES_VIS", "trial_index": 117}, "uniqueid": "MTK3419:3QBD8R3Z22Q6I9VWUKOHYZ60PEV4OX", "dateTime": 1520531867041}, {"current_trial": 118, "trialdata": {"rt": -1, "trial_type": "single-stim", "word": "pastry", "stimulus": "<p id=\"stim\">PASTRY</p>", "conditions": [24, 800, "v", 24000], "internal_node_id": "0.0-82.0", "trial": 3, "time_elapsed": 533482, "serialpos": 1, "key_press": -1, "wordID": 1021, "type": "PRES_VIS", "trial_index": 118}, "uniqueid": "MTK3419:3QBD8R3Z22Q6I9VWUKOHYZ60PEV4OX", "dateTime": 1520531868933}, {"current_trial": 119, "trialdata": {"rt": -1, "trial_type": "single-stim", "word": "report", "stimulus": "<p id=\"stim\">REPORT</p>", "conditions": [24, 800, "v", 24000], "internal_node_id": "0.0-83.0", "trial": 3, "time_elapsed": 535452, "serialpos": 2, "key_press": -1, "wordID": 1183, "type": "PRES_VIS", "trial_index": 119}, "uniqueid": "MTK3419:3QBD8R3Z22Q6I9VWUKOHYZ60PEV4OX", "dateTime": 1520531870903}, {"current_trial": 120, "trialdata": {"rt": -1, "trial_type": "single-stim", "word": "skirt", "stimulus": "<p id=\"stim\">SKIRT</p>", "conditions": [24, 800, "v", 24000], "internal_node_id": "0.0-84.0", "trial": 3, "time_elapsed": 537413, "serialpos": 3, "key_press": -1, "wordID": 1318, "type": "PRES_VIS", "trial_index": 120}, "uniqueid": "MTK3419:3QBD8R3Z22Q6I9VWUKOHYZ60PEV4OX", "dateTime": 1520531872864}, {"current_trial": 121, "trialdata": {"rt": -1, "trial_type": "single-stim", "word": "velvet", "stimulus": "<p id=\"stim\">VELVET</p>", "conditions": [24, 800, "v", 24000], "internal_node_id": "0.0-85.0", "trial": 3, "time_elapsed": 539317, "serialpos": 4, "key_press": -1, "wordID": 1554, "type": "PRES_VIS", "trial_index": 121}, "uniqueid": "MTK3419:3QBD8R3Z22Q6I9VWUKOHYZ60PEV4OX", "dateTime": 1520531874768}, {"current_trial": 122, "trialdata": {"rt": -1, "trial_type": "single-stim", "word": "peanut", "stimulus": "<p id=\"stim\">PEANUT</p>", "conditions": [24, 800, "v", 24000], "internal_node_id": "0.0-86.0", "trial": 3, "time_elapsed": 541292, "serialpos": 5, "key_press": -1, "wordID": 1031, "type": "PRES_VIS", "trial_index": 122}, "uniqueid": "MTK3419:3QBD8R3Z22Q6I9VWUKOHYZ60PEV4OX", "dateTime": 1520531876743}, {"current_trial": 123, "trialdata": {"rt": -1, "trial_type": "single-stim", "word": "sausage", "stimulus": "<p id=\"stim\">SAUSAGE</p>", "conditions": [24, 800, "v", 24000], "internal_node_id": "0.0-87.0", "trial": 3, "time_elapsed": 542985, "serialpos": 6, "key_press": -1, "wordID": 1237, "type": "PRES_VIS", "trial_index": 123}, "uniqueid": "MTK3419:3QBD8R3Z22Q6I9VWUKOHYZ60PEV4OX", "dateTime": 1520531878436}, {"current_trial": 124, "trialdata": {"rt": -1, "trial_type": "single-stim", "word": "space", "stimulus": "<p id=\"stim\">SPACE</p>", "conditions": [24, 800, "v", 24000], "internal_node_id": "0.0-88.0", "trial": 3, "time_elapsed": 544870, "serialpos": 7, "key_press": -1, "wordID": 1344, "type": "PRES_VIS", "trial_index": 124}, "uniqueid": "MTK3419:3QBD8R3Z22Q6I9VWUKOHYZ60PEV4OX", "dateTime": 1520531880321}, {"current_trial": 125, "trialdata": {"rt": -1, "trial_type": "single-stim", "word": "donkey", "stimulus": "<p id=\"stim\">DONKEY</p>", "conditions": [24, 800, "v", 24000], "internal_node_id": "0.0-89.0", "trial": 3, "time_elapsed": 546799, "serialpos": 8, "key_press": -1, "wordID": 483, "type": "PRES_VIS", "trial_index": 125}, "uniqueid": "MTK3419:3QBD8R3Z22Q6I9VWUKOHYZ60PEV4OX", "dateTime": 1520531882250}, {"current_trial": 126, "trialdata": {"rt": -1, "trial_type": "single-stim", "word": "camel", "stimulus": "<p id=\"stim\">CAMEL</p>", "conditions": [24, 800, "v", 24000], "internal_node_id": "0.0-90.0", "trial": 3, "time_elapsed": 548639, "serialpos": 9, "key_press": -1, "wordID": 222, "type": "PRES_VIS", "trial_index": 126}, "uniqueid": "MTK3419:3QBD8R3Z22Q6I9VWUKOHYZ60PEV4OX", "dateTime": 1520531884090}, {"current_trial": 127, "trialdata": {"rt": -1, "trial_type": "single-stim", "word": "survey", "stimulus": "<p id=\"stim\">SURVEY</p>", "conditions": [24, 800, "v", 24000], "internal_node_id": "0.0-91.0", "trial": 3, "time_elapsed": 550298, "serialpos": 10, "key_press": -1, "wordID": 1413, "type": "PRES_VIS", "trial_index": 127}, "uniqueid": "MTK3419:3QBD8R3Z22Q6I9VWUKOHYZ60PEV4OX", "dateTime": 1520531885749}, {"current_trial": 128, "trialdata": {"rt": -1, "trial_type": "single-stim", "word": "flipper", "stimulus": "<p id=\"stim\">FLIPPER</p>", "conditions": [24, 800, "v", 24000], "internal_node_id": "0.0-92.0", "trial": 3, "time_elapsed": 552208, "serialpos": 11, "key_press": -1, "wordID": 579, "type": "PRES_VIS", "trial_index": 128}, "uniqueid": "MTK3419:3QBD8R3Z22Q6I9VWUKOHYZ60PEV4OX", "dateTime": 1520531887659}, {"current_trial": 129, "trialdata": {"rt": -1, "trial_type": "single-stim", "word": "garden", "stimulus": "<p id=\"stim\">GARDEN</p>", "conditions": [24, 800, "v", 24000], "internal_node_id": "0.0-93.0", "trial": 3, "time_elapsed": 554174, "serialpos": 12, "key_press": -1, "wordID": 622, "type": "PRES_VIS", "trial_index": 129}, "uniqueid": "MTK3419:3QBD8R3Z22Q6I9VWUKOHYZ60PEV4OX", "dateTime": 1520531889625}, {"current_trial": 130, "trialdata": {"rt": -1, "trial_type": "single-stim", "word": "clothes", "stimulus": "<p id=\"stim\">CLOTHES</p>", "conditions": [24, 800, "v", 24000], "internal_node_id": "0.0-94.0", "trial": 3, "time_elapsed": 555814, "serialpos": 13, "key_press": -1, "wordID": 326, "type": "PRES_VIS", "trial_index": 130}, "uniqueid": "MTK3419:3QBD8R3Z22Q6I9VWUKOHYZ60PEV4OX", "dateTime": 1520531891265}, {"current_trial": 131, "trialdata": {"rt": -1, "trial_type": "single-stim", "word": "radish", "stimulus": "<p id=\"stim\">RADISH</p>", "conditions": [24, 800, "v", 24000], "internal_node_id": "0.0-95.0", "trial": 3, "time_elapsed": 557504, "serialpos": 14, "key_press": -1, "wordID": 1157, "type": "PRES_VIS", "trial_index": 131}, "uniqueid": "MTK3419:3QBD8R3Z22Q6I9VWUKOHYZ60PEV4OX", "dateTime": 1520531892955}, {"current_trial": 132, "trialdata": {"rt": -1, "trial_type": "single-stim", "word": "sword", "stimulus": "<p id=\"stim\">SWORD</p>", "conditions": [24, 800, "v", 24000], "internal_node_id": "0.0-96.0", "trial": 3, "time_elapsed": 559242, "serialpos": 15, "key_press": -1, "wordID": 1422, "type": "PRES_VIS", "trial_index": 132}, "uniqueid": "MTK3419:3QBD8R3Z22Q6I9VWUKOHYZ60PEV4OX", "dateTime": 1520531894694}, {"current_trial": 133, "trialdata": {"rt": -1, "trial_type": "single-stim", "word": "whistle", "stimulus": "<p id=\"stim\">WHISTLE</p>", "conditions": [24, 800, "v", 24000], "internal_node_id": "0.0-97.0", "trial": 3, "time_elapsed": 561014, "serialpos": 16, "key_press": -1, "wordID": 1605, "type": "PRES_VIS", "trial_index": 133}, "uniqueid": "MTK3419:3QBD8R3Z22Q6I9VWUKOHYZ60PEV4OX", "dateTime": 1520531896465}, {"current_trial": 134, "trialdata": {"rt": -1, "trial_type": "single-stim", "word": "lunch", "stimulus": "<p id=\"stim\">LUNCH</p>", "conditions": [24, 800, "v", 24000], "internal_node_id": "0.0-98.0", "trial": 3, "time_elapsed": 562875, "serialpos": 17, "key_press": -1, "wordID": 848, "type": "PRES_VIS", "trial_index": 134}, "uniqueid": "MTK3419:3QBD8R3Z22Q6I9VWUKOHYZ60PEV4OX", "dateTime": 1520531898326}, {"current_trial": 135, "trialdata": {"rt": -1, "trial_type": "single-stim", "word": "france", "stimulus": "<p id=\"stim\">FRANCE</p>", "conditions": [24, 800, "v", 24000], "internal_node_id": "0.0-99.0", "trial": 3, "time_elapsed": 564793, "serialpos": 18, "key_press": -1, "wordID": 600, "type": "PRES_VIS", "trial_index": 135}, "uniqueid": "MTK3419:3QBD8R3Z22Q6I9VWUKOHYZ60PEV4OX", "dateTime": 1520531900244}, {"current_trial": 136, "trialdata": {"rt": -1, "trial_type": "single-stim", "word": "pigeon", "stimulus": "<p id=\"stim\">PIGEON</p>", "conditions": [24, 800, "v", 24000], "internal_node_id": "0.0-100.0", "trial": 3, "time_elapsed": 566675, "serialpos": 19, "key_press": -1, "wordID": 1064, "type": "PRES_VIS", "trial_index": 136}, "uniqueid": "MTK3419:3QBD8R3Z22Q6I9VWUKOHYZ60PEV4OX", "dateTime": 1520531902126}, {"current_trial": 137, "trialdata": {"rt": -1, "trial_type": "single-stim", "word": "fox", "stimulus": "<p id=\"stim\">FOX</p>", "conditions": [24, 800, "v", 24000], "internal_node_id": "0.0-101.0", "trial": 3, "time_elapsed": 568310, "serialpos": 20, "key_press": -1, "wordID": 597, "type": "PRES_VIS", "trial_index": 137}, "uniqueid": "MTK3419:3QBD8R3Z22Q6I9VWUKOHYZ60PEV4OX", "dateTime": 1520531903761}, {"current_trial": 138, "trialdata": {"rt": -1, "trial_type": "single-stim", "word": "jelly", "stimulus": "<p id=\"stim\">JELLY</p>", "conditions": [24, 800, "v", 24000], "internal_node_id": "0.0-102.0", "trial": 3, "time_elapsed": 570055, "serialpos": 21, "key_press": -1, "wordID": 754, "type": "PRES_VIS", "trial_index": 138}, "uniqueid": "MTK3419:3QBD8R3Z22Q6I9VWUKOHYZ60PEV4OX", "dateTime": 1520531905506}, {"current_trial": 139, "trialdata": {"rt": -1, "trial_type": "single-stim", "word": "yarn", "stimulus": "<p id=\"stim\">YARN</p>", "conditions": [24, 800, "v", 24000], "internal_node_id": "0.0-103.0", "trial": 3, "time_elapsed": 571961, "serialpos": 22, "key_press": -1, "wordID": 1630, "type": "PRES_VIS", "trial_index": 139}, "uniqueid": "MTK3419:3QBD8R3Z22Q6I9VWUKOHYZ60PEV4OX", "dateTime": 1520531907412}, {"current_trial": 140, "trialdata": {"rt": -1, "trial_type": "single-stim", "word": "garlic", "stimulus": "<p id=\"stim\">GARLIC</p>", "conditions": [24, 800, "v", 24000], "internal_node_id": "0.0-104.0", "trial": 3, "time_elapsed": 573589, "serialpos": 23, "key_press": -1, "wordID": 623, "type": "PRES_VIS", "trial_index": 140}, "uniqueid": "MTK3419:3QBD8R3Z22Q6I9VWUKOHYZ60PEV4OX", "dateTime": 1520531909040}, {"current_trial": 141, "trialdata": {"rt": -1, "trial_type": "single-stim", "stimulus": "", "internal_node_id": "0.0-105.0-0.0", "time_elapsed": 575794, "key_press": -1, "type": "PRE_RECALL_DELAY", "trial_index": 141}, "uniqueid": "MTK3419:3QBD8R3Z22Q6I9VWUKOHYZ60PEV4OX", "dateTime": 1520531911246}, {"current_trial": 142, "trialdata": {"rt": -1000, "trial_type": "single-audio", "stimulus": "/static/audio/400Hz.wav", "internal_node_id": "0.0-106.0", "time_elapsed": 576296, "key_press": -1, "type": "PRE_RECALL_ALERT", "trial_index": 142}, "uniqueid": "MTK3419:3QBD8R3Z22Q6I9VWUKOHYZ60PEV4OX", "dateTime": 1520531911747}, {"current_trial": 143, "trialdata": {"rt": [3039, 4201, 5519, 7029, 8773, 12343, 14385, 15327, 17181, 20502, 21661, 23223, 25025, 26107, 27341, 28571, 29639, 31805, 32986, 35058, 36215], "recwords": ["pastry", "report", "ointment", "skirt", "velvet", "sausage", "space", "donkey", "camel", "flipper", "garden", "clothes", "radish", "garlic", "sword", "lunch", "france", "pigeon", "fox", "jelly", "yarn"], "key_times": [2208, 2307, 2385, 2525, 2733, 2831, 3039, 3237, 3297, 3515, 3683, 3763, 3945, 4201, 4527, 4667, 4825, 4885, 5043, 5181, 5261, 5381, 5519, 6291, 6391, 6573, 6650, 6850, 7029, 7253, 7439, 7540, 8301, 8467, 8633, 8773, 9292, 10872, 11095, 11255, 11333, 11567, 11814, 11996, 12133, 12343, 13631, 13791, 13889, 14094, 14289, 14385, 14524, 14643, 14723, 14871, 14989, 15090, 15327, 16241, 16387, 16465, 16566, 16702, 17181, 19601, 19759, 19906, 20037, 20205, 20283, 20362, 20502, 20755, 20941, 21021, 21226, 21403, 21482, 21661, 21861, 21961, 22119, 22316, 22457, 22554, 22723, 23223, 24028, 24144, 24346, 24586, 24706, 24825, 25025, 25249, 25441, 25519, 25680, 25847, 25946, 26107, 26228, 26450, 26685, 26832, 27050, 27341, 27742, 27928, 28127, 28265, 28345, 28571, 28821, 29006, 29085, 29145, 29300, 29521, 29639, 30640, 30831, 31164, 31292, 31410, 31556, 31805, 32474, 32694, 32813, 32986, 34169, 34269, 34407, 34557, 34705, 35058, 35487, 35669, 35768, 36029, 36215], "trial_type": "free-recall", "conditions": [24, 800, "v", 24000], "internal_node_id": "0.0-107.0-0.0", "key_presses": [80, 65, 83, 84, 82, 89, 13, 82, 69, 80, 79, 82, 84, 13, 79, 73, 78, 84, 77, 69, 78, 84, 13, 83, 75, 73, 82, 84, 13, 86, 69, 76, 86, 69, 84, 13, 80, 8, 83, 65, 85, 83, 65, 71, 69, 13, 83, 80, 65, 67, 69, 13, 68, 79, 78, 75, 69, 89, 13, 67, 65, 77, 69, 76, 13, 70, 76, 73, 80, 80, 69, 82, 13, 71, 65, 82, 68, 69, 78, 13, 67, 76, 79, 84, 72, 69, 83, 13, 82, 65, 68, 73, 83, 72, 13, 71, 65, 82, 76, 73, 67, 13, 83, 87, 79, 82, 68, 13, 76, 85, 78, 67, 72, 13, 70, 82, 65, 78, 67, 69, 13, 80, 73, 71, 69, 79, 78, 13, 70, 79, 88, 13, 74, 69, 76, 76, 89, 13, 89, 65, 82, 78, 13], "trial": 3, "time_elapsed": 636300, "type": "FREE_RECALL", "trial_index": 143}, "uniqueid": "MTK3419:3QBD8R3Z22Q6I9VWUKOHYZ60PEV4OX", "dateTime": 1520531971752}, {"current_trial": 144, "trialdata": {"rt": 10399, "trial_type": "text", "internal_node_id": "0.0-108.0", "time_elapsed": 649620, "key_press": 32, "type": "INSTRUCTIONS", "trial_index": 144}, "uniqueid": "MTK3419:3QBD8R3Z22Q6I9VWUKOHYZ60PEV4OX", "dateTime": 1520531985071}, {"current_trial": 145, "trialdata": {"rt": [5964, 7670, 10844, 12084, 15052, 18860, 22148, 23464], "trial_type": "math-distractor", "key_times": [2984, 3112, 3502, 3912, 3929, 4418, 4558, 4692, 5672, 5819, 5964, 7376, 7502, 7670, 10499, 10644, 10844, 11940, 12084, 14736, 14863, 15052, 16233, 18067, 18668, 18860, 21896, 21994, 22148, 23238, 23464], "responses": ["20", "10", "18", "4", "15", "5", "21", "8"], "num2": [8, 2, 8, 2, 2, 2, 8, 1, 9], "num3": [8, 2, 5, 1, 8, 2, 8, 6, 1], "conditions": [24, 1600, "v", 24000], "internal_node_id": "0.0-109.0", "key_presses": [49, 50, 8, 50, 49, 8, 8, 8, 50, 48, 13, 49, 48, 13, 49, 56, 13, 52, 13, 49, 53, 13, 52, 8, 53, 13, 50, 49, 13, 56, 13], "trial": 4, "time_elapsed": 675628, "type": "DISTRACTOR", "trial_index": 145, "num1": [4, 6, 5, 1, 5, 1, 5, 1, 2]}, "uniqueid": "MTK3419:3QBD8R3Z22Q6I9VWUKOHYZ60PEV4OX", "dateTime": 1520532011079}, {"current_trial": 146, "trialdata": {"rt": -1, "trial_type": "single-stim", "stimulus": "<p id=\"stim\">10</p>", "internal_node_id": "0.0-110.0-0.0", "time_elapsed": 678636, "key_press": -1, "trial_index": 146}, "uniqueid": "MTK3419:3QBD8R3Z22Q6I9VWUKOHYZ60PEV4OX", "dateTime": 1520532014087}, {"current_trial": 147, "trialdata": {"rt": -1, "trial_type": "single-stim", "stimulus": "<p id=\"stim\">9</p>", "internal_node_id": "0.0-110.0-1.0", "time_elapsed": 679639, "key_press": -1, "trial_index": 147}, "uniqueid": "MTK3419:3QBD8R3Z22Q6I9VWUKOHYZ60PEV4OX", "dateTime": 1520532015091}, {"current_trial": 148, "trialdata": {"rt": -1, "trial_type": "single-stim", "stimulus": "<p id=\"stim\">8</p>", "internal_node_id": "0.0-110.0-2.0", "time_elapsed": 680643, "key_press": -1, "trial_index": 148}, "uniqueid": "MTK3419:3QBD8R3Z22Q6I9VWUKOHYZ60PEV4OX", "dateTime": 1520532016094}, {"current_trial": 149, "trialdata": {"rt": -1, "trial_type": "single-stim", "stimulus": "<p id=\"stim\">7</p>", "internal_node_id": "0.0-110.0-3.0", "time_elapsed": 681647, "key_press": -1, "trial_index": 149}, "uniqueid": "MTK3419:3QBD8R3Z22Q6I9VWUKOHYZ60PEV4OX", "dateTime": 1520532017098}, {"current_trial": 150, "trialdata": {"rt": -1, "trial_type": "single-stim", "stimulus": "<p id=\"stim\">6</p>", "internal_node_id": "0.0-110.0-4.0", "time_elapsed": 682652, "key_press": -1, "trial_index": 150}, "uniqueid": "MTK3419:3QBD8R3Z22Q6I9VWUKOHYZ60PEV4OX", "dateTime": 1520532018103}, {"current_trial": 151, "trialdata": {"rt": -1, "trial_type": "single-stim", "stimulus": "<p id=\"stim\">5</p>", "internal_node_id": "0.0-110.0-5.0", "time_elapsed": 683656, "key_press": -1, "trial_index": 151}, "uniqueid": "MTK3419:3QBD8R3Z22Q6I9VWUKOHYZ60PEV4OX", "dateTime": 1520532019107}, {"current_trial": 152, "trialdata": {"rt": -1, "trial_type": "single-stim", "stimulus": "<p id=\"stim\">4</p>", "internal_node_id": "0.0-110.0-6.0", "time_elapsed": 684660, "key_press": -1, "trial_index": 152}, "uniqueid": "MTK3419:3QBD8R3Z22Q6I9VWUKOHYZ60PEV4OX", "dateTime": 1520532020111}, {"current_trial": 153, "trialdata": {"rt": -1, "trial_type": "single-stim", "stimulus": "<p id=\"stim\">3</p>", "internal_node_id": "0.0-110.0-7.0", "time_elapsed": 685664, "key_press": -1, "trial_index": 153}, "uniqueid": "MTK3419:3QBD8R3Z22Q6I9VWUKOHYZ60PEV4OX", "dateTime": 1520532021115}, {"current_trial": 154, "trialdata": {"rt": -1, "trial_type": "single-stim", "stimulus": "<p id=\"stim\">2</p>", "internal_node_id": "0.0-110.0-8.0", "time_elapsed": 686668, "key_press": -1, "trial_index": 154}, "uniqueid": "MTK3419:3QBD8R3Z22Q6I9VWUKOHYZ60PEV4OX", "dateTime": 1520532022119}, {"current_trial": 155, "trialdata": {"rt": -1, "trial_type": "single-stim", "stimulus": "<p id=\"stim\">1</p>", "internal_node_id": "0.0-110.0-9.0", "time_elapsed": 687672, "key_press": -1, "trial_index": 155}, "uniqueid": "MTK3419:3QBD8R3Z22Q6I9VWUKOHYZ60PEV4OX", "dateTime": 1520532023123}, {"current_trial": 156, "trialdata": {"rt": -1, "trial_type": "single-stim", "stimulus": "<p id=\"stim\">+</p>", "internal_node_id": "0.0-111.0-0.0", "time_elapsed": 689175, "key_press": -1, "type": "FIXATION", "trial_index": 156}, "uniqueid": "MTK3419:3QBD8R3Z22Q6I9VWUKOHYZ60PEV4OX", "dateTime": 1520532024626}, {"current_trial": 157, "trialdata": {"rt": -1, "trial_type": "single-stim", "word": "poet", "stimulus": "<p id=\"stim\">POET</p>", "conditions": [24, 1600, "v", 24000], "internal_node_id": "0.0-112.0", "trial": 4, "time_elapsed": 690781, "serialpos": 0, "key_press": -1, "wordID": 1094, "type": "PRES_VIS", "trial_index": 157}, "uniqueid": "MTK3419:3QBD8R3Z22Q6I9VWUKOHYZ60PEV4OX", "dateTime": 1520532026232}, {"current_trial": 158, "trialdata": {"rt": -1, "trial_type": "single-stim", "word": "typist", "stimulus": "<p id=\"stim\">TYPIST</p>", "conditions": [24, 1600, "v", 24000], "internal_node_id": "0.0-113.0", "trial": 4, "time_elapsed": 693216, "serialpos": 1, "key_press": -1, "wordID": 1531, "type": "PRES_VIS", "trial_index": 158}, "uniqueid": "MTK3419:3QBD8R3Z22Q6I9VWUKOHYZ60PEV4OX", "dateTime": 1520532028667}, {"current_trial": 159, "trialdata": {"rt": -1, "trial_type": "single-stim", "word": "highway", "stimulus": "<p id=\"stim\">HIGHWAY</p>", "conditions": [24, 1600, "v", 24000], "internal_node_id": "0.0-114.0", "trial": 4, "time_elapsed": 695797, "serialpos": 2, "key_press": -1, "wordID": 706, "type": "PRES_VIS", "trial_index": 159}, "uniqueid": "MTK3419:3QBD8R3Z22Q6I9VWUKOHYZ60PEV4OX", "dateTime": 1520532031248}, {"current_trial": 160, "trialdata": {"rt": -1, "trial_type": "single-stim", "word": "taxi", "stimulus": "<p id=\"stim\">TAXI</p>", "conditions": [24, 1600, "v", 24000], "internal_node_id": "0.0-115.0", "trial": 4, "time_elapsed": 698553, "serialpos": 3, "key_press": -1, "wordID": 1437, "type": "PRES_VIS", "trial_index": 160}, "uniqueid": "MTK3419:3QBD8R3Z22Q6I9VWUKOHYZ60PEV4OX", "dateTime": 1520532034004}, {"current_trial": 161, "trialdata": {"rt": -1, "trial_type": "single-stim", "word": "pecan", "stimulus": "<p id=\"stim\">PECAN</p>", "conditions": [24, 1600, "v", 24000], "internal_node_id": "0.0-116.0", "trial": 4, "time_elapsed": 701323, "serialpos": 4, "key_press": -1, "wordID": 1035, "type": "PRES_VIS", "trial_index": 161}, "uniqueid": "MTK3419:3QBD8R3Z22Q6I9VWUKOHYZ60PEV4OX", "dateTime": 1520532036774}, {"current_trial": 162, "trialdata": {"rt": -1, "trial_type": "single-stim", "word": "possum", "stimulus": "<p id=\"stim\">POSSUM</p>", "conditions": [24, 1600, "v", 24000], "internal_node_id": "0.0-117.0", "trial": 4, "time_elapsed": 703803, "serialpos": 5, "key_press": -1, "wordID": 1111, "type": "PRES_VIS", "trial_index": 162}, "uniqueid": "MTK3419:3QBD8R3Z22Q6I9VWUKOHYZ60PEV4OX", "dateTime": 1520532039255}, {"current_trial": 163, "trialdata": {"rt": -1, "trial_type": "single-stim", "word": "muffin", "stimulus": "<p id=\"stim\">MUFFIN</p>", "conditions": [24, 1600, "v", 24000], "internal_node_id": "0.0-118.0", "trial": 4, "time_elapsed": 706387, "serialpos": 6, "key_press": -1, "wordID": 928, "type": "PRES_VIS", "trial_index": 163}, "uniqueid": "MTK3419:3QBD8R3Z22Q6I9VWUKOHYZ60PEV4OX", "dateTime": 1520532041838}, {"current_trial": 164, "trialdata": {"rt": -1, "trial_type": "single-stim", "word": "doughnut", "stimulus": "<p id=\"stim\">DOUGHNUT</p>", "conditions": [24, 1600, "v", 24000], "internal_node_id": "0.0-119.0", "trial": 4, "time_elapsed": 708990, "serialpos": 7, "key_press": -1, "wordID": 489, "type": "PRES_VIS", "trial_index": 164}, "uniqueid": "MTK3419:3QBD8R3Z22Q6I9VWUKOHYZ60PEV4OX", "dateTime": 1520532044441}, {"current_trial": 165, "trialdata": {"rt": -1, "trial_type": "single-stim", "word": "mars", "stimulus": "<p id=\"stim\">MARS</p>", "conditions": [24, 1600, "v", 24000], "internal_node_id": "0.0-120.0", "trial": 4, "time_elapsed": 711471, "serialpos": 8, "key_press": -1, "wordID": 872, "type": "PRES_VIS", "trial_index": 165}, "uniqueid": "MTK3419:3QBD8R3Z22Q6I9VWUKOHYZ60PEV4OX", "dateTime": 1520532046923}, {"current_trial": 166, "trialdata": {"rt": -1, "trial_type": "single-stim", "word": "spider", "stimulus": "<p id=\"stim\">SPIDER</p>", "conditions": [24, 1600, "v", 24000], "internal_node_id": "0.0-121.0", "trial": 4, "time_elapsed": 714204, "serialpos": 9, "key_press": -1, "wordID": 1350, "type": "PRES_VIS", "trial_index": 166}, "uniqueid": "MTK3419:3QBD8R3Z22Q6I9VWUKOHYZ60PEV4OX", "dateTime": 1520532049655}, {"current_trial": 167, "trialdata": {"rt": -1, "trial_type": "single-stim", "word": "bureau", "stimulus": "<p id=\"stim\">BUREAU</p>", "conditions": [24, 1600, "v", 24000], "internal_node_id": "0.0-122.0", "trial": 4, "time_elapsed": 716622, "serialpos": 10, "key_press": -1, "wordID": 198, "type": "PRES_VIS", "trial_index": 167}, "uniqueid": "MTK3419:3QBD8R3Z22Q6I9VWUKOHYZ60PEV4OX", "dateTime": 1520532052073}, {"current_trial": 168, "trialdata": {"rt": -1, "trial_type": "single-stim", "word": "citrus", "stimulus": "<p id=\"stim\">CITRUS</p>", "conditions": [24, 1600, "v", 24000], "internal_node_id": "0.0-123.0", "trial": 4, "time_elapsed": 719379, "serialpos": 11, "key_press": -1, "wordID": 312, "type": "PRES_VIS", "trial_index": 168}, "uniqueid": "MTK3419:3QBD8R3Z22Q6I9VWUKOHYZ60PEV4OX", "dateTime": 1520532054830}, {"current_trial": 169, "trialdata": {"rt": -1, "trial_type": "single-stim", "word": "creature", "stimulus": "<p id=\"stim\">CREATURE</p>", "conditions": [24, 1600, "v", 24000], "internal_node_id": "0.0-124.0", "trial": 4, "time_elapsed": 721955, "serialpos": 12, "key_press": -1, "wordID": 402, "type": "PRES_VIS", "trial_index": 169}, "uniqueid": "MTK3419:3QBD8R3Z22Q6I9VWUKOHYZ60PEV4OX", "dateTime": 1520532057406}, {"current_trial": 170, "trialdata": {"rt": -1, "trial_type": "single-stim", "word": "cattle", "stimulus": "<p id=\"stim\">CATTLE</p>", "conditions": [24, 1600, "v", 24000], "internal_node_id": "0.0-125.0", "trial": 4, "time_elapsed": 724561, "serialpos": 13, "key_press": -1, "wordID": 260, "type": "PRES_VIS", "trial_index": 170}, "uniqueid": "MTK3419:3QBD8R3Z22Q6I9VWUKOHYZ60PEV4OX", "dateTime": 1520532060012}, {"current_trial": 171, "trialdata": {"rt": -1, "trial_type": "single-stim", "word": "quail", "stimulus": "<p id=\"stim\">QUAIL</p>", "conditions": [24, 1600, "v", 24000], "internal_node_id": "0.0-126.0", "trial": 4, "time_elapsed": 727225, "serialpos": 14, "key_press": -1, "wordID": 1146, "type": "PRES_VIS", "trial_index": 171}, "uniqueid": "MTK3419:3QBD8R3Z22Q6I9VWUKOHYZ60PEV4OX", "dateTime": 1520532062676}, {"current_trial": 172, "trialdata": {"rt": -1, "trial_type": "single-stim", "word": "puddle", "stimulus": "<p id=\"stim\">PUDDLE</p>", "conditions": [24, 1600, "v", 24000], "internal_node_id": "0.0-127.0", "trial": 4, "time_elapsed": 729652, "serialpos": 15, "key_press": -1, "wordID": 1139, "type": "PRES_VIS", "trial_index": 172}, "uniqueid": "MTK3419:3QBD8R3Z22Q6I9VWUKOHYZ60PEV4OX", "dateTime": 1520532065103}, {"current_trial": 173, "trialdata": {"rt": -1, "trial_type": "single-stim", "word": "nightgown", "stimulus": "<p id=\"stim\">NIGHTGOWN</p>", "conditions": [24, 1600, "v", 24000], "internal_node_id": "0.0-128.0", "trial": 4, "time_elapsed": 732107, "serialpos": 16, "key_press": -1, "wordID": 952, "type": "PRES_VIS", "trial_index": 173}, "uniqueid": "MTK3419:3QBD8R3Z22Q6I9VWUKOHYZ60PEV4OX", "dateTime": 1520532067558}, {"current_trial": 174, "trialdata": {"rt": -1, "trial_type": "single-stim", "word": "suspect", "stimulus": "<p id=\"stim\">SUSPECT</p>", "conditions": [24, 1600, "v", 24000], "internal_node_id": "0.0-129.0", "trial": 4, "time_elapsed": 734784, "serialpos": 17, "key_press": -1, "wordID": 1414, "type": "PRES_VIS", "trial_index": 174}, "uniqueid": "MTK3419:3QBD8R3Z22Q6I9VWUKOHYZ60PEV4OX", "dateTime": 1520532070235}, {"current_trial": 175, "trialdata": {"rt": -1, "trial_type": "single-stim", "word": "suitcase", "stimulus": "<p id=\"stim\">SUITCASE</p>", "conditions": [24, 1600, "v", 24000], "internal_node_id": "0.0-130.0", "trial": 4, "time_elapsed": 737424, "serialpos": 18, "key_press": -1, "wordID": 1402, "type": "PRES_VIS", "trial_index": 175}, "uniqueid": "MTK3419:3QBD8R3Z22Q6I9VWUKOHYZ60PEV4OX", "dateTime": 1520532072875}, {"current_trial": 176, "trialdata": {"rt": -1, "trial_type": "single-stim", "word": "shark", "stimulus": "<p id=\"stim\">SHARK</p>", "conditions": [24, 1600, "v", 24000], "internal_node_id": "0.0-131.0", "trial": 4, "time_elapsed": 739952, "serialpos": 19, "key_press": -1, "wordID": 1274, "type": "PRES_VIS", "trial_index": 176}, "uniqueid": "MTK3419:3QBD8R3Z22Q6I9VWUKOHYZ60PEV4OX", "dateTime": 1520532075403}, {"current_trial": 177, "trialdata": {"rt": -1, "trial_type": "single-stim", "word": "mammal", "stimulus": "<p id=\"stim\">MAMMAL</p>", "conditions": [24, 1600, "v", 24000], "internal_node_id": "0.0-132.0", "trial": 4, "time_elapsed": 742415, "serialpos": 20, "key_press": -1, "wordID": 860, "type": "PRES_VIS", "trial_index": 177}, "uniqueid": "MTK3419:3QBD8R3Z22Q6I9VWUKOHYZ60PEV4OX", "dateTime": 1520532077866}, {"current_trial": 178, "trialdata": {"rt": -1, "trial_type": "single-stim", "word": "bison", "stimulus": "<p id=\"stim\">BISON</p>", "conditions": [24, 1600, "v", 24000], "internal_node_id": "0.0-133.0", "trial": 4, "time_elapsed": 744900, "serialpos": 21, "key_press": -1, "wordID": 130, "type": "PRES_VIS", "trial_index": 178}, "uniqueid": "MTK3419:3QBD8R3Z22Q6I9VWUKOHYZ60PEV4OX", "dateTime": 1520532080351}, {"current_trial": 179, "trialdata": {"rt": -1, "trial_type": "single-stim", "word": "postage", "stimulus": "<p id=\"stim\">POSTAGE</p>", "conditions": [24, 1600, "v", 24000], "internal_node_id": "0.0-134.0", "trial": 4, "time_elapsed": 747308, "serialpos": 22, "key_press": -1, "wordID": 1112, "type": "PRES_VIS", "trial_index": 179}, "uniqueid": "MTK3419:3QBD8R3Z22Q6I9VWUKOHYZ60PEV4OX", "dateTime": 1520532082759}, {"current_trial": 180, "trialdata": {"rt": -1, "trial_type": "single-stim", "word": "crevice", "stimulus": "<p id=\"stim\">CREVICE</p>", "conditions": [24, 1600, "v", 24000], "internal_node_id": "0.0-135.0", "trial": 4, "time_elapsed": 749967, "serialpos": 23, "key_press": -1, "wordID": 404, "type": "PRES_VIS", "trial_index": 180}, "uniqueid": "MTK3419:3QBD8R3Z22Q6I9VWUKOHYZ60PEV4OX", "dateTime": 1520532085418}, {"current_trial": 181, "trialdata": {"rt": -1, "trial_type": "single-stim", "stimulus": "", "internal_node_id": "0.0-136.0-0.0", "time_elapsed": 752241, "key_press": -1, "type": "PRE_RECALL_DELAY", "trial_index": 181}, "uniqueid": "MTK3419:3QBD8R3Z22Q6I9VWUKOHYZ60PEV4OX", "dateTime": 1520532087692}, {"current_trial": 182, "trialdata": {"rt": -1000, "trial_type": "single-audio", "stimulus": "/static/audio/400Hz.wav", "internal_node_id": "0.0-137.0", "time_elapsed": 752742, "key_press": -1, "type": "PRE_RECALL_ALERT", "trial_index": 182}, "uniqueid": "MTK3419:3QBD8R3Z22Q6I9VWUKOHYZ60PEV4OX", "dateTime": 1520532088193}, {"current_trial": 183, "trialdata": {"rt": [3516, 5167, 6502, 8086, 9447, 11961, 13701, 15148, 16638, 17817, 19980, 21737, 23600, 24716, 26297, 27934, 31062, 32842, 34168, 35438, 37618, 38935, 40228, 41892], "recwords": ["suspect", "suitcase", "shark", "mammal", "bison", "postage", "crevice", "nightgown", "mars", "spider", "creature", "citrus", "cattle", "quail", "bureau", "puddle", "typist", "taxi", "pecan", "possum", "muffin", "doughnut", "poet", "highway"], "key_times": [2181, 2433, 2586, 2685, 2843, 3053, 3275, 3516, 3804, 4011, 4110, 4269, 4615, 4788, 4868, 5029, 5167, 5389, 5557, 5687, 5785, 5945, 6502, 6945, 7063, 7278, 7473, 7602, 7748, 8086, 8811, 8871, 9001, 9079, 9199, 9447, 9767, 9945, 9964, 10207, 10437, 10572, 10698, 10975, 11092, 11213, 11406, 11655, 11793, 11961, 12229, 12767, 12867, 13095, 13192, 13357, 13580, 13701, 13941, 14039, 14158, 14259, 14316, 14553, 14633, 14779, 14879, 15148, 16082, 16182, 16305, 16479, 16638, 16825, 16990, 17170, 17288, 17489, 17607, 17817, 18659, 18853, 18932, 19050, 19361, 19478, 19578, 19678, 19980, 20340, 20420, 20540, 20754, 20904, 21123, 21737, 22135, 22254, 22491, 22626, 23322, 23440, 23600, 23801, 23980, 24110, 24365, 24482, 24716, 24874, 24995, 25112, 25368, 25506, 25628, 26297, 26930, 27108, 27395, 27560, 27678, 27797, 27934, 30066, 30226, 30364, 30531, 30670, 30788, 31062, 31423, 31541, 31787, 32014, 32842, 33360, 33480, 33696, 33850, 33950, 34168, 34479, 34644, 34764, 34903, 35002, 35217, 35438, 36112, 36299, 36470, 36630, 36789, 37102, 37276, 37396, 37618, 37836, 37956, 38017, 38114, 38254, 38526, 38701, 38834, 38935, 39261, 39424, 39563, 39682, 40228, 40790, 40891, 41008, 41088, 41378, 41496, 41596, 41892], "trial_type": "free-recall", "conditions": [24, 1600, "v", 24000], "internal_node_id": "0.0-138.0-0.0", "key_presses": [83, 85, 83, 80, 69, 67, 84, 13, 83, 85, 73, 84, 67, 65, 83, 69, 13, 83, 72, 65, 82, 75, 13, 77, 65, 77, 77, 65, 76, 13, 66, 73, 83, 79, 78, 13, 80, 83, 79, 84, 8, 8, 8, 79, 83, 84, 65, 71, 69, 13, 67, 82, 69, 86, 73, 67, 69, 13, 78, 73, 71, 72, 84, 71, 79, 87, 78, 13, 77, 65, 82, 83, 13, 83, 80, 73, 68, 69, 82, 13, 67, 82, 69, 65, 84, 85, 82, 69, 13, 67, 73, 84, 82, 85, 83, 13, 67, 65, 84, 84, 76, 69, 13, 81, 85, 65, 73, 76, 13, 66, 85, 82, 69, 65, 85, 13, 80, 85, 68, 68, 76, 69, 13, 84, 89, 80, 73, 83, 84, 13, 84, 65, 88, 73, 13, 80, 69, 67, 65, 78, 13, 80, 79, 83, 83, 85, 77, 13, 77, 85, 70, 70, 85, 8, 73, 78, 13, 68, 79, 85, 71, 72, 78, 85, 84, 13, 80, 79, 69, 84, 13, 72, 73, 71, 72, 87, 65, 89, 13], "trial": 4, "time_elapsed": 812746, "type": "FREE_RECALL", "trial_index": 183}, "uniqueid": "MTK3419:3QBD8R3Z22Q6I9VWUKOHYZ60PEV4OX", "dateTime": 1520532148198}, {"current_trial": 184, "trialdata": {"rt": 16084, "trial_type": "text", "internal_node_id": "0.0-139.0", "time_elapsed": 830833, "key_press": 76, "type": "INSTRUCTIONS", "trial_index": 184}, "uniqueid": "MTK3419:3QBD8R3Z22Q6I9VWUKOHYZ60PEV4OX", "dateTime": 1520532166284}, {"current_trial": 185, "trialdata": {"rt": [2584, 5191, 7380, 10288], "trial_type": "math-distractor", "key_times": [2310, 2376, 2584, 4863, 4980, 5191, 7167, 7283, 7380, 9982, 10120, 10288], "responses": ["15", "19", "10", "13"], "num2": [6, 6, 3, 3, 3], "num3": [4, 7, 1, 2, 3], "conditions": [24, 800, "v", 12000], "internal_node_id": "0.0-140.0", "key_presses": [49, 53, 13, 49, 57, 13, 49, 48, 13, 49, 51, 13], "trial": 5, "time_elapsed": 844841, "type": "DISTRACTOR", "trial_index": 185, "num1": [5, 6, 6, 8, 2]}, "uniqueid": "MTK3419:3QBD8R3Z22Q6I9VWUKOHYZ60PEV4OX", "dateTime": 1520532180292}, {"current_trial": 186, "trialdata": {"rt": -1, "trial_type": "single-stim", "stimulus": "<p id=\"stim\">10</p>", "internal_node_id": "0.0-141.0-0.0", "time_elapsed": 847847, "key_press": -1, "trial_index": 186}, "uniqueid": "MTK3419:3QBD8R3Z22Q6I9VWUKOHYZ60PEV4OX", "dateTime": 1520532183298}, {"current_trial": 187, "trialdata": {"rt": -1, "trial_type": "single-stim", "stimulus": "<p id=\"stim\">9</p>", "internal_node_id": "0.0-141.0-1.0", "time_elapsed": 848853, "key_press": -1, "trial_index": 187}, "uniqueid": "MTK3419:3QBD8R3Z22Q6I9VWUKOHYZ60PEV4OX", "dateTime": 1520532184304}, {"current_trial": 188, "trialdata": {"rt": -1, "trial_type": "single-stim", "stimulus": "<p id=\"stim\">8</p>", "internal_node_id": "0.0-141.0-2.0", "time_elapsed": 849858, "key_press": -1, "trial_index": 188}, "uniqueid": "MTK3419:3QBD8R3Z22Q6I9VWUKOHYZ60PEV4OX", "dateTime": 1520532185309}, {"current_trial": 189, "trialdata": {"rt": -1, "trial_type": "single-stim", "stimulus": "<p id=\"stim\">7</p>", "internal_node_id": "0.0-141.0-3.0", "time_elapsed": 850861, "key_press": -1, "trial_index": 189}, "uniqueid": "MTK3419:3QBD8R3Z22Q6I9VWUKOHYZ60PEV4OX", "dateTime": 1520532186313}, {"current_trial": 190, "trialdata": {"rt": -1, "trial_type": "single-stim", "stimulus": "<p id=\"stim\">6</p>", "internal_node_id": "0.0-141.0-4.0", "time_elapsed": 851863, "key_press": -1, "trial_index": 190}, "uniqueid": "MTK3419:3QBD8R3Z22Q6I9VWUKOHYZ60PEV4OX", "dateTime": 1520532187314}, {"current_trial": 191, "trialdata": {"rt": -1, "trial_type": "single-stim", "stimulus": "<p id=\"stim\">5</p>", "internal_node_id": "0.0-141.0-5.0", "time_elapsed": 852868, "key_press": -1, "trial_index": 191}, "uniqueid": "MTK3419:3QBD8R3Z22Q6I9VWUKOHYZ60PEV4OX", "dateTime": 1520532188319}, {"current_trial": 192, "trialdata": {"rt": -1, "trial_type": "single-stim", "stimulus": "<p id=\"stim\">4</p>", "internal_node_id": "0.0-141.0-6.0", "time_elapsed": 853872, "key_press": -1, "trial_index": 192}, "uniqueid": "MTK3419:3QBD8R3Z22Q6I9VWUKOHYZ60PEV4OX", "dateTime": 1520532189323}, {"current_trial": 193, "trialdata": {"rt": -1, "trial_type": "single-stim", "stimulus": "<p id=\"stim\">3</p>", "internal_node_id": "0.0-141.0-7.0", "time_elapsed": 854877, "key_press": -1, "trial_index": 193}, "uniqueid": "MTK3419:3QBD8R3Z22Q6I9VWUKOHYZ60PEV4OX", "dateTime": 1520532190328}, {"current_trial": 194, "trialdata": {"rt": -1, "trial_type": "single-stim", "stimulus": "<p id=\"stim\">2</p>", "internal_node_id": "0.0-141.0-8.0", "time_elapsed": 855881, "key_press": -1, "trial_index": 194}, "uniqueid": "MTK3419:3QBD8R3Z22Q6I9VWUKOHYZ60PEV4OX", "dateTime": 1520532191332}, {"current_trial": 195, "trialdata": {"rt": -1, "trial_type": "single-stim", "stimulus": "<p id=\"stim\">1</p>", "internal_node_id": "0.0-141.0-9.0", "time_elapsed": 856885, "key_press": -1, "trial_index": 195}, "uniqueid": "MTK3419:3QBD8R3Z22Q6I9VWUKOHYZ60PEV4OX", "dateTime": 1520532192336}, {"current_trial": 196, "trialdata": {"rt": -1, "trial_type": "single-stim", "stimulus": "<p id=\"stim\">+</p>", "internal_node_id": "0.0-142.0-0.0", "time_elapsed": 858389, "key_press": -1, "type": "FIXATION", "trial_index": 196}, "uniqueid": "MTK3419:3QBD8R3Z22Q6I9VWUKOHYZ60PEV4OX", "dateTime": 1520532193840}, {"current_trial": 197, "trialdata": {"rt": -1, "trial_type": "single-stim", "word": "frame", "stimulus": "<p id=\"stim\">FRAME</p>", "conditions": [24, 800, "v", 12000], "internal_node_id": "0.0-143.0", "trial": 5, "time_elapsed": 859193, "serialpos": 0, "key_press": -1, "wordID": 599, "type": "PRES_VIS", "trial_index": 197}, "uniqueid": "MTK3419:3QBD8R3Z22Q6I9VWUKOHYZ60PEV4OX", "dateTime": 1520532194644}, {"current_trial": 198, "trialdata": {"rt": -1, "trial_type": "single-stim", "word": "rod", "stimulus": "<p id=\"stim\">ROD</p>", "conditions": [24, 800, "v", 12000], "internal_node_id": "0.0-144.0", "trial": 5, "time_elapsed": 860865, "serialpos": 1, "key_press": -1, "wordID": 1202, "type": "PRES_VIS", "trial_index": 198}, "uniqueid": "MTK3419:3QBD8R3Z22Q6I9VWUKOHYZ60PEV4OX", "dateTime": 1520532196316}, {"current_trial": 199, "trialdata": {"rt": -1, "trial_type": "single-stim", "word": "leopard", "stimulus": "<p id=\"stim\">LEOPARD</p>", "conditions": [24, 800, "v", 12000], "internal_node_id": "0.0-145.0", "trial": 5, "time_elapsed": 862473, "serialpos": 2, "key_press": -1, "wordID": 811, "type": "PRES_VIS", "trial_index": 199}, "uniqueid": "MTK3419:3QBD8R3Z22Q6I9VWUKOHYZ60PEV4OX", "dateTime": 1520532197924}, {"current_trial": 200, "trialdata": {"rt": -1, "trial_type": "single-stim", "word": "receipt", "stimulus": "<p id=\"stim\">RECEIPT</p>", "conditions": [24, 800, "v", 12000], "internal_node_id": "0.0-146.0", "trial": 5, "time_elapsed": 864395, "serialpos": 3, "key_press": -1, "wordID": 1172, "type": "PRES_VIS", "trial_index": 200}, "uniqueid": "MTK3419:3QBD8R3Z22Q6I9VWUKOHYZ60PEV4OX", "dateTime": 1520532199846}, {"current_trial": 201, "trialdata": {"rt": -1, "trial_type": "single-stim", "word": "wardrobe", "stimulus": "<p id=\"stim\">WARDROBE</p>", "conditions": [24, 800, "v", 12000], "internal_node_id": "0.0-147.0", "trial": 5, "time_elapsed": 866326, "serialpos": 4, "key_press": -1, "wordID": 1586, "type": "PRES_VIS", "trial_index": 201}, "uniqueid": "MTK3419:3QBD8R3Z22Q6I9VWUKOHYZ60PEV4OX", "dateTime": 1520532201777}, {"current_trial": 202, "trialdata": {"rt": -1, "trial_type": "single-stim", "word": "friend", "stimulus": "<p id=\"stim\">FRIEND</p>", "conditions": [24, 800, "v", 12000], "internal_node_id": "0.0-148.0", "trial": 5, "time_elapsed": 868069, "serialpos": 5, "key_press": -1, "wordID": 605, "type": "PRES_VIS", "trial_index": 202}, "uniqueid": "MTK3419:3QBD8R3Z22Q6I9VWUKOHYZ60PEV4OX", "dateTime": 1520532203520}, {"current_trial": 203, "trialdata": {"rt": -1, "trial_type": "single-stim", "word": "item", "stimulus": "<p id=\"stim\">ITEM</p>", "conditions": [24, 800, "v", 12000], "internal_node_id": "0.0-149.0", "trial": 5, "time_elapsed": 869968, "serialpos": 6, "key_press": -1, "wordID": 745, "type": "PRES_VIS", "trial_index": 203}, "uniqueid": "MTK3419:3QBD8R3Z22Q6I9VWUKOHYZ60PEV4OX", "dateTime": 1520532205419}, {"current_trial": 204, "trialdata": {"rt": -1, "trial_type": "single-stim", "word": "venus", "stimulus": "<p id=\"stim\">VENUS</p>", "conditions": [24, 800, "v", 12000], "internal_node_id": "0.0-150.0", "trial": 5, "time_elapsed": 871725, "serialpos": 7, "key_press": -1, "wordID": 1556, "type": "PRES_VIS", "trial_index": 204}, "uniqueid": "MTK3419:3QBD8R3Z22Q6I9VWUKOHYZ60PEV4OX", "dateTime": 1520532207176}, {"current_trial": 205, "trialdata": {"rt": -1, "trial_type": "single-stim", "word": "blouse", "stimulus": "<p id=\"stim\">BLOUSE</p>", "conditions": [24, 800, "v", 12000], "internal_node_id": "0.0-151.0", "trial": 5, "time_elapsed": 873413, "serialpos": 8, "key_press": -1, "wordID": 138, "type": "PRES_VIS", "trial_index": 205}, "uniqueid": "MTK3419:3QBD8R3Z22Q6I9VWUKOHYZ60PEV4OX", "dateTime": 1520532208864}, {"current_trial": 206, "trialdata": {"rt": -1, "trial_type": "single-stim", "word": "shirt", "stimulus": "<p id=\"stim\">SHIRT</p>", "conditions": [24, 800, "v", 12000], "internal_node_id": "0.0-152.0", "trial": 5, "time_elapsed": 875238, "serialpos": 9, "key_press": -1, "wordID": 1286, "type": "PRES_VIS", "trial_index": 206}, "uniqueid": "MTK3419:3QBD8R3Z22Q6I9VWUKOHYZ60PEV4OX", "dateTime": 1520532210689}, {"current_trial": 207, "trialdata": {"rt": -1, "trial_type": "single-stim", "word": "infant", "stimulus": "<p id=\"stim\">INFANT</p>", "conditions": [24, 800, "v", 12000], "internal_node_id": "0.0-153.0", "trial": 5, "time_elapsed": 877161, "serialpos": 10, "key_press": -1, "wordID": 736, "type": "PRES_VIS", "trial_index": 207}, "uniqueid": "MTK3419:3QBD8R3Z22Q6I9VWUKOHYZ60PEV4OX", "dateTime": 1520532212612}, {"current_trial": 208, "trialdata": {"rt": -1, "trial_type": "single-stim", "word": "crib", "stimulus": "<p id=\"stim\">CRIB</p>", "conditions": [24, 800, "v", 12000], "internal_node_id": "0.0-154.0", "trial": 5, "time_elapsed": 879143, "serialpos": 11, "key_press": -1, "wordID": 406, "type": "PRES_VIS", "trial_index": 208}, "uniqueid": "MTK3419:3QBD8R3Z22Q6I9VWUKOHYZ60PEV4OX", "dateTime": 1520532214595}, {"current_trial": 209, "trialdata": {"rt": -1, "trial_type": "single-stim", "word": "plaster", "stimulus": "<p id=\"stim\">PLASTER</p>", "conditions": [24, 800, "v", 12000], "internal_node_id": "0.0-155.0", "trial": 5, "time_elapsed": 880817, "serialpos": 12, "key_press": -1, "wordID": 1084, "type": "PRES_VIS", "trial_index": 209}, "uniqueid": "MTK3419:3QBD8R3Z22Q6I9VWUKOHYZ60PEV4OX", "dateTime": 1520532216268}, {"current_trial": 210, "trialdata": {"rt": -1, "trial_type": "single-stim", "word": "husband", "stimulus": "<p id=\"stim\">HUSBAND</p>", "conditions": [24, 800, "v", 12000], "internal_node_id": "0.0-156.0", "trial": 5, "time_elapsed": 882515, "serialpos": 13, "key_press": -1, "wordID": 727, "type": "PRES_VIS", "trial_index": 210}, "uniqueid": "MTK3419:3QBD8R3Z22Q6I9VWUKOHYZ60PEV4OX", "dateTime": 1520532217966}, {"current_trial": 211, "trialdata": {"rt": -1, "trial_type": "single-stim", "word": "hiker", "stimulus": "<p id=\"stim\">HIKER</p>", "conditions": [24, 800, "v", 12000], "internal_node_id": "0.0-157.0", "trial": 5, "time_elapsed": 884301, "serialpos": 14, "key_press": -1, "wordID": 707, "type": "PRES_VIS", "trial_index": 211}, "uniqueid": "MTK3419:3QBD8R3Z22Q6I9VWUKOHYZ60PEV4OX", "dateTime": 1520532219752}, {"current_trial": 212, "trialdata": {"rt": -1, "trial_type": "single-stim", "word": "shelter", "stimulus": "<p id=\"stim\">SHELTER</p>", "conditions": [24, 800, "v", 12000], "internal_node_id": "0.0-158.0", "trial": 5, "time_elapsed": 886177, "serialpos": 15, "key_press": -1, "wordID": 1281, "type": "PRES_VIS", "trial_index": 212}, "uniqueid": "MTK3419:3QBD8R3Z22Q6I9VWUKOHYZ60PEV4OX", "dateTime": 1520532221629}, {"current_trial": 213, "trialdata": {"rt": -1, "trial_type": "single-stim", "word": "wrist", "stimulus": "<p id=\"stim\">WRIST</p>", "conditions": [24, 800, "v", 12000], "internal_node_id": "0.0-159.0", "trial": 5, "time_elapsed": 887941, "serialpos": 16, "key_press": -1, "wordID": 1625, "type": "PRES_VIS", "trial_index": 213}, "uniqueid": "MTK3419:3QBD8R3Z22Q6I9VWUKOHYZ60PEV4OX", "dateTime": 1520532223392}, {"current_trial": 214, "trialdata": {"rt": -1, "trial_type": "single-stim", "word": "snake", "stimulus": "<p id=\"stim\">SNAKE</p>", "conditions": [24, 800, "v", 12000], "internal_node_id": "0.0-160.0", "trial": 5, "time_elapsed": 889914, "serialpos": 17, "key_press": -1, "wordID": 1332, "type": "PRES_VIS", "trial_index": 214}, "uniqueid": "MTK3419:3QBD8R3Z22Q6I9VWUKOHYZ60PEV4OX", "dateTime": 1520532225365}, {"current_trial": 215, "trialdata": {"rt": -1, "trial_type": "single-stim", "word": "turtle", "stimulus": "<p id=\"stim\">TURTLE</p>", "conditions": [24, 800, "v", 12000], "internal_node_id": "0.0-161.0", "trial": 5, "time_elapsed": 891910, "serialpos": 18, "key_press": -1, "wordID": 1521, "type": "PRES_VIS", "trial_index": 215}, "uniqueid": "MTK3419:3QBD8R3Z22Q6I9VWUKOHYZ60PEV4OX", "dateTime": 1520532227361}, {"current_trial": 216, "trialdata": {"rt": -1, "trial_type": "single-stim", "word": "motel", "stimulus": "<p id=\"stim\">MOTEL</p>", "conditions": [24, 800, "v", 12000], "internal_node_id": "0.0-162.0", "trial": 5, "time_elapsed": 893521, "serialpos": 19, "key_press": -1, "wordID": 918, "type": "PRES_VIS", "trial_index": 216}, "uniqueid": "MTK3419:3QBD8R3Z22Q6I9VWUKOHYZ60PEV4OX", "dateTime": 1520532228972}, {"current_trial": 217, "trialdata": {"rt": -1, "trial_type": "single-stim", "word": "finger", "stimulus": "<p id=\"stim\">FINGER</p>", "conditions": [24, 800, "v", 12000], "internal_node_id": "0.0-163.0", "trial": 5, "time_elapsed": 895493, "serialpos": 20, "key_press": -1, "wordID": 566, "type": "PRES_VIS", "trial_index": 217}, "uniqueid": "MTK3419:3QBD8R3Z22Q6I9VWUKOHYZ60PEV4OX", "dateTime": 1520532230944}, {"current_trial": 218, "trialdata": {"rt": -1, "trial_type": "single-stim", "word": "casket", "stimulus": "<p id=\"stim\">CASKET</p>", "conditions": [24, 800, "v", 12000], "internal_node_id": "0.0-164.0", "trial": 5, "time_elapsed": 897221, "serialpos": 21, "key_press": -1, "wordID": 254, "type": "PRES_VIS", "trial_index": 218}, "uniqueid": "MTK3419:3QBD8R3Z22Q6I9VWUKOHYZ60PEV4OX", "dateTime": 1520532232672}, {"current_trial": 219, "trialdata": {"rt": -1, "trial_type": "single-stim", "word": "gravel", "stimulus": "<p id=\"stim\">GRAVEL</p>", "conditions": [24, 800, "v", 12000], "internal_node_id": "0.0-165.0", "trial": 5, "time_elapsed": 898888, "serialpos": 22, "key_press": -1, "wordID": 658, "type": "PRES_VIS", "trial_index": 219}, "uniqueid": "MTK3419:3QBD8R3Z22Q6I9VWUKOHYZ60PEV4OX", "dateTime": 1520532234339}, {"current_trial": 220, "trialdata": {"rt": -1, "trial_type": "single-stim", "word": "contract", "stimulus": "<p id=\"stim\">CONTRACT</p>", "conditions": [24, 800, "v", 12000], "internal_node_id": "0.0-166.0", "trial": 5, "time_elapsed": 900871, "serialpos": 23, "key_press": -1, "wordID": 367, "type": "PRES_VIS", "trial_index": 220}, "uniqueid": "MTK3419:3QBD8R3Z22Q6I9VWUKOHYZ60PEV4OX", "dateTime": 1520532236322}, {"current_trial": 221, "trialdata": {"rt": -1, "trial_type": "single-stim", "stimulus": "", "internal_node_id": "0.0-167.0-0.0", "time_elapsed": 903049, "key_press": -1, "type": "PRE_RECALL_DELAY", "trial_index": 221}, "uniqueid": "MTK3419:3QBD8R3Z22Q6I9VWUKOHYZ60PEV4OX", "dateTime": 1520532238500}, {"current_trial": 222, "trialdata": {"rt": -1000, "trial_type": "single-audio", "stimulus": "/static/audio/400Hz.wav", "internal_node_id": "0.0-168.0", "time_elapsed": 903550, "key_press": -1, "type": "PRE_RECALL_ALERT", "trial_index": 222}, "uniqueid": "MTK3419:3QBD8R3Z22Q6I9VWUKOHYZ60PEV4OX", "dateTime": 1520532239001}, {"current_trial": 223, "trialdata": {"rt": [4808, 5882, 7189, 8420, 9897, 10930, 12281, 13617, 14832, 15999, 17599, 20296, 21417, 22747, 24084, 26299, 27547, 28438, 29466, 31273, 32647, 33919, 35185], "recwords": ["plaster", "infant", "husband", "shirt", "crib", "turtle", "motel", "hiker", "shelter", "wrist", "snake", "frame", "rod", "leopard", "receipt", "wardrobe", "friend", "item", "venus", "blouse", "finger", "casket", "contract"], "key_times": [3905, 4094, 4234, 4294, 4452, 4572, 4691, 4808, 5031, 5150, 5250, 5387, 5488, 5626, 5882, 6363, 6493, 6592, 6772, 6890, 6990, 7148, 7189, 7628, 7748, 7845, 7925, 8126, 8420, 9200, 9394, 9511, 9651, 9897, 10038, 10240, 10340, 10544, 10644, 10810, 10930, 11578, 11726, 11805, 11923, 12044, 12281, 12893, 13012, 13196, 13314, 13393, 13617, 14010, 14110, 14268, 14387, 14485, 14634, 14732, 14832, 15038, 15158, 15257, 15376, 15742, 15781, 15863, 15999, 16829, 17070, 17190, 17307, 17388, 17599, 19577, 19839, 19959, 20037, 20158, 20296, 20960, 21147, 21245, 21417, 21634, 21733, 21854, 21971, 22238, 22338, 22599, 22747, 23038, 23138, 23364, 23547, 23674, 23811, 23892, 24084, 24922, 25100, 25179, 25400, 25625, 25764, 25928, 26138, 26299, 26815, 27003, 27084, 27181, 27262, 27400, 27547, 27908, 28008, 28125, 28226, 28438, 28683, 28830, 28967, 29137, 29328, 29466, 30648, 30747, 30915, 30975, 31054, 31173, 31273, 31537, 32052, 32149, 32267, 32403, 32501, 32647, 32993, 33125, 33284, 33481, 33622, 33780, 33919, 34180, 34240, 34319, 34457, 34625, 34725, 34953, 35126, 35185], "trial_type": "free-recall", "conditions": [24, 800, "v", 12000], "internal_node_id": "0.0-169.0-0.0", "key_presses": [80, 76, 65, 83, 84, 69, 82, 13, 73, 78, 70, 65, 78, 84, 13, 72, 85, 83, 66, 65, 78, 68, 13, 83, 72, 73, 82, 84, 13, 67, 82, 73, 66, 13, 84, 85, 82, 84, 76, 69, 13, 77, 79, 84, 69, 76, 13, 72, 73, 75, 69, 82, 13, 83, 72, 69, 76, 84, 69, 82, 13, 87, 82, 73, 84, 8, 83, 84, 13, 83, 78, 65, 75, 69, 13, 70, 82, 65, 77, 69, 13, 82, 79, 68, 13, 76, 69, 79, 80, 65, 82, 68, 13, 82, 69, 67, 69, 73, 80, 84, 13, 87, 65, 82, 68, 82, 79, 66, 69, 13, 70, 82, 73, 69, 78, 68, 13, 73, 84, 69, 77, 13, 86, 69, 78, 85, 83, 13, 66, 76, 79, 85, 83, 69, 13, 70, 73, 78, 71, 69, 82, 13, 67, 65, 83, 75, 69, 84, 13, 67, 79, 78, 84, 82, 65, 67, 84, 13], "trial": 5, "time_elapsed": 963553, "type": "FREE_RECALL", "trial_index": 223}, "uniqueid": "MTK3419:3QBD8R3Z22Q6I9VWUKOHYZ60PEV4OX", "dateTime": 1520532299005}, {"current_trial": 224, "trialdata": {"rt": 7282, "trial_type": "text", "internal_node_id": "0.0-170.0", "time_elapsed": 972836, "key_press": 13, "type": "INSTRUCTIONS", "trial_index": 224}, "uniqueid": "MTK3419:3QBD8R3Z22Q6I9VWUKOHYZ60PEV4OX", "dateTime": 1520532308287}, {"current_trial": 225, "trialdata": {"rt": [1625, 7567, 8840, 11733], "trial_type": "math-distractor", "key_times": [1399, 1625, 7331, 7411, 7567, 8681, 8840, 11403, 11564, 11733], "responses": ["7", "21", "5", "17"], "num2": [3, 6, 1, 5, 2], "num3": [1, 8, 1, 4, 3], "conditions": [24, 1600, "v", 12000], "internal_node_id": "0.0-171.0", "key_presses": [55, 13, 50, 49, 13, 53, 13, 49, 55, 13], "trial": 6, "time_elapsed": 986846, "type": "DISTRACTOR", "trial_index": 225, "num1": [3, 7, 3, 8, 6]}, "uniqueid": "MTK3419:3QBD8R3Z22Q6I9VWUKOHYZ60PEV4OX", "dateTime": 1520532322297}, {"current_trial": 226, "trialdata": {"rt": -1, "trial_type": "single-stim", "stimulus": "<p id=\"stim\">10</p>", "internal_node_id": "0.0-172.0-0.0", "time_elapsed": 989851, "key_press": -1, "trial_index": 226}, "uniqueid": "MTK3419:3QBD8R3Z22Q6I9VWUKOHYZ60PEV4OX", "dateTime": 1520532325302}, {"current_trial": 227, "trialdata": {"rt": -1, "trial_type": "single-stim", "stimulus": "<p id=\"stim\">9</p>", "internal_node_id": "0.0-172.0-1.0", "time_elapsed": 990855, "key_press": -1, "trial_index": 227}, "uniqueid": "MTK3419:3QBD8R3Z22Q6I9VWUKOHYZ60PEV4OX", "dateTime": 1520532326306}, {"current_trial": 228, "trialdata": {"rt": -1, "trial_type": "single-stim", "stimulus": "<p id=\"stim\">8</p>", "internal_node_id": "0.0-172.0-2.0", "time_elapsed": 991860, "key_press": -1, "trial_index": 228}, "uniqueid": "MTK3419:3QBD8R3Z22Q6I9VWUKOHYZ60PEV4OX", "dateTime": 1520532327311}, {"current_trial": 229, "trialdata": {"rt": -1, "trial_type": "single-stim", "stimulus": "<p id=\"stim\">7</p>", "internal_node_id": "0.0-172.0-3.0", "time_elapsed": 992864, "key_press": -1, "trial_index": 229}, "uniqueid": "MTK3419:3QBD8R3Z22Q6I9VWUKOHYZ60PEV4OX", "dateTime": 1520532328315}, {"current_trial": 230, "trialdata": {"rt": -1, "trial_type": "single-stim", "stimulus": "<p id=\"stim\">6</p>", "internal_node_id": "0.0-172.0-4.0", "time_elapsed": 993868, "key_press": -1, "trial_index": 230}, "uniqueid": "MTK3419:3QBD8R3Z22Q6I9VWUKOHYZ60PEV4OX", "dateTime": 1520532329319}, {"current_trial": 231, "trialdata": {"rt": -1, "trial_type": "single-stim", "stimulus": "<p id=\"stim\">5</p>", "internal_node_id": "0.0-172.0-5.0", "time_elapsed": 994873, "key_press": -1, "trial_index": 231}, "uniqueid": "MTK3419:3QBD8R3Z22Q6I9VWUKOHYZ60PEV4OX", "dateTime": 1520532330324}, {"current_trial": 232, "trialdata": {"rt": -1, "trial_type": "single-stim", "stimulus": "<p id=\"stim\">4</p>", "internal_node_id": "0.0-172.0-6.0", "time_elapsed": 995877, "key_press": -1, "trial_index": 232}, "uniqueid": "MTK3419:3QBD8R3Z22Q6I9VWUKOHYZ60PEV4OX", "dateTime": 1520532331328}, {"current_trial": 233, "trialdata": {"rt": -1, "trial_type": "single-stim", "stimulus": "<p id=\"stim\">3</p>", "internal_node_id": "0.0-172.0-7.0", "time_elapsed": 996882, "key_press": -1, "trial_index": 233}, "uniqueid": "MTK3419:3QBD8R3Z22Q6I9VWUKOHYZ60PEV4OX", "dateTime": 1520532332333}, {"current_trial": 234, "trialdata": {"rt": -1, "trial_type": "single-stim", "stimulus": "<p id=\"stim\">2</p>", "internal_node_id": "0.0-172.0-8.0", "time_elapsed": 997885, "key_press": -1, "trial_index": 234}, "uniqueid": "MTK3419:3QBD8R3Z22Q6I9VWUKOHYZ60PEV4OX", "dateTime": 1520532333336}, {"current_trial": 235, "trialdata": {"rt": -1, "trial_type": "single-stim", "stimulus": "<p id=\"stim\">1</p>", "internal_node_id": "0.0-172.0-9.0", "time_elapsed": 998887, "key_press": -1, "trial_index": 235}, "uniqueid": "MTK3419:3QBD8R3Z22Q6I9VWUKOHYZ60PEV4OX", "dateTime": 1520532334339}, {"current_trial": 236, "trialdata": {"rt": -1, "trial_type": "single-stim", "stimulus": "<p id=\"stim\">+</p>", "internal_node_id": "0.0-173.0-0.0", "time_elapsed": 1000391, "key_press": -1, "type": "FIXATION", "trial_index": 236}, "uniqueid": "MTK3419:3QBD8R3Z22Q6I9VWUKOHYZ60PEV4OX", "dateTime": 1520532335842}, {"current_trial": 237, "trialdata": {"rt": -1, "trial_type": "single-stim", "word": "binder", "stimulus": "<p id=\"stim\">BINDER</p>", "conditions": [24, 1600, "v", 12000], "internal_node_id": "0.0-174.0", "trial": 6, "time_elapsed": 1001993, "serialpos": 0, "key_press": -1, "wordID": 126, "type": "PRES_VIS", "trial_index": 237}, "uniqueid": "MTK3419:3QBD8R3Z22Q6I9VWUKOHYZ60PEV4OX", "dateTime": 1520532337444}, {"current_trial": 238, "trialdata": {"rt": -1, "trial_type": "single-stim", "word": "treat", "stimulus": "<p id=\"stim\">TREAT</p>", "conditions": [24, 1600, "v", 12000], "internal_node_id": "0.0-175.0", "trial": 6, "time_elapsed": 1004671, "serialpos": 1, "key_press": -1, "wordID": 1500, "type": "PRES_VIS", "trial_index": 238}, "uniqueid": "MTK3419:3QBD8R3Z22Q6I9VWUKOHYZ60PEV4OX", "dateTime": 1520532340122}, {"current_trial": 239, "trialdata": {"rt": -1, "trial_type": "single-stim", "word": "police", "sti