{"assignmentId": "3SUWZRL0MZKYL5MLJUE0QLW0HGM6EX", "workerId": "MTK3683", "questiondata": {"origin": "United States", "strat-rehearsal": "63", "marital": "Single", "education": "Some college", "ethnicity": "Not Hispanic", "color_depth": 24, "distracted": "No", "wrote-notes": "No", "strat-other": "tried rembering the first letter of the words", "screen_width": 1366, "avail_screen_width": 1366, "avail_screen_height": 728, "strat-image": "38", "language": "english", "gender": "Male", "age": "33", "gender_other": "", "race": ["White"], "strat-categorize": "70", "pixel_depth": 24, "strat-spatial": "48", "strat-story": "28", "race_other": "", "screen_height": 768}, "bonus": 0, "hitId": "3FI30CQHVKQYRIC7J1780TUVT396B5", "counterbalance": 426, "useragent": "Mozilla/5.0 (Windows NT 10.0; Win64; x64) AppleWebKit/537.36 (KHTML, like Gecko) Chrome/64.0.3282.186 Safari/537.36", "eventdata": [{"eventtype": "initialized", "interval": 0, "value": null, "timestamp": 1520959501820}, {"eventtype": "window_resize", "interval": 1, "value": [1366, 677], "timestamp": 1520959501821}], "data": [{"current_trial": 0, "trialdata": {"rt": 2102, "trial_type": "text", "internal_node_id": "0.0-0.0", "time_elapsed": 2106, "key_press": 32, "type": "INSTRUCTIONS", "trial_index": 0}, "uniqueid": "MTK3683:3SUWZRL0MZKYL5MLJUE0QLW0HGM6EX", "dateTime": 1520959508084}, {"current_trial": 1, "trialdata": {"rt": 10406, "trial_type": "text", "internal_node_id": "0.0-1.0", "time_elapsed": 12516, "key_press": 32, "type": "INSTRUCTIONS", "trial_index": 1}, "uniqueid": "MTK3683:3SUWZRL0MZKYL5MLJUE0QLW0HGM6EX", "dateTime": 1520959518492}, {"current_trial": 2, "trialdata": {"rt": [8920], "trial_type": "audio-test", "responses": ["ocean"], "internal_node_id": "0.0-2.0", "time_elapsed": 21446, "type": "AUDIO_TEST", "trial_index": 2}, "uniqueid": "MTK3683:3SUWZRL0MZKYL5MLJUE0QLW0HGM6EX", "dateTime": 1520959527422}, {"current_trial": 3, "trialdata": {"rt": [8201], "trial_type": "audio-test", "responses": ["crystal"], "internal_node_id": "0.0-3.0", "time_elapsed": 29650, "type": "AUDIO_TEST", "trial_index": 3}, "uniqueid": "MTK3683:3SUWZRL0MZKYL5MLJUE0QLW0HGM6EX", "dateTime": 1520959535626}, {"current_trial": 4, "trialdata": {"rt": [7709], "trial_type": "audio-test", "responses": ["spice"], "internal_node_id": "0.0-4.0", "time_elapsed": 37362, "type": "AUDIO_TEST", "trial_index": 4}, "uniqueid": "MTK3683:3SUWZRL0MZKYL5MLJUE0QLW0HGM6EX", "dateTime": 1520959543338}, {"current_trial": 5, "trialdata": {"rt": 20988, "trial_type": "survey-text", "responses": "{\"Q0\":\"1am\",\"Q1\":\"10am\",\"Q2\":\"5\"}", "internal_node_id": "0.0-5.0", "time_elapsed": 59103, "type": "SLEEP_SURVEY", "trial_index": 5}, "uniqueid": "MTK3683:3SUWZRL0MZKYL5MLJUE0QLW0HGM6EX", "dateTime": 1520959565079}, {"current_trial": 6, "trialdata": {"rt": 26314, "trial_type": "text", "internal_node_id": "0.0-6.0", "time_elapsed": 86419, "key_press": 32, "type": "INSTRUCTIONS", "trial_index": 6}, "uniqueid": "MTK3683:3SUWZRL0MZKYL5MLJUE0QLW0HGM6EX", "dateTime": 1520959592395}, {"current_trial": 7, "trialdata": {"rt": 22207, "trial_type": "text", "internal_node_id": "0.0-7.0", "time_elapsed": 109127, "key_press": 32, "type": "INSTRUCTIONS", "trial_index": 7}, "uniqueid": "MTK3683:3SUWZRL0MZKYL5MLJUE0QLW0HGM6EX", "dateTime": 1520959615103}, {"current_trial": 8, "trialdata": {"rt": 47664, "trial_type": "text", "internal_node_id": "0.0-8.0", "time_elapsed": 157294, "key_press": 32, "type": "INSTRUCTIONS", "trial_index": 8}, "uniqueid": "MTK3683:3SUWZRL0MZKYL5MLJUE0QLW0HGM6EX", "dateTime": 1520959663271}, {"current_trial": 9, "trialdata": {"rt": [8255], "trial_type": "math-distractor", "key_times": [6995, 7536, 8255], "responses": ["16"], "num2": [7, 7], "num3": [3, 5], "conditions": [18, 1200, "a", 18000], "internal_node_id": "0.0-9.0", "key_presses": [49, 54, 13], "trial": 0, "time_elapsed": 176303, "type": "DISTRACTOR", "trial_index": 9, "num1": [6, 5]}, "uniqueid": "MTK3683:3SUWZRL0MZKYL5MLJUE0QLW0HGM6EX", "dateTime": 1520959682279}, {"current_trial": 10, "trialdata": {"rt": -1, "trial_type": "single-stim", "stimulus": "<p id=\"stim\">10</p>", "internal_node_id": "0.0-10.0-0.0", "time_elapsed": 179305, "key_press": -1, "trial_index": 10}, "uniqueid": "MTK3683:3SUWZRL0MZKYL5MLJUE0QLW0HGM6EX", "dateTime": 1520959685282}, {"current_trial": 11, "trialdata": {"rt": -1, "trial_type": "single-stim", "stimulus": "<p id=\"stim\">9</p>", "internal_node_id": "0.0-10.0-1.0", "time_elapsed": 180308, "key_press": -1, "trial_index": 11}, "uniqueid": "MTK3683:3SUWZRL0MZKYL5MLJUE0QLW0HGM6EX", "dateTime": 1520959686284}, {"current_trial": 12, "trialdata": {"rt": 219, "trial_type": "single-stim", "stimulus": "<p id=\"stim\">8</p>", "internal_node_id": "0.0-10.0-2.0", "time_elapsed": 181310, "key_press": 32, "trial_index": 12}, "uniqueid": "MTK3683:3SUWZRL0MZKYL5MLJUE0QLW0HGM6EX", "dateTime": 1520959687286}, {"current_trial": 13, "trialdata": {"rt": -1, "trial_type": "single-stim", "stimulus": "<p id=\"stim\">7</p>", "internal_node_id": "0.0-10.0-3.0", "time_elapsed": 182312, "key_press": -1, "trial_index": 13}, "uniqueid": "MTK3683:3SUWZRL0MZKYL5MLJUE0QLW0HGM6EX", "dateTime": 1520959688288}, {"current_trial": 14, "trialdata": {"rt": 10, "trial_type": "single-stim", "stimulus": "<p id=\"stim\">6</p>", "internal_node_id": "0.0-10.0-4.0", "time_elapsed": 183315, "key_press": 32, "trial_index": 14}, "uniqueid": "MTK3683:3SUWZRL0MZKYL5MLJUE0QLW0HGM6EX", "dateTime": 1520959689291}, {"current_trial": 15, "trialdata": {"rt": -1, "trial_type": "single-stim", "stimulus": "<p id=\"stim\">5</p>", "internal_node_id": "0.0-10.0-5.0", "time_elapsed": 184316, "key_press": -1, "trial_index": 15}, "uniqueid": "MTK3683:3SUWZRL0MZKYL5MLJUE0QLW0HGM6EX", "dateTime": 1520959690292}, {"current_trial": 16, "trialdata": {"rt": -1, "trial_type": "single-stim", "stimulus": "<p id=\"stim\">4</p>", "internal_node_id": "0.0-10.0-6.0", "time_elapsed": 185317, "key_press": -1, "trial_index": 16}, "uniqueid": "MTK3683:3SUWZRL0MZKYL5MLJUE0QLW0HGM6EX", "dateTime": 1520959691294}, {"current_trial": 17, "trialdata": {"rt": 48, "trial_type": "single-stim", "stimulus": "<p id=\"stim\">3</p>", "internal_node_id": "0.0-10.0-7.0", "time_elapsed": 186322, "key_press": 32, "trial_index": 17}, "uniqueid": "MTK3683:3SUWZRL0MZKYL5MLJUE0QLW0HGM6EX", "dateTime": 1520959692298}, {"current_trial": 18, "trialdata": {"rt": -1, "trial_type": "single-stim", "stimulus": "<p id=\"stim\">2</p>", "internal_node_id": "0.0-10.0-8.0", "time_elapsed": 187325, "key_press": -1, "trial_index": 18}, "uniqueid": "MTK3683:3SUWZRL0MZKYL5MLJUE0QLW0HGM6EX", "dateTime": 1520959693301}, {"current_trial": 19, "trialdata": {"rt": -1, "trial_type": "single-stim", "stimulus": "<p id=\"stim\">1</p>", "internal_node_id": "0.0-10.0-9.0", "time_elapsed": 188327, "key_press": -1, "trial_index": 19}, "uniqueid": "MTK3683:3SUWZRL0MZKYL5MLJUE0QLW0HGM6EX", "dateTime": 1520959694303}, {"current_trial": 20, "trialdata": {"rt": -1, "trial_type": "single-stim", "stimulus": "<p id=\"stim\">+</p>", "internal_node_id": "0.0-11.0-0.0", "time_elapsed": 189829, "key_press": -1, "type": "FIXATION", "trial_index": 20}, "uniqueid": "MTK3683:3SUWZRL0MZKYL5MLJUE0QLW0HGM6EX", "dateTime": 1520959695805}, {"current_trial": 21, "trialdata": {"rt": -1000, "trial_type": "single-audio", "word": "vagrant", "stimulus": "/static/audio/wordpool/VAGRANT.wav", "conditions": [18, 1200, "a", 18000], "internal_node_id": "0.0-12.0", "trial": 0, "time_elapsed": 192220, "serialpos": 0, "key_press": -1, "wordID": 1543, "type": "PRES_AUD", "trial_index": 21}, "uniqueid": "MTK3683:3SUWZRL0MZKYL5MLJUE0QLW0HGM6EX", "dateTime": 1520959698196}, {"current_trial": 22, "trialdata": {"rt": -1000, "trial_type": "single-audio", "word": "princess", "stimulus": "/static/audio/wordpool/PRINCESS.wav", "conditions": [18, 1200, "a", 18000], "internal_node_id": "0.0-13.0", "trial": 0, "time_elapsed": 194237, "serialpos": 1, "key_press": -1, "wordID": 1124, "type": "PRES_AUD", "trial_index": 22}, "uniqueid": "MTK3683:3SUWZRL0MZKYL5MLJUE0QLW0HGM6EX", "dateTime": 1520959700213}, {"current_trial": 23, "trialdata": {"rt": -1000, "trial_type": "single-audio", "word": "proton", "stimulus": "/static/audio/wordpool/PROTON.wav", "conditions": [18, 1200, "a", 18000], "internal_node_id": "0.0-14.0", "trial": 0, "time_elapsed": 196559, "serialpos": 2, "key_press": -1, "wordID": 1131, "type": "PRES_AUD", "trial_index": 23}, "uniqueid": "MTK3683:3SUWZRL0MZKYL5MLJUE0QLW0HGM6EX", "dateTime": 1520959702535}, {"current_trial": 24, "trialdata": {"rt": -1000, "trial_type": "single-audio", "word": "star", "stimulus": "/static/audio/wordpool/STAR.wav", "conditions": [18, 1200, "a", 18000], "internal_node_id": "0.0-15.0", "trial": 0, "time_elapsed": 198958, "serialpos": 3, "key_press": -1, "wordID": 1372, "type": "PRES_AUD", "trial_index": 24}, "uniqueid": "MTK3683:3SUWZRL0MZKYL5MLJUE0QLW0HGM6EX", "dateTime": 1520959704934}, {"current_trial": 25, "trialdata": {"rt": -1000, "trial_type": "single-audio", "word": "outfit", "stimulus": "/static/audio/wordpool/OUTFIT.wav", "conditions": [18, 1200, "a", 18000], "internal_node_id": "0.0-16.0", "trial": 0, "time_elapsed": 201118, "serialpos": 4, "key_press": -1, "wordID": 987, "type": "PRES_AUD", "trial_index": 25}, "uniqueid": "MTK3683:3SUWZRL0MZKYL5MLJUE0QLW0HGM6EX", "dateTime": 1520959707094}, {"current_trial": 26, "trialdata": {"rt": -1000, "trial_type": "single-audio", "word": "belly", "stimulus": "/static/audio/wordpool/BELLY.wav", "conditions": [18, 1200, "a", 18000], "internal_node_id": "0.0-17.0", "trial": 0, "time_elapsed": 203374, "serialpos": 5, "key_press": -1, "wordID": 118, "type": "PRES_AUD", "trial_index": 26}, "uniqueid": "MTK3683:3SUWZRL0MZKYL5MLJUE0QLW0HGM6EX", "dateTime": 1520959709350}, {"current_trial": 27, "trialdata": {"rt": -1000, "trial_type": "single-audio", "word": "blackboard", "stimulus": "/static/audio/wordpool/BLACKBOARD.wav", "conditions": [18, 1200, "a", 18000], "internal_node_id": "0.0-18.0", "trial": 0, "time_elapsed": 205407, "serialpos": 6, "key_press": -1, "wordID": 132, "type": "PRES_AUD", "trial_index": 27}, "uniqueid": "MTK3683:3SUWZRL0MZKYL5MLJUE0QLW0HGM6EX", "dateTime": 1520959711383}, {"current_trial": 28, "trialdata": {"rt": -1000, "trial_type": "single-audio", "word": "baby", "stimulus": "/static/audio/wordpool/BABY.wav", "conditions": [18, 1200, "a", 18000], "internal_node_id": "0.0-19.0", "trial": 0, "time_elapsed": 207688, "serialpos": 7, "key_press": -1, "wordID": 63, "type": "PRES_AUD", "trial_index": 28}, "uniqueid": "MTK3683:3SUWZRL0MZKYL5MLJUE0QLW0HGM6EX", "dateTime": 1520959713665}, {"current_trial": 29, "trialdata": {"rt": -70.66666666665355, "trial_type": "single-audio", "word": "shirt", "stimulus": "/static/audio/wordpool/SHIRT.wav", "conditions": [18, 1200, "a", 18000], "internal_node_id": "0.0-20.0", "trial": 0, "time_elapsed": 210072, "serialpos": 8, "key_press": 175, "wordID": 1286, "type": "PRES_AUD", "trial_index": 29}, "uniqueid": "MTK3683:3SUWZRL0MZKYL5MLJUE0QLW0HGM6EX", "dateTime": 1520959716048}, {"current_trial": 30, "trialdata": {"rt": -1000, "trial_type": "single-audio", "word": "church", "stimulus": "/static/audio/wordpool/CHURCH.wav", "conditions": [18, 1200, "a", 18000], "internal_node_id": "0.0-21.0", "trial": 0, "time_elapsed": 212283, "serialpos": 9, "key_press": -1, "wordID": 306, "type": "PRES_AUD", "trial_index": 30}, "uniqueid": "MTK3683:3SUWZRL0MZKYL5MLJUE0QLW0HGM6EX", "dateTime": 1520959718259}, {"current_trial": 31, "trialdata": {"rt": -1000, "trial_type": "single-audio", "word": "permit", "stimulus": "/static/audio/wordpool/PERMIT.wav", "conditions": [18, 1200, "a", 18000], "internal_node_id": "0.0-22.0", "trial": 0, "time_elapsed": 214442, "serialpos": 10, "key_press": -1, "wordID": 1050, "type": "PRES_AUD", "trial_index": 31}, "uniqueid": "MTK3683:3SUWZRL0MZKYL5MLJUE0QLW0HGM6EX", "dateTime": 1520959720418}, {"current_trial": 32, "trialdata": {"rt": -1000, "trial_type": "single-audio", "word": "gift", "stimulus": "/static/audio/wordpool/GIFT.wav", "conditions": [18, 1200, "a", 18000], "internal_node_id": "0.0-23.0", "trial": 0, "time_elapsed": 216509, "serialpos": 11, "key_press": -1, "wordID": 634, "type": "PRES_AUD", "trial_index": 32}, "uniqueid": "MTK3683:3SUWZRL0MZKYL5MLJUE0QLW0HGM6EX", "dateTime": 1520959722485}, {"current_trial": 33, "trialdata": {"rt": -1000, "trial_type": "single-audio", "word": "butcher", "stimulus": "/static/audio/wordpool/BUTCHER.wav", "conditions": [18, 1200, "a", 18000], "internal_node_id": "0.0-24.0", "trial": 0, "time_elapsed": 218681, "serialpos": 12, "key_press": -1, "wordID": 202, "type": "PRES_AUD", "trial_index": 33}, "uniqueid": "MTK3683:3SUWZRL0MZKYL5MLJUE0QLW0HGM6EX", "dateTime": 1520959724657}, {"current_trial": 34, "trialdata": {"rt": -1000, "trial_type": "single-audio", "word": "motor", "stimulus": "/static/audio/wordpool/MOTOR.wav", "conditions": [18, 1200, "a", 18000], "internal_node_id": "0.0-25.0", "trial": 0, "time_elapsed": 220981, "serialpos": 13, "key_press": -1, "wordID": 921, "type": "PRES_AUD", "trial_index": 34}, "uniqueid": "MTK3683:3SUWZRL0MZKYL5MLJUE0QLW0HGM6EX", "dateTime": 1520959726957}, {"current_trial": 35, "trialdata": {"rt": -1000, "trial_type": "single-audio", "word": "spoon", "stimulus": "/static/audio/wordpool/SPOON.wav", "conditions": [18, 1200, "a", 18000], "internal_node_id": "0.0-26.0", "trial": 0, "time_elapsed": 223230, "serialpos": 14, "key_press": -1, "wordID": 1356, "type": "PRES_AUD", "trial_index": 35}, "uniqueid": "MTK3683:3SUWZRL0MZKYL5MLJUE0QLW0HGM6EX", "dateTime": 1520959729206}, {"current_trial": 36, "trialdata": {"rt": -1000, "trial_type": "single-audio", "word": "silk", "stimulus": "/static/audio/wordpool/SILK.wav", "conditions": [18, 1200, "a", 18000], "internal_node_id": "0.0-27.0", "trial": 0, "time_elapsed": 225335, "serialpos": 15, "key_press": -1, "wordID": 1306, "type": "PRES_AUD", "trial_index": 36}, "uniqueid": "MTK3683:3SUWZRL0MZKYL5MLJUE0QLW0HGM6EX", "dateTime": 1520959731311}, {"current_trial": 37, "trialdata": {"rt": -1000, "trial_type": "single-audio", "word": "hand", "stimulus": "/static/audio/wordpool/HAND.wav", "conditions": [18, 1200, "a", 18000], "internal_node_id": "0.0-28.0", "trial": 0, "time_elapsed": 227576, "serialpos": 16, "key_press": -1, "wordID": 682, "type": "PRES_AUD", "trial_index": 37}, "uniqueid": "MTK3683:3SUWZRL0MZKYL5MLJUE0QLW0HGM6EX", "dateTime": 1520959733552}, {"current_trial": 38, "trialdata": {"rt": -1000, "trial_type": "single-audio", "word": "glass", "stimulus": "/static/audio/wordpool/GLASS.wav", "conditions": [18, 1200, "a", 18000], "internal_node_id": "0.0-29.0", "trial": 0, "time_elapsed": 229802, "serialpos": 17, "key_press": -1, "wordID": 638, "type": "PRES_AUD", "trial_index": 38}, "uniqueid": "MTK3683:3SUWZRL0MZKYL5MLJUE0QLW0HGM6EX", "dateTime": 1520959735778}, {"current_trial": 39, "trialdata": {"rt": -1, "trial_type": "single-stim", "stimulus": "", "internal_node_id": "0.0-30.0-0.0", "time_elapsed": 231144, "key_press": -1, "type": "PRE_RECALL_DELAY", "trial_index": 39}, "uniqueid": "MTK3683:3SUWZRL0MZKYL5MLJUE0QLW0HGM6EX", "dateTime": 1520959737120}, {"current_trial": 40, "trialdata": {"rt": -1000, "trial_type": "single-audio", "stimulus": "/static/audio/400Hz.wav", "internal_node_id": "0.0-31.0", "time_elapsed": 231653, "key_press": -1, "type": "PRE_RECALL_ALERT", "trial_index": 40}, "uniqueid": "MTK3683:3SUWZRL0MZKYL5MLJUE0QLW0HGM6EX", "dateTime": 1520959737629}, {"current_trial": 41, "trialdata": {"rt": [7596, 10896, 13464, 22713, 26361, 31735, 39618, 52409, 56167, 57822, 59662], "recwords": ["glass", "spoon", "motor", "baby", "butcher", "proton", "", "glass", "motor", "baby", "proton"], "key_times": [5533, 6231, 6438, 6725, 6894, 7596, 8985, 9364, 9645, 9811, 10183, 10896, 11594, 11813, 12088, 12276, 12523, 13464, 21210, 21421, 21598, 21887, 22713, 23431, 23807, 24047, 24400, 24622, 24829, 25037, 26361, 29614, 29947, 30170, 30440, 30607, 30864, 31735, 39618, 50683, 51004, 51294, 51598, 51816, 52409, 54888, 55066, 55280, 55452, 55685, 56167, 56866, 57048, 57116, 57307, 57822, 58431, 58641, 58810, 58997, 59118, 59348, 59662], "trial_type": "free-recall", "conditions": [18, 1200, "a", 18000], "internal_node_id": "0.0-32.0-0.0", "key_presses": [71, 76, 65, 83, 83, 13, 83, 80, 79, 79, 78, 13, 77, 79, 84, 79, 82, 13, 66, 65, 66, 89, 13, 66, 85, 84, 67, 72, 69, 82, 13, 80, 82, 79, 84, 79, 78, 13, 32, 71, 76, 65, 83, 83, 13, 77, 79, 84, 79, 82, 13, 66, 65, 66, 89, 13, 80, 82, 79, 84, 79, 78, 32], "trial": 0, "time_elapsed": 291659, "type": "FREE_RECALL", "trial_index": 41}, "uniqueid": "MTK3683:3SUWZRL0MZKYL5MLJUE0QLW0HGM6EX", "dateTime": 1520959797638}, {"current_trial": 42, "trialdata": {"rt": 1483, "trial_type": "text", "internal_node_id": "0.0-33.0", "time_elapsed": 295148, "key_press": 77, "type": "INSTRUCTIONS", "trial_index": 42}, "uniqueid": "MTK3683:3SUWZRL0MZKYL5MLJUE0QLW0HGM6EX", "dateTime": 1520959801124}, {"current_trial": 43, "trialdata": {"rt": [10054, 17723], "trial_type": "math-distractor", "key_times": [8559, 9551, 10054, 16232, 17088, 17723], "responses": ["19", "19"], "num2": [3, 9, 5], "num3": [7, 8, 3], "conditions": [18, 1200, "a", 18000], "internal_node_id": "0.0-34.0", "key_presses": [49, 57, 13, 49, 57, 13], "trial": 1, "time_elapsed": 315154, "type": "DISTRACTOR", "trial_index": 43, "num1": [9, 2, 9]}, "uniqueid": "MTK3683:3SUWZRL0MZKYL5MLJUE0QLW0HGM6EX", "dateTime": 1520959821130}, {"current_trial": 44, "trialdata": {"rt": -1, "trial_type": "single-stim", "stimulus": "<p id=\"stim\">10</p>", "internal_node_id": "0.0-35.0-0.0", "time_elapsed": 318158, "key_press": -1, "trial_index": 44}, "uniqueid": "MTK3683:3SUWZRL0MZKYL5MLJUE0QLW0HGM6EX", "dateTime": 1520959824135}, {"current_trial": 45, "trialdata": {"rt": -1, "trial_type": "single-stim", "stimulus": "<p id=\"stim\">9</p>", "internal_node_id": "0.0-35.0-1.0", "time_elapsed": 319161, "key_press": -1, "trial_index": 45}, "uniqueid": "MTK3683:3SUWZRL0MZKYL5MLJUE0QLW0HGM6EX", "dateTime": 1520959825137}, {"current_trial": 46, "trialdata": {"rt": -1, "trial_type": "single-stim", "stimulus": "<p id=\"stim\">8</p>", "internal_node_id": "0.0-35.0-2.0", "time_elapsed": 320163, "key_press": -1, "trial_index": 46}, "uniqueid": "MTK3683:3SUWZRL0MZKYL5MLJUE0QLW0HGM6EX", "dateTime": 1520959826139}, {"current_trial": 47, "trialdata": {"rt": -1, "trial_type": "single-stim", "stimulus": "<p id=\"stim\">7</p>", "internal_node_id": "0.0-35.0-3.0", "time_elapsed": 321165, "key_press": -1, "trial_index": 47}, "uniqueid": "MTK3683:3SUWZRL0MZKYL5MLJUE0QLW0HGM6EX", "dateTime": 1520959827141}, {"current_trial": 48, "trialdata": {"rt": -1, "trial_type": "single-stim", "stimulus": "<p id=\"stim\">6</p>", "internal_node_id": "0.0-35.0-4.0", "time_elapsed": 322167, "key_press": -1, "trial_index": 48}, "uniqueid": "MTK3683:3SUWZRL0MZKYL5MLJUE0QLW0HGM6EX", "dateTime": 1520959828143}, {"current_trial": 49, "trialdata": {"rt": -1, "trial_type": "single-stim", "stimulus": "<p id=\"stim\">5</p>", "internal_node_id": "0.0-35.0-5.0", "time_elapsed": 323169, "key_press": -1, "trial_index": 49}, "uniqueid": "MTK3683:3SUWZRL0MZKYL5MLJUE0QLW0HGM6EX", "dateTime": 1520959829145}, {"current_trial": 50, "trialdata": {"rt": -1, "trial_type": "single-stim", "stimulus": "<p id=\"stim\">4</p>", "internal_node_id": "0.0-35.0-6.0", "time_elapsed": 324171, "key_press": -1, "trial_index": 50}, "uniqueid": "MTK3683:3SUWZRL0MZKYL5MLJUE0QLW0HGM6EX", "dateTime": 1520959830147}, {"current_trial": 51, "trialdata": {"rt": -1, "trial_type": "single-stim", "stimulus": "<p id=\"stim\">3</p>", "internal_node_id": "0.0-35.0-7.0", "time_elapsed": 325173, "key_press": -1, "trial_index": 51}, "uniqueid": "MTK3683:3SUWZRL0MZKYL5MLJUE0QLW0HGM6EX", "dateTime": 1520959831149}, {"current_trial": 52, "trialdata": {"rt": -1, "trial_type": "single-stim", "stimulus": "<p id=\"stim\">2</p>", "internal_node_id": "0.0-35.0-8.0", "time_elapsed": 326176, "key_press": -1, "trial_index": 52}, "uniqueid": "MTK3683:3SUWZRL0MZKYL5MLJUE0QLW0HGM6EX", "dateTime": 1520959832152}, {"current_trial": 53, "trialdata": {"rt": -1, "trial_type": "single-stim", "stimulus": "<p id=\"stim\">1</p>", "internal_node_id": "0.0-35.0-9.0", "time_elapsed": 327178, "key_press": -1, "trial_index": 53}, "uniqueid": "MTK3683:3SUWZRL0MZKYL5MLJUE0QLW0HGM6EX", "dateTime": 1520959833154}, {"current_trial": 54, "trialdata": {"rt": -1, "trial_type": "single-stim", "stimulus": "<p id=\"stim\">+</p>", "internal_node_id": "0.0-36.0-0.0", "time_elapsed": 328679, "key_press": -1, "type": "FIXATION", "trial_index": 54}, "uniqueid": "MTK3683:3SUWZRL0MZKYL5MLJUE0QLW0HGM6EX", "dateTime": 1520959834656}, {"current_trial": 55, "trialdata": {"rt": -1000, "trial_type": "single-audio", "word": "forest", "stimulus": "/static/audio/wordpool/FOREST.wav", "conditions": [18, 1200, "a", 18000], "internal_node_id": "0.0-37.0", "trial": 1, "time_elapsed": 330972, "serialpos": 0, "key_press": -1, "wordID": 592, "type": "PRES_AUD", "trial_index": 55}, "uniqueid": "MTK3683:3SUWZRL0MZKYL5MLJUE0QLW0HGM6EX", "dateTime": 1520959836948}, {"current_trial": 56, "trialdata": {"rt": -1000, "trial_type": "single-audio", "word": "human", "stimulus": "/static/audio/wordpool/HUMAN.wav", "conditions": [18, 1200, "a", 18000], "internal_node_id": "0.0-38.0", "trial": 1, "time_elapsed": 333101, "serialpos": 1, "key_press": -1, "wordID": 725, "type": "PRES_AUD", "trial_index": 56}, "uniqueid": "MTK3683:3SUWZRL0MZKYL5MLJUE0QLW0HGM6EX", "dateTime": 1520959839077}, {"current_trial": 57, "trialdata": {"rt": 561.333333333323, "trial_type": "single-audio", "word": "drawing", "stimulus": "/static/audio/wordpool/DRAWING.wav", "conditions": [18, 1200, "a", 18000], "internal_node_id": "0.0-39.0", "trial": 1, "time_elapsed": 335350, "serialpos": 2, "key_press": 175, "wordID": 493, "type": "PRES_AUD", "trial_index": 57}, "uniqueid": "MTK3683:3SUWZRL0MZKYL5MLJUE0QLW0HGM6EX", "dateTime": 1520959841326}, {"current_trial": 58, "trialdata": {"rt": -1000, "trial_type": "single-audio", "word": "hawk", "stimulus": "/static/audio/wordpool/HAWK.wav", "conditions": [18, 1200, "a", 18000], "internal_node_id": "0.0-40.0", "trial": 1, "time_elapsed": 337415, "serialpos": 3, "key_press": -1, "wordID": 691, "type": "PRES_AUD", "trial_index": 58}, "uniqueid": "MTK3683:3SUWZRL0MZKYL5MLJUE0QLW0HGM6EX", "dateTime": 1520959843391}, {"current_trial": 59, "trialdata": {"rt": -1000, "trial_type": "single-audio", "word": "sandwich", "stimulus": "/static/audio/wordpool/SANDWICH.wav", "conditions": [18, 1200, "a", 18000], "internal_node_id": "0.0-41.0", "trial": 1, "time_elapsed": 339726, "serialpos": 4, "key_press": -1, "wordID": 1231, "type": "PRES_AUD", "trial_index": 59}, "uniqueid": "MTK3683:3SUWZRL0MZKYL5MLJUE0QLW0HGM6EX", "dateTime": 1520959845702}, {"current_trial": 60, "trialdata": {"rt": -1000, "trial_type": "single-audio", "word": "cocoon", "stimulus": "/static/audio/wordpool/COCOON.wav", "conditions": [18, 1200, "a", 18000], "internal_node_id": "0.0-42.0", "trial": 1, "time_elapsed": 341962, "serialpos": 5, "key_press": -1, "wordID": 338, "type": "PRES_AUD", "trial_index": 60}, "uniqueid": "MTK3683:3SUWZRL0MZKYL5MLJUE0QLW0HGM6EX", "dateTime": 1520959847938}, {"current_trial": 61, "trialdata": {"rt": -1000, "trial_type": "single-audio", "word": "swamp", "stimulus": "/static/audio/wordpool/SWAMP.wav", "conditions": [18, 1200, "a", 18000], "internal_node_id": "0.0-43.0", "trial": 1, "time_elapsed": 344247, "serialpos": 6, "key_press": -1, "wordID": 1415, "type": "PRES_AUD", "trial_index": 61}, "uniqueid": "MTK3683:3SUWZRL0MZKYL5MLJUE0QLW0HGM6EX", "dateTime": 1520959850224}, {"current_trial": 62, "trialdata": {"rt": -1000, "trial_type": "single-audio", "word": "pigment", "stimulus": "/static/audio/wordpool/PIGMENT.wav", "conditions": [18, 1200, "a", 18000], "internal_node_id": "0.0-44.0", "trial": 1, "time_elapsed": 346264, "serialpos": 7, "key_press": -1, "wordID": 1065, "type": "PRES_AUD", "trial_index": 62}, "uniqueid": "MTK3683:3SUWZRL0MZKYL5MLJUE0QLW0HGM6EX", "dateTime": 1520959852241}, {"current_trial": 63, "trialdata": {"rt": -1000, "trial_type": "single-audio", "word": "survey", "stimulus": "/static/audio/wordpool/SURVEY.wav", "conditions": [18, 1200, "a", 18000], "internal_node_id": "0.0-45.0", "trial": 1, "time_elapsed": 348344, "serialpos": 8, "key_press": -1, "wordID": 1413, "type": "PRES_AUD", "trial_index": 63}, "uniqueid": "MTK3683:3SUWZRL0MZKYL5MLJUE0QLW0HGM6EX", "dateTime": 1520959854320}, {"current_trial": 64, "trialdata": {"rt": -1000, "trial_type": "single-audio", "word": "trout", "stimulus": "/static/audio/wordpool/TROUT.wav", "conditions": [18, 1200, "a", 18000], "internal_node_id": "0.0-46.0", "trial": 1, "time_elapsed": 350493, "serialpos": 9, "key_press": -1, "wordID": 1510, "type": "PRES_AUD", "trial_index": 64}, "uniqueid": "MTK3683:3SUWZRL0MZKYL5MLJUE0QLW0HGM6EX", "dateTime": 1520959856469}, {"current_trial": 65, "trialdata": {"rt": -1000, "trial_type": "single-audio", "word": "mummy", "stimulus": "/static/audio/wordpool/MUMMY.wav", "conditions": [18, 1200, "a", 18000], "internal_node_id": "0.0-47.0", "trial": 1, "time_elapsed": 352554, "serialpos": 10, "key_press": -1, "wordID": 931, "type": "PRES_AUD", "trial_index": 65}, "uniqueid": "MTK3683:3SUWZRL0MZKYL5MLJUE0QLW0HGM6EX", "dateTime": 1520959858531}, {"current_trial": 66, "trialdata": {"rt": -1000, "trial_type": "single-audio", "word": "possum", "stimulus": "/static/audio/wordpool/POSSUM.wav", "conditions": [18, 1200, "a", 18000], "internal_node_id": "0.0-48.0", "trial": 1, "time_elapsed": 354688, "serialpos": 11, "key_press": -1, "wordID": 1111, "type": "PRES_AUD", "trial_index": 66}, "uniqueid": "MTK3683:3SUWZRL0MZKYL5MLJUE0QLW0HGM6EX", "dateTime": 1520959860664}, {"current_trial": 67, "trialdata": {"rt": -1000, "trial_type": "single-audio", "word": "sketch", "stimulus": "/static/audio/wordpool/SKETCH.wav", "conditions": [18, 1200, "a", 18000], "internal_node_id": "0.0-49.0", "trial": 1, "time_elapsed": 356907, "serialpos": 12, "key_press": -1, "wordID": 1314, "type": "PRES_AUD", "trial_index": 67}, "uniqueid": "MTK3683:3SUWZRL0MZKYL5MLJUE0QLW0HGM6EX", "dateTime": 1520959862885}, {"current_trial": 68, "trialdata": {"rt": -1000, "trial_type": "single-audio", "word": "child", "stimulus": "/static/audio/wordpool/CHILD.wav", "conditions": [18, 1200, "a", 18000], "internal_node_id": "0.0-50.0", "trial": 1, "time_elapsed": 359222, "serialpos": 13, "key_press": -1, "wordID": 298, "type": "PRES_AUD", "trial_index": 68}, "uniqueid": "MTK3683:3SUWZRL0MZKYL5MLJUE0QLW0HGM6EX", "dateTime": 1520959865202}, {"current_trial": 69, "trialdata": {"rt": -1000, "trial_type": "single-audio", "word": "flag", "stimulus": "/static/audio/wordpool/FLAG.wav", "conditions": [18, 1200, "a", 18000], "internal_node_id": "0.0-51.0", "trial": 1, "time_elapsed": 361477, "serialpos": 14, "key_press": -1, "wordID": 572, "type": "PRES_AUD", "trial_index": 69}, "uniqueid": "MTK3683:3SUWZRL0MZKYL5MLJUE0QLW0HGM6EX", "dateTime": 1520959867453}, {"current_trial": 70, "trialdata": {"rt": -1000, "trial_type": "single-audio", "word": "cashier", "stimulus": "/static/audio/wordpool/CASHIER.wav", "conditions": [18, 1200, "a", 18000], "internal_node_id": "0.0-52.0", "trial": 1, "time_elapsed": 363711, "serialpos": 15, "key_press": -1, "wordID": 253, "type": "PRES_AUD", "trial_index": 70}, "uniqueid": "MTK3683:3SUWZRL0MZKYL5MLJUE0QLW0HGM6EX", "dateTime": 1520959869687}, {"current_trial": 71, "trialdata": {"rt": -1000, "trial_type": "single-audio", "word": "rifle", "stimulus": "/static/audio/wordpool/RIFLE.wav", "conditions": [18, 1200, "a", 18000], "internal_node_id": "0.0-53.0", "trial": 1, "time_elapsed": 365802, "serialpos": 16, "key_press": -1, "wordID": 1191, "type": "PRES_AUD", "trial_index": 71}, "uniqueid": "MTK3683:3SUWZRL0MZKYL5MLJUE0QLW0HGM6EX", "dateTime": 1520959871778}, {"current_trial": 72, "trialdata": {"rt": -1000, "trial_type": "single-audio", "word": "flower", "stimulus": "/static/audio/wordpool/FLOWER.wav", "conditions": [18, 1200, "a", 18000], "internal_node_id": "0.0-54.0", "trial": 1, "time_elapsed": 367827, "serialpos": 17, "key_press": -1, "wordID": 583, "type": "PRES_AUD", "trial_index": 72}, "uniqueid": "MTK3683:3SUWZRL0MZKYL5MLJUE0QLW0HGM6EX", "dateTime": 1520959873803}, {"current_trial": 73, "trialdata": {"rt": -1, "trial_type": "single-stim", "stimulus": "", "internal_node_id": "0.0-55.0-0.0", "time_elapsed": 369217, "key_press": -1, "type": "PRE_RECALL_DELAY", "trial_index": 73}, "uniqueid": "MTK3683:3SUWZRL0MZKYL5MLJUE0QLW0HGM6EX", "dateTime": 1520959875193}, {"current_trial": 74, "trialdata": {"rt": -1000, "trial_type": "single-audio", "stimulus": "/static/audio/400Hz.wav", "internal_node_id": "0.0-56.0", "time_elapsed": 369720, "key_press": -1, "type": "PRE_RECALL_ALERT", "trial_index": 74}, "uniqueid": "MTK3683:3SUWZRL0MZKYL5MLJUE0QLW0HGM6EX", "dateTime": 1520959875696}, {"current_trial": 75, "trialdata": {"rt": [3371, 5684, 7701, 9827, 12478, 15746, 23994], "recwords": ["rifle", "cashier", "flower", "mummy", "survey", "flower", "cashier"], "key_times": [1746, 2092, 2285, 2580, 2769, 3371, 3654, 3896, 4114, 4762, 5091, 5281, 5419, 5684, 6305, 6542, 6741, 6907, 7097, 7334, 7701, 8118, 8379, 8703, 8856, 9243, 9827, 10196, 10541, 10728, 10938, 11305, 11595, 12478, 13915, 14139, 14323, 14494, 14722, 14945, 15746, 21729, 22082, 22294, 22579, 22868, 23109, 23240, 23994], "trial_type": "free-recall", "conditions": [18, 1200, "a", 18000], "internal_node_id": "0.0-57.0-0.0", "key_presses": [82, 73, 70, 76, 69, 13, 67, 65, 83, 72, 73, 69, 82, 13, 70, 76, 79, 87, 69, 82, 13, 77, 85, 77, 77, 89, 13, 83, 85, 82, 86, 69, 89, 13, 70, 76, 79, 87, 69, 82, 13, 67, 65, 83, 72, 73, 69, 82, 13], "trial": 1, "time_elapsed": 429725, "type": "FREE_RECALL", "trial_index": 75}, "uniqueid": "MTK3683:3SUWZRL0MZKYL5MLJUE0QLW0HGM6EX", "dateTime": 1520959935705}, {"current_trial": 76, "trialdata": {"rt": 4264, "trial_type": "text", "internal_node_id": "0.0-58.0", "time_elapsed": 435995, "key_press": 32, "type": "INSTRUCTIONS", "trial_index": 76}, "uniqueid": "MTK3683:3SUWZRL0MZKYL5MLJUE0QLW0HGM6EX", "dateTime": 1520959941971}, {"current_trial": 77, "trialdata": {"rt": [8515, 15930, 22543], "trial_type": "math-distractor", "key_times": [7264, 7826, 8515, 14660, 15243, 15930, 21408, 21990, 22543], "responses": ["17", "17", "17"], "num2": [5, 6, 2, 9], "num3": [3, 7, 7, 2], "conditions": [24, 1600, "a", 24000], "internal_node_id": "0.0-59.0", "key_presses": [49, 55, 13, 49, 55, 13, 49, 55, 13], "trial": 2, "time_elapsed": 460998, "type": "DISTRACTOR", "trial_index": 77, "num1": [9, 4, 8, 6]}, "uniqueid": "MTK3683:3SUWZRL0MZKYL5MLJUE0QLW0HGM6EX", "dateTime": 1520959966974}, {"current_trial": 78, "trialdata": {"rt": -1, "trial_type": "single-stim", "stimulus": "<p id=\"stim\">10</p>", "internal_node_id": "0.0-60.0-0.0", "time_elapsed": 464001, "key_press": -1, "trial_index": 78}, "uniqueid": "MTK3683:3SUWZRL0MZKYL5MLJUE0QLW0HGM6EX", "dateTime": 1520959969977}, {"current_trial": 79, "trialdata": {"rt": -1, "trial_type": "single-stim", "stimulus": "<p id=\"stim\">9</p>", "internal_node_id": "0.0-60.0-1.0", "time_elapsed": 465004, "key_press": -1, "trial_index": 79}, "uniqueid": "MTK3683:3SUWZRL0MZKYL5MLJUE0QLW0HGM6EX", "dateTime": 1520959970980}, {"current_trial": 80, "trialdata": {"rt": -1, "trial_type": "single-stim", "stimulus": "<p id=\"stim\">8</p>", "internal_node_id": "0.0-60.0-2.0", "time_elapsed": 466006, "key_press": -1, "trial_index": 80}, "uniqueid": "MTK3683:3SUWZRL0MZKYL5MLJUE0QLW0HGM6EX", "dateTime": 1520959971982}, {"current_trial": 81, "trialdata": {"rt": -1, "trial_type": "single-stim", "stimulus": "<p id=\"stim\">7</p>", "internal_node_id": "0.0-60.0-3.0", "time_elapsed": 467009, "key_press": -1, "trial_index": 81}, "uniqueid": "MTK3683:3SUWZRL0MZKYL5MLJUE0QLW0HGM6EX", "dateTime": 1520959972985}, {"current_trial": 82, "trialdata": {"rt": -1, "trial_type": "single-stim", "stimulus": "<p id=\"stim\">6</p>", "internal_node_id": "0.0-60.0-4.0", "time_elapsed": 468009, "key_press": -1, "trial_index": 82}, "uniqueid": "MTK3683:3SUWZRL0MZKYL5MLJUE0QLW0HGM6EX", "dateTime": 1520959973986}, {"current_trial": 83, "trialdata": {"rt": -1, "trial_type": "single-stim", "stimulus": "<p id=\"stim\">5</p>", "internal_node_id": "0.0-60.0-5.0", "time_elapsed": 469012, "key_press": -1, "trial_index": 83}, "uniqueid": "MTK3683:3SUWZRL0MZKYL5MLJUE0QLW0HGM6EX", "dateTime": 1520959974988}, {"current_trial": 84, "trialdata": {"rt": -1, "trial_type": "single-stim", "stimulus": "<p id=\"stim\">4</p>", "internal_node_id": "0.0-60.0-6.0", "time_elapsed": 470012, "key_press": -1, "trial_index": 84}, "uniqueid": "MTK3683:3SUWZRL0MZKYL5MLJUE0QLW0HGM6EX", "dateTime": 1520959975989}, {"current_trial": 85, "trialdata": {"rt": -1, "trial_type": "single-stim", "stimulus": "<p id=\"stim\">3</p>", "internal_node_id": "0.0-60.0-7.0", "time_elapsed": 471015, "key_press": -1, "trial_index": 85}, "uniqueid": "MTK3683:3SUWZRL0MZKYL5MLJUE0QLW0HGM6EX", "dateTime": 1520959976991}, {"current_trial": 86, "trialdata": {"rt": -1, "trial_type": "single-stim", "stimulus": "<p id=\"stim\">2</p>", "internal_node_id": "0.0-60.0-8.0", "time_elapsed": 472016, "key_press": -1, "trial_index": 86}, "uniqueid": "MTK3683:3SUWZRL0MZKYL5MLJUE0QLW0HGM6EX", "dateTime": 1520959977992}, {"current_trial": 87, "trialdata": {"rt": -1, "trial_type": "single-stim", "stimulus": "<p id=\"stim\">1</p>", "internal_node_id": "0.0-60.0-9.0", "time_elapsed": 473019, "key_press": -1, "trial_index": 87}, "uniqueid": "MTK3683:3SUWZRL0MZKYL5MLJUE0QLW0HGM6EX", "dateTime": 1520959978995}, {"current_trial": 88, "trialdata": {"rt": -1, "trial_type": "single-stim", "stimulus": "<p id=\"stim\">+</p>", "internal_node_id": "0.0-61.0-0.0", "time_elapsed": 474521, "key_press": -1, "type": "FIXATION", "trial_index": 88}, "uniqueid": "MTK3683:3SUWZRL0MZKYL5MLJUE0QLW0HGM6EX", "dateTime": 1520959980497}, {"current_trial": 89, "trialdata": {"rt": -1000, "trial_type": "single-audio", "word": "fungus", "stimulus": "/static/audio/wordpool/FUNGUS.wav", "conditions": [24, 1600, "a", 24000], "internal_node_id": "0.0-62.0", "trial": 2, "time_elapsed": 477089, "serialpos": 0, "key_press": -1, "wordID": 613, "type": "PRES_AUD", "trial_index": 89}, "uniqueid": "MTK3683:3SUWZRL0MZKYL5MLJUE0QLW0HGM6EX", "dateTime": 1520959983065}, {"current_trial": 90, "trialdata": {"rt": -1000, "trial_type": "single-audio", "word": "mask", "stimulus": "/static/audio/wordpool/MASK.wav", "conditions": [24, 1600, "a", 24000], "internal_node_id": "0.0-63.0", "trial": 2, "time_elapsed": 479747, "serialpos": 1, "key_press": -1, "wordID": 875, "type": "PRES_AUD", "trial_index": 90}, "uniqueid": "MTK3683:3SUWZRL0MZKYL5MLJUE0QLW0HGM6EX", "dateTime": 1520959985724}, {"current_trial": 91, "trialdata": {"rt": -1000, "trial_type": "single-audio", "word": "briefcase", "stimulus": "/static/audio/wordpool/BRIEFCASE.wav", "conditions": [24, 1600, "a", 24000], "internal_node_id": "0.0-64.0", "trial": 2, "time_elapsed": 482240, "serialpos": 2, "key_press": -1, "wordID": 174, "type": "PRES_AUD", "trial_index": 91}, "uniqueid": "MTK3683:3SUWZRL0MZKYL5MLJUE0QLW0HGM6EX", "dateTime": 1520959988217}, {"current_trial": 92, "trialdata": {"rt": -1000, "trial_type": "single-audio", "word": "fragrance", "stimulus": "/static/audio/wordpool/FRAGRANCE.wav", "conditions": [24, 1600, "a", 24000], "internal_node_id": "0.0-65.0", "trial": 2, "time_elapsed": 484782, "serialpos": 3, "key_press": -1, "wordID": 598, "type": "PRES_AUD", "trial_index": 92}, "uniqueid": "MTK3683:3SUWZRL0MZKYL5MLJUE0QLW0HGM6EX", "dateTime": 1520959990758}, {"current_trial": 93, "trialdata": {"rt": -1000, "trial_type": "single-audio", "word": "arm", "stimulus": "/static/audio/wordpool/ARM.wav", "conditions": [24, 1600, "a", 24000], "internal_node_id": "0.0-66.0", "trial": 2, "time_elapsed": 487248, "serialpos": 4, "key_press": -1, "wordID": 37, "type": "PRES_AUD", "trial_index": 93}, "uniqueid": "MTK3683:3SUWZRL0MZKYL5MLJUE0QLW0HGM6EX", "dateTime": 1520959993224}, {"current_trial": 94, "trialdata": {"rt": -1000, "trial_type": "single-audio", "word": "shoulder", "stimulus": "/static/audio/wordpool/SHOULDER.wav", "conditions": [24, 1600, "a", 24000], "internal_node_id": "0.0-67.0", "trial": 2, "time_elapsed": 489879, "serialpos": 5, "key_press": -1, "wordID": 1293, "type": "PRES_AUD", "trial_index": 94}, "uniqueid": "MTK3683:3SUWZRL0MZKYL5MLJUE0QLW0HGM6EX", "dateTime": 1520959995855}, {"current_trial": 95, "trialdata": {"rt": -1000, "trial_type": "single-audio", "word": "cabin", "stimulus": "/static/audio/wordpool/CABIN.wav", "conditions": [24, 1600, "a", 24000], "internal_node_id": "0.0-68.0", "trial": 2, "time_elapsed": 492502, "serialpos": 6, "key_press": -1, "wordID": 210, "type": "PRES_AUD", "trial_index": 95}, "uniqueid": "MTK3683:3SUWZRL0MZKYL5MLJUE0QLW0HGM6EX", "dateTime": 1520959998478}, {"current_trial": 96, "trialdata": {"rt": -1000, "trial_type": "single-audio", "word": "bison", "stimulus": "/static/audio/wordpool/BISON.wav", "conditions": [24, 1600, "a", 24000], "internal_node_id": "0.0-69.0", "trial": 2, "time_elapsed": 495026, "serialpos": 7, "key_press": -1, "wordID": 130, "type": "PRES_AUD", "trial_index": 96}, "uniqueid": "MTK3683:3SUWZRL0MZKYL5MLJUE0QLW0HGM6EX", "dateTime": 1520960001002}, {"current_trial": 97, "trialdata": {"rt": -1000, "trial_type": "single-audio", "word": "cricket", "stimulus": "/static/audio/wordpool/CRICKET.wav", "conditions": [24, 1600, "a", 24000], "internal_node_id": "0.0-70.0", "trial": 2, "time_elapsed": 497565, "serialpos": 8, "key_press": -1, "wordID": 407, "type": "PRES_AUD", "trial_index": 97}, "uniqueid": "MTK3683:3SUWZRL0MZKYL5MLJUE0QLW0HGM6EX", "dateTime": 1520960003541}, {"current_trial": 98, "trialdata": {"rt": -1000, "trial_type": "single-audio", "word": "temple", "stimulus": "/static/audio/wordpool/TEMPLE.wav", "conditions": [24, 1600, "a", 24000], "internal_node_id": "0.0-71.0", "trial": 2, "time_elapsed": 500098, "serialpos": 9, "key_press": -1, "wordID": 1447, "type": "PRES_AUD", "trial_index": 98}, "uniqueid": "MTK3683:3SUWZRL0MZKYL5MLJUE0QLW0HGM6EX", "dateTime": 1520960006075}, {"current_trial": 99, "trialdata": {"rt": -1000, "trial_type": "single-audio", "word": "mildew", "stimulus": "/static/audio/wordpool/MILDEW.wav", "conditions": [24, 1600, "a", 24000], "internal_node_id": "0.0-72.0", "trial": 2, "time_elapsed": 502659, "serialpos": 10, "key_press": -1, "wordID": 892, "type": "PRES_AUD", "trial_index": 99}, "uniqueid": "MTK3683:3SUWZRL0MZKYL5MLJUE0QLW0HGM6EX", "dateTime": 1520960008635}, {"current_trial": 100, "trialdata": {"rt": -1000, "trial_type": "single-audio", "word": "softball", "stimulus": "/static/audio/wordpool/SOFTBALL.wav", "conditions": [24, 1600, "a", 24000], "internal_node_id": "0.0-73.0", "trial": 2, "time_elapsed": 505076, "serialpos": 11, "key_press": -1, "wordID": 1342, "type": "PRES_AUD", "trial_index": 100}, "uniqueid": "MTK3683:3SUWZRL0MZKYL5MLJUE0QLW0HGM6EX", "dateTime": 1520960011053}, {"current_trial": 101, "trialdata": {"rt": -1000, "trial_type": "single-audio", "word": "nomad", "stimulus": "/static/audio/wordpool/NOMAD.wav", "conditions": [24, 1600, "a", 24000], "internal_node_id": "0.0-74.0", "trial": 2, "time_elapsed": 507731, "serialpos": 12, "key_press": -1, "wordID": 954, "type": "PRES_AUD", "trial_index": 101}, "uniqueid": "MTK3683:3SUWZRL0MZKYL5MLJUE0QLW0HGM6EX", "dateTime": 1520960013708}, {"current_trial": 102, "trialdata": {"rt": -1000, "trial_type": "single-audio", "word": "island", "stimulus": "/static/audio/wordpool/ISLAND.wav", "conditions": [24, 1600, "a", 24000], "internal_node_id": "0.0-75.0", "trial": 2, "time_elapsed": 510323, "serialpos": 13, "key_press": -1, "wordID": 744, "type": "PRES_AUD", "trial_index": 102}, "uniqueid": "MTK3683:3SUWZRL0MZKYL5MLJUE0QLW0HGM6EX", "dateTime": 1520960016299}, {"current_trial": 103, "trialdata": {"rt": -1000, "trial_type": "single-audio", "word": "seafood", "stimulus": "/static/audio/wordpool/SEAFOOD.wav", "conditions": [24, 1600, "a", 24000], "internal_node_id": "0.0-76.0", "trial": 2, "time_elapsed": 512883, "serialpos": 14, "key_press": -1, "wordID": 1259, "type": "PRES_AUD", "trial_index": 103}, "uniqueid": "MTK3683:3SUWZRL0MZKYL5MLJUE0QLW0HGM6EX", "dateTime": 1520960018859}, {"current_trial": 104, "trialdata": {"rt": -1000, "trial_type": "single-audio", "word": "viking", "stimulus": "/static/audio/wordpool/VIKING.wav", "conditions": [24, 1600, "a", 24000], "internal_node_id": "0.0-77.0", "trial": 2, "time_elapsed": 515493, "serialpos": 15, "key_press": -1, "wordID": 1564, "type": "PRES_AUD", "trial_index": 104}, "uniqueid": "MTK3683:3SUWZRL0MZKYL5MLJUE0QLW0HGM6EX", "dateTime": 1520960021469}, {"current_trial": 105, "trialdata": {"rt": -1000, "trial_type": "single-audio", "word": "peanut", "stimulus": "/static/audio/wordpool/PEANUT.wav", "conditions": [24, 1600, "a", 24000], "internal_node_id": "0.0-78.0", "trial": 2, "time_elapsed": 518081, "serialpos": 16, "key_press": -1, "wordID": 1031, "type": "PRES_AUD", "trial_index": 105}, "uniqueid": "MTK3683:3SUWZRL0MZKYL5MLJUE0QLW0HGM6EX", "dateTime": 1520960024057}, {"current_trial": 106, "trialdata": {"rt": -1000, "trial_type": "single-audio", "word": "nightgown", "stimulus": "/static/audio/wordpool/NIGHTGOWN.wav", "conditions": [24, 1600, "a", 24000], "internal_node_id": "0.0-79.0", "trial": 2, "time_elapsed": 520745, "serialpos": 17, "key_press": -1, "wordID": 952, "type": "PRES_AUD", "trial_index": 106}, "uniqueid": "MTK3683:3SUWZRL0MZKYL5MLJUE0QLW0HGM6EX", "dateTime": 1520960026721}, {"current_trial": 107, "trialdata": {"rt": -1000, "trial_type": "single-audio", "word": "garlic", "stimulus": "/static/audio/wordpool/GARLIC.wav", "conditions": [24, 1600, "a", 24000], "internal_node_id": "0.0-80.0", "trial": 2, "time_elapsed": 523195, "serialpos": 18, "key_press": -1, "wordID": 623, "type": "PRES_AUD", "trial_index": 107}, "uniqueid": "MTK3683:3SUWZRL0MZKYL5MLJUE0QLW0HGM6EX", "dateTime": 1520960029171}, {"current_trial": 108, "trialdata": {"rt": -1000, "trial_type": "single-audio", "word": "jury", "stimulus": "/static/audio/wordpool/JURY.wav", "conditions": [24, 1600, "a", 24000], "internal_node_id": "0.0-81.0", "trial": 2, "time_elapsed": 525794, "serialpos": 19, "key_press": -1, "wordID": 765, "type": "PRES_AUD", "trial_index": 108}, "uniqueid": "MTK3683:3SUWZRL0MZKYL5MLJUE0QLW0HGM6EX", "dateTime": 1520960031770}, {"current_trial": 109, "trialdata": {"rt": -1000, "trial_type": "single-audio", "word": "pecan", "stimulus": "/static/audio/wordpool/PECAN.wav", "conditions": [24, 1600, "a", 24000], "internal_node_id": "0.0-82.0", "trial": 2, "time_elapsed": 528500, "serialpos": 20, "key_press": -1, "wordID": 1035, "type": "PRES_AUD", "trial_index": 109}, "uniqueid": "MTK3683:3SUWZRL0MZKYL5MLJUE0QLW0HGM6EX", "dateTime": 1520960034476}, {"current_trial": 110, "trialdata": {"rt": -1000, "trial_type": "single-audio", "word": "lace", "stimulus": "/static/audio/wordpool/LACE.wav", "conditions": [24, 1600, "a", 24000], "internal_node_id": "0.0-83.0", "trial": 2, "time_elapsed": 531262, "serialpos": 21, "key_press": -1, "wordID": 791, "type": "PRES_AUD", "trial_index": 110}, "uniqueid": "MTK3683:3SUWZRL0MZKYL5MLJUE0QLW0HGM6EX", "dateTime": 1520960037238}, {"current_trial": 111, "trialdata": {"rt": -1000, "trial_type": "single-audio", "word": "velvet", "stimulus": "/static/audio/wordpool/VELVET.wav", "conditions": [24, 1600, "a", 24000], "internal_node_id": "0.0-84.0", "trial": 2, "time_elapsed": 533888, "serialpos": 22, "key_press": -1, "wordID": 1554, "type": "PRES_AUD", "trial_index": 111}, "uniqueid": "MTK3683:3SUWZRL0MZKYL5MLJUE0QLW0HGM6EX", "dateTime": 1520960039864}, {"current_trial": 112, "trialdata": {"rt": -1000, "trial_type": "single-audio", "word": "coffee", "stimulus": "/static/audio/wordpool/COFFEE.wav", "conditions": [24, 1600, "a", 24000], "internal_node_id": "0.0-85.0", "trial": 2, "time_elapsed": 536624, "serialpos": 23, "key_press": -1, "wordID": 340, "type": "PRES_AUD", "trial_index": 112}, "uniqueid": "MTK3683:3SUWZRL0MZKYL5MLJUE0QLW0HGM6EX", "dateTime": 1520960042600}, {"current_trial": 113, "trialdata": {"rt": -1, "trial_type": "single-stim", "stimulus": "", "internal_node_id": "0.0-86.0-0.0", "time_elapsed": 538009, "key_press": -1, "type": "PRE_RECALL_DELAY", "trial_index": 113}, "uniqueid": "MTK3683:3SUWZRL0MZKYL5MLJUE0QLW0HGM6EX", "dateTime": 1520960043985}, {"current_trial": 114, "trialdata": {"rt": -1000, "trial_type": "single-audio", "stimulus": "/static/audio/400Hz.wav", "internal_node_id": "0.0-87.0", "time_elapsed": 538511, "key_press": -1, "type": "PRE_RECALL_ALERT", "trial_index": 114}, "uniqueid": "MTK3683:3SUWZRL0MZKYL5MLJUE0QLW0HGM6EX", "dateTime": 1520960044487}, {"current_trial": 115, "trialdata": {"rt": [4895, 6927, 9204, 11598, 13238, 15258, 28911, 57527], "recwords": ["velvet", "coffee", "lace", "pecan", "cabin", "jury", "island", "arm"], "key_times": [2377, 2765, 3161, 3493, 3822, 4120, 4895, 5211, 5483, 5727, 5925, 6389, 6592, 6927, 7496, 7658, 7970, 8240, 9204, 9613, 9836, 10067, 10422, 10785, 11598, 11956, 12100, 12327, 12669, 12772, 13238, 13958, 14141, 14320, 14513, 15258, 26489, 26983, 27420, 27650, 27957, 28237, 28911, 55916, 56389, 56806, 57527], "trial_type": "free-recall", "conditions": [24, 1600, "a", 24000], "internal_node_id": "0.0-88.0-0.0", "key_presses": [86, 69, 76, 86, 69, 84, 13, 67, 79, 70, 70, 69, 69, 13, 76, 65, 67, 69, 13, 80, 69, 67, 65, 78, 13, 67, 65, 66, 73, 78, 13, 74, 85, 82, 89, 13, 73, 83, 76, 65, 78, 68, 13, 65, 82, 77, 13], "trial": 2, "time_elapsed": 598515, "type": "FREE_RECALL", "trial_index": 115}, "uniqueid": "MTK3683:3SUWZRL0MZKYL5MLJUE0QLW0HGM6EX", "dateTime": 1520960104495}, {"current_trial": 116, "trialdata": {"rt": 2079, "trial_type": "text", "internal_node_id": "0.0-89.0", "time_elapsed": 602598, "key_press": 32, "type": "INSTRUCTIONS", "trial_index": 116}, "uniqueid": "MTK3683:3SUWZRL0MZKYL5MLJUE0QLW0HGM6EX", "dateTime": 1520960108574}, {"current_trial": 117, "trialdata": {"rt": [7227, 14247, 18329], "trial_type": "math-distractor", "key_times": [6387, 6556, 7227, 12876, 13400, 14247, 17711, 18329, 21659, 22440, 23347, 23938], "responses": ["22", "14", "9"], "num2": [8, 1, 4, 6], "num3": [7, 7, 4, 3], "conditions": [12, 1600, "a", 24000], "internal_node_id": "0.0-90.0", "key_presses": [50, 50, 13, 49, 52, 13, 57, 13, 49, 52, 8, 53], "trial": 3, "time_elapsed": 628603, "type": "DISTRACTOR", "trial_index": 117, "num1": [7, 6, 1, 6]}, "uniqueid": "MTK3683:3SUWZRL0MZKYL5MLJUE0QLW0HGM6EX", "dateTime": 1520960134579}, {"current_trial": 118, "trialdata": {"rt": -1, "trial_type": "single-stim", "stimulus": "<p id=\"stim\">10</p>", "internal_node_id": "0.0-91.0-0.0", "time_elapsed": 631607, "key_press": -1, "trial_index": 118}, "uniqueid": "MTK3683:3SUWZRL0MZKYL5MLJUE0QLW0HGM6EX", "dateTime": 1520960137583}, {"current_trial": 119, "trialdata": {"rt": -1, "trial_type": "single-stim", "stimulus": "<p id=\"stim\">9</p>", "internal_node_id": "0.0-91.0-1.0", "time_elapsed": 632609, "key_press": -1, "trial_index": 119}, "uniqueid": "MTK3683:3SUWZRL0MZKYL5MLJUE0QLW0HGM6EX", "dateTime": 1520960138586}, {"current_trial": 120, "trialdata": {"rt": -1, "trial_type": "single-stim", "stimulus": "<p id=\"stim\">8</p>", "internal_node_id": "0.0-91.0-2.0", "time_elapsed": 633613, "key_press": -1, "trial_index": 120}, "uniqueid": "MTK3683:3SUWZRL0MZKYL5MLJUE0QLW0HGM6EX", "dateTime": 1520960139589}, {"current_trial": 121, "trialdata": {"rt": -1, "trial_type": "single-stim", "stimulus": "<p id=\"stim\">7</p>", "internal_node_id": "0.0-91.0-3.0", "time_elapsed": 634616, "key_press": -1, "trial_index": 121}, "uniqueid": "MTK3683:3SUWZRL0MZKYL5MLJUE0QLW0HGM6EX", "dateTime": 1520960140592}, {"current_trial": 122, "trialdata": {"rt": -1, "trial_type": "single-stim", "stimulus": "<p id=\"stim\">6</p>", "internal_node_id": "0.0-91.0-4.0", "time_elapsed": 635617, "key_press": -1, "trial_index": 122}, "uniqueid": "MTK3683:3SUWZRL0MZKYL5MLJUE0QLW0HGM6EX", "dateTime": 1520960141594}, {"current_trial": 123, "trialdata": {"rt": -1, "trial_type": "single-stim", "stimulus": "<p id=\"stim\">5</p>", "internal_node_id": "0.0-91.0-5.0", "time_elapsed": 636619, "key_press": -1, "trial_index": 123}, "uniqueid": "MTK3683:3SUWZRL0MZKYL5MLJUE0QLW0HGM6EX", "dateTime": 1520960142595}, {"current_trial": 124, "trialdata": {"rt": -1, "trial_type": "single-stim", "stimulus": "<p id=\"stim\">4</p>", "internal_node_id": "0.0-91.0-6.0", "time_elapsed": 637621, "key_press": -1, "trial_index": 124}, "uniqueid": "MTK3683:3SUWZRL0MZKYL5MLJUE0QLW0HGM6EX", "dateTime": 1520960143597}, {"current_trial": 125, "trialdata": {"rt": -1, "trial_type": "single-stim", "stimulus": "<p id=\"stim\">3</p>", "internal_node_id": "0.0-91.0-7.0", "time_elapsed": 638623, "key_press": -1, "trial_index": 125}, "uniqueid": "MTK3683:3SUWZRL0MZKYL5MLJUE0QLW0HGM6EX", "dateTime": 1520960144599}, {"current_trial": 126, "trialdata": {"rt": -1, "trial_type": "single-stim", "stimulus": "<p id=\"stim\">2</p>", "internal_node_id": "0.0-91.0-8.0", "time_elapsed": 639625, "key_press": -1, "trial_index": 126}, "uniqueid": "MTK3683:3SUWZRL0MZKYL5MLJUE0QLW0HGM6EX", "dateTime": 1520960145601}, {"current_trial": 127, "trialdata": {"rt": -1, "trial_type": "single-stim", "stimulus": "<p id=\"stim\">1</p>", "internal_node_id": "0.0-91.0-9.0", "time_elapsed": 640627, "key_press": -1, "trial_index": 127}, "uniqueid": "MTK3683:3SUWZRL0MZKYL5MLJUE0QLW0HGM6EX", "dateTime": 1520960146603}, {"current_trial": 128, "trialdata": {"rt": -1, "trial_type": "single-stim", "stimulus": "<p id=\"stim\">+</p>", "internal_node_id": "0.0-92.0-0.0", "time_elapsed": 642128, "key_press": -1, "type": "FIXATION", "trial_index": 128}, "uniqueid": "MTK3683:3SUWZRL0MZKYL5MLJUE0QLW0HGM6EX", "dateTime": 1520960148104}, {"current_trial": 129, "trialdata": {"rt": -1000, "trial_type": "single-audio", "word": "handbag", "stimulus": "/static/audio/wordpool/HANDBAG.wav", "conditions": [12, 1600, "a", 24000], "internal_node_id": "0.0-93.0", "trial": 3, "time_elapsed": 644615, "serialpos": 0, "key_press": -1, "wordID": 683, "type": "PRES_AUD", "trial_index": 129}, "uniqueid": "MTK3683:3SUWZRL0MZKYL5MLJUE0QLW0HGM6EX", "dateTime": 1520960150591}, {"current_trial": 130, "trialdata": {"rt": -1000, "trial_type": "single-audio", "word": "sibling", "stimulus": "/static/audio/wordpool/SIBLING.wav", "conditions": [12, 1600, "a", 24000], "internal_node_id": "0.0-94.0", "trial": 3, "time_elapsed": 647058, "serialpos": 1, "key_press": -1, "wordID": 1300, "type": "PRES_AUD", "trial_index": 130}, "uniqueid": "MTK3683:3SUWZRL0MZKYL5MLJUE0QLW0HGM6EX", "dateTime": 1520960153034}, {"current_trial": 131, "trialdata": {"rt": -1000, "trial_type": "single-audio", "word": "tortoise", "stimulus": "/static/audio/wordpool/TORTOISE.wav", "conditions": [12, 1600, "a", 24000], "internal_node_id": "0.0-95.0", "trial": 3, "time_elapsed": 649493, "serialpos": 2, "key_press": -1, "wordID": 1485, "type": "PRES_AUD", "trial_index": 131}, "uniqueid": "MTK3683:3SUWZRL0MZKYL5MLJUE0QLW0HGM6EX", "dateTime": 1520960155469}, {"current_trial": 132, "trialdata": {"rt": -1000, "trial_type": "single-audio", "word": "basement", "stimulus": "/static/audio/wordpool/BASEMENT.wav", "conditions": [12, 1600, "a", 24000], "internal_node_id": "0.0-96.0", "trial": 3, "time_elapsed": 652188, "serialpos": 3, "key_press": -1, "wordID": 93, "type": "PRES_AUD", "trial_index": 132}, "uniqueid": "MTK3683:3SUWZRL0MZKYL5MLJUE0QLW0HGM6EX", "dateTime": 1520960158164}, {"current_trial": 133, "trialdata": {"rt": -1000, "trial_type": "single-audio", "word": "kitchen", "stimulus": "/static/audio/wordpool/KITCHEN.wav", "conditions": [12, 1600, "a", 24000], "internal_node_id": "0.0-97.0", "trial": 3, "time_elapsed": 654873, "serialpos": 4, "key_press": -1, "wordID": 777, "type": "PRES_AUD", "trial_index": 133}, "uniqueid": "MTK3683:3SUWZRL0MZKYL5MLJUE0QLW0HGM6EX", "dateTime": 1520960160849}, {"current_trial": 134, "trialdata": {"rt": -1000, "trial_type": "single-audio", "word": "bug", "stimulus": "/static/audio/wordpool/BUG.wav", "conditions": [12, 1600, "a", 24000], "internal_node_id": "0.0-98.0", "trial": 3, "time_elapsed": 657484, "serialpos": 5, "key_press": -1, "wordID": 186, "type": "PRES_AUD", "trial_index": 134}, "uniqueid": "MTK3683:3SUWZRL0MZKYL5MLJUE0QLW0HGM6EX", "dateTime": 1520960163460}, {"current_trial": 135, "trialdata": {"rt": -1000, "trial_type": "single-audio", "word": "eagle", "stimulus": "/static/audio/wordpool/EAGLE.wav", "conditions": [12, 1600, "a", 24000], "internal_node_id": "0.0-99.0", "trial": 3, "time_elapsed": 660036, "serialpos": 6, "key_press": -1, "wordID": 511, "type": "PRES_AUD", "trial_index": 135}, "uniqueid": "MTK3683:3SUWZRL0MZKYL5MLJUE0QLW0HGM6EX", "dateTime": 1520960166012}, {"current_trial": 136, "trialdata": {"rt": -1000, "trial_type": "single-audio", "word": "suitcase", "stimulus": "/static/audio/wordpool/SUITCASE.wav", "conditions": [12, 1600, "a", 24000], "internal_node_id": "0.0-100.0", "trial": 3, "time_elapsed": 662603, "serialpos": 7, "key_press": -1, "wordID": 1402, "type": "PRES_AUD", "trial_index": 136}, "uniqueid": "MTK3683:3SUWZRL0MZKYL5MLJUE0QLW0HGM6EX", "dateTime": 1520960168579}, {"current_trial": 137, "trialdata": {"rt": -1000, "trial_type": "single-audio", "word": "slime", "stimulus": "/static/audio/wordpool/SLIME.wav", "conditions": [12, 1600, "a", 24000], "internal_node_id": "0.0-101.0", "trial": 3, "time_elapsed": 665139, "serialpos": 8, "key_press": -1, "wordID": 1326, "type": "PRES_AUD", "trial_index": 137}, "uniqueid": "MTK3683:3SUWZRL0MZKYL5MLJUE0QLW0HGM6EX", "dateTime": 1520960171115}, {"current_trial": 138, "trialdata": {"rt": -1000, "trial_type": "single-audio", "word": "tribe", "stimulus": "/static/audio/wordpool/TRIBE.wav", "conditions": [12, 1600, "a", 24000], "internal_node_id": "0.0-102.0", "trial": 3, "time_elapsed": 667644, "serialpos": 9, "key_press": -1, "wordID": 1504, "type": "PRES_AUD", "trial_index": 138}, "uniqueid": "MTK3683:3SUWZRL0MZKYL5MLJUE0QLW0HGM6EX", "dateTime": 1520960173620}, {"current_trial": 139, "trialdata": {"rt": -1000, "trial_type": "single-audio", "word": "parsley", "stimulus": "/static/audio/wordpool/PARSLEY.wav", "conditions": [12, 1600, "a", 24000], "internal_node_id": "0.0-103.0", "trial": 3, "time_elapsed": 670340, "serialpos": 10, "key_press": -1, "wordID": 1015, "type": "PRES_AUD", "trial_index": 139}, "uniqueid": "MTK3683:3SUWZRL0MZKYL5MLJUE0QLW0HGM6EX", "dateTime": 1520960176316}, {"current_trial": 140, "trialdata": {"rt": -1000, "trial_type": "single-audio", "word": "braces", "stimulus": "/static/audio/wordpool/BRACES.wav", "conditions": [12, 1600, "a", 24000], "internal_node_id": "0.0-104.0", "trial": 3, "time_elapsed": 672961, "serialpos": 11, "key_press": -1, "wordID": 163, "type": "PRES_AUD", "trial_index": 140}, "uniqueid": "MTK3683:3SUWZRL0MZKYL5MLJUE0QLW0HGM6EX", "dateTime": 1520960178937}, {"current_trial": 141, "trialdata": {"rt": -1, "trial_type": "single-stim", "stimulus": "", "internal_node_id": "0.0-105.0-0.0", "time_elapsed": 674338, "key_press": -1, "type": "PRE_RECALL_DELAY", "trial_index": 141}, "uniqueid": "MTK3683:3SUWZRL0MZKYL5MLJUE0QLW0HGM6EX", "dateTime": 1520960180315}, {"current_trial": 142, "trialdata": {"rt": -1000, "trial_type": "single-audio", "stimulus": "/static/audio/400Hz.wav", "internal_node_id": "0.0-106.0", "time_elapsed": 674842, "key_press": -1, "type": "PRE_RECALL_ALERT", "trial_index": 142}, "uniqueid": "MTK3683:3SUWZRL0MZKYL5MLJUE0QLW0HGM6EX", "dateTime": 1520960180818}, {"current_trial": 143, "trialdata": {"rt": [6894, 9600, 12647, 14628, 18308, 21616, 24411, 30090, 38230], "recwords": ["braces", "parsley", "slime", "bug", "eagle", "basement", "sibling", "handbag", "tribe"], "key_times": [5194, 5453, 5638, 5790, 5973, 6204, 6894, 7501, 7667, 7895, 8161, 8349, 8466, 8757, 9600, 9903, 10506, 10730, 10986, 11233, 12647, 13135, 13641, 13947, 14628, 14855, 15185, 15580, 15935, 16166, 18308, 18982, 19139, 19389, 19641, 19867, 20016, 20149, 20367, 21616, 22227, 22462, 22718, 23168, 23368, 23562, 23792, 24411, 27384, 27553, 27778, 28411, 28814, 29015, 29284, 30090, 36662, 36878, 37086, 37339, 37545, 38230], "trial_type": "free-recall", "conditions": [12, 1600, "a", 24000], "internal_node_id": "0.0-107.0-0.0", "key_presses": [66, 82, 65, 67, 69, 83, 13, 80, 65, 82, 83, 76, 69, 89, 13, 83, 76, 73, 77, 69, 13, 66, 85, 71, 13, 69, 65, 71, 76, 69, 13, 66, 65, 83, 69, 77, 69, 78, 84, 13, 83, 73, 66, 76, 73, 78, 71, 13, 72, 65, 78, 68, 66, 65, 71, 13, 84, 82, 73, 66, 69, 13], "trial": 3, "time_elapsed": 734845, "type": "FREE_RECALL", "trial_index": 143}, "uniqueid": "MTK3683:3SUWZRL0MZKYL5MLJUE0QLW0HGM6EX", "dateTime": 1520960240823}, {"current_trial": 144, "trialdata": {"rt": 1097, "trial_type": "text", "internal_node_id": "0.0-108.0", "time_elapsed": 737945, "key_press": 32, "type": "INSTRUCTIONS", "trial_index": 144}, "uniqueid": "MTK3683:3SUWZRL0MZKYL5MLJUE0QLW0HGM6EX", "dateTime": 1520960243921}, {"current_trial": 145, "trialdata": {"rt": [4282, 9194], "trial_type": "math-distractor", "key_times": [3634, 4282, 7150, 7624, 9194], "responses": ["9", "13"], "num2": [4, 8, 4], "num3": [1, 4, 9], "conditions": [24, 1600, "a", 12000], "internal_node_id": "0.0-109.0", "key_presses": [57, 13, 49, 51, 13], "trial": 4, "time_elapsed": 751950, "type": "DISTRACTOR", "trial_index": 145, "num1": [4, 1, 2]}, "uniqueid": "MTK3683:3SUWZRL0MZKYL5MLJUE0QLW0HGM6EX", "dateTime": 1520960257926}, {"current_trial": 146, "trialdata": {"rt": -1, "trial_type": "single-stim", "stimulus": "<p id=\"stim\">10</p>", "internal_node_id": "0.0-110.0-0.0", "time_elapsed": 754953, "key_press": -1, "trial_index": 146}, "uniqueid": "MTK3683:3SUWZRL0MZKYL5MLJUE0QLW0HGM6EX", "dateTime": 1520960260929}, {"current_trial": 147, "trialdata": {"rt": -1, "trial_type": "single-stim", "stimulus": "<p id=\"stim\">9</p>", "internal_node_id": "0.0-110.0-1.0", "time_elapsed": 755955, "key_press": -1, "trial_index": 147}, "uniqueid": "MTK3683:3SUWZRL0MZKYL5MLJUE0QLW0HGM6EX", "dateTime": 1520960261931}, {"current_trial": 148, "trialdata": {"rt": -1, "trial_type": "single-stim", "stimulus": "<p id=\"stim\">8</p>", "internal_node_id": "0.0-110.0-2.0", "time_elapsed": 756957, "key_press": -1, "trial_index": 148}, "uniqueid": "MTK3683:3SUWZRL0MZKYL5MLJUE0QLW0HGM6EX", "dateTime": 1520960262933}, {"current_trial": 149, "trialdata": {"rt": -1, "trial_type": "single-stim", "stimulus": "<p id=\"stim\">7</p>", "internal_node_id": "0.0-110.0-3.0", "time_elapsed": 757958, "key_press": -1, "trial_index": 149}, "uniqueid": "MTK3683:3SUWZRL0MZKYL5MLJUE0QLW0HGM6EX", "dateTime": 1520960263935}, {"current_trial": 150, "trialdata": {"rt": -1, "trial_type": "single-stim", "stimulus": "<p id=\"stim\">6</p>", "internal_node_id": "0.0-110.0-4.0", "time_elapsed": 758961, "key_press": -1, "trial_index": 150}, "uniqueid": "MTK3683:3SUWZRL0MZKYL5MLJUE0QLW0HGM6EX", "dateTime": 1520960264937}, {"current_trial": 151, "trialdata": {"rt": -1, "trial_type": "single-stim", "stimulus": "<p id=\"stim\">5</p>", "internal_node_id": "0.0-110.0-5.0", "time_elapsed": 759963, "key_press": -1, "trial_index": 151}, "uniqueid": "MTK3683:3SUWZRL0MZKYL5MLJUE0QLW0HGM6EX", "dateTime": 1520960265939}, {"current_trial": 152, "trialdata": {"rt": -1, "trial_type": "single-stim", "stimulus": "<p id=\"stim\">4</p>", "internal_node_id": "0.0-110.0-6.0", "time_elapsed": 760966, "key_press": -1, "trial_index": 152}, "uniqueid": "MTK3683:3SUWZRL0MZKYL5MLJUE0QLW0HGM6EX", "dateTime": 1520960266942}, {"current_trial": 153, "trialdata": {"rt": -1, "trial_type": "single-stim", "stimulus": "<p id=\"stim\">3</p>", "internal_node_id": "0.0-110.0-7.0", "time_elapsed": 761967, "key_press": -1, "trial_index": 153}, "uniqueid": "MTK3683:3SUWZRL0MZKYL5MLJUE0QLW0HGM6EX", "dateTime": 1520960267943}, {"current_trial": 154, "trialdata": {"rt": -1, "trial_type": "single-stim", "stimulus": "<p id=\"stim\">2</p>", "internal_node_id": "0.0-110.0-8.0", "time_elapsed": 762968, "key_press": -1, "trial_index": 154}, "uniqueid": "MTK3683:3SUWZRL0MZKYL5MLJUE0QLW0HGM6EX", "dateTime": 1520960268945}, {"current_trial": 155, "trialdata": {"rt": -1, "trial_type": "single-stim", "stimulus": "<p id=\"stim\">1</p>", "internal_node_id": "0.0-110.0-9.0", "time_elapsed": 763970, "key_press": -1, "trial_index": 155}, "uniqueid": "MTK3683:3SUWZRL0MZKYL5MLJUE0QLW0HGM6EX", "dateTime": 1520960269946}, {"current_trial": 156, "trialdata": {"rt": -1, "trial_type": "single-stim", "stimulus": "<p id=\"stim\">+</p>", "internal_node_id": "0.0-111.0-0.0", "time_elapsed": 765473, "key_press": -1, "type": "FIXATION", "trial_index": 156}, "uniqueid": "MTK3683:3SUWZRL0MZKYL5MLJUE0QLW0HGM6EX", "dateTime": 1520960271450}, {"current_trial": 157, "trialdata": {"rt": -1000, "trial_type": "single-audio", "word": "playground", "stimulus": "/static/audio/wordpool/PLAYGROUND.wav", "conditions": [24, 1600, "a", 12000], "internal_node_id": "0.0-112.0", "trial": 4, "time_elapsed": 767931, "serialpos": 0, "key_press": -1, "wordID": 1086, "type": "PRES_AUD", "trial_index": 157}, "uniqueid": "MTK3683:3SUWZRL0MZKYL5MLJUE0QLW0HGM6EX", "dateTime": 1520960273907}, {"current_trial": 158, "trialdata": {"rt": -1000, "trial_type": "single-audio", "word": "tart", "stimulus": "/static/audio/wordpool/TART.wav", "conditions": [24, 1600, "a", 12000], "internal_node_id": "0.0-113.0", "trial": 4, "time_elapsed": 770730, "serialpos": 1, "key_press": -1, "wordID": 1435, "type": "PRES_AUD", "trial_index": 158}, "uniqueid": "MTK3683:3SUWZRL0MZKYL5MLJUE0QLW0HGM6EX", "dateTime": 1520960276706}, {"current_trial": 159, "trialdata": {"rt": -1000, "trial_type": "single-audio", "word": "beast", "stimulus": "/static/audio/wordpool/BEAST.wav", "conditions": [24, 1600, "a", 12000], "internal_node_id": "0.0-114.0", "trial": 4, "time_elapsed": 773271, "serialpos": 2, "key_press": -1, "wordID": 107, "type": "PRES_AUD", "trial_index": 159}, "uniqueid": "MTK3683:3SUWZRL0MZKYL5MLJUE0QLW0HGM6EX", "dateTime": 1520960279247}, {"current_trial": 160, "trialdata": {"rt": -1000, "trial_type": "single-audio", "word": "swimmer", "stimulus": "/static/audio/wordpool/SWIMMER.wav", "conditions": [24, 1600, "a", 12000], "internal_node_id": "0.0-115.0", "trial": 4, "time_elapsed": 775960, "serialpos": 3, "key_press": -1, "wordID": 1419, "type": "PRES_AUD", "trial_index": 160}, "uniqueid": "MTK3683:3SUWZRL0MZKYL5MLJUE0QLW0HGM6EX", "dateTime": 1520960281937}, {"current_trial": 161, "trialdata": {"rt": -1000, "trial_type": "single-audio", "word": "diver", "stimulus": "/static/audio/wordpool/DIVER.wav", "conditions": [24, 1600, "a", 12000], "internal_node_id": "0.0-116.0", "trial": 4, "time_elapsed": 778376, "serialpos": 4, "key_press": -1, "wordID": 475, "type": "PRES_AUD", "trial_index": 161}, "uniqueid": "MTK3683:3SUWZRL0MZKYL5MLJUE0QLW0HGM6EX", "dateTime": 1520960284352}, {"current_trial": 162, "trialdata": {"rt": -1000, "trial_type": "single-audio", "word": "monster", "stimulus": "/static/audio/wordpool/MONSTER.wav", "conditions": [24, 1600, "a", 12000], "internal_node_id": "0.0-117.0", "trial": 4, "time_elapsed": 780867, "serialpos": 5, "key_press": -1, "wordID": 911, "type": "PRES_AUD", "trial_index": 162}, "uniqueid": "MTK3683:3SUWZRL0MZKYL5MLJUE0QLW0HGM6EX", "dateTime": 1520960286844}, {"current_trial": 163, "trialdata": {"rt": -1000, "trial_type": "single-audio", "word": "package", "stimulus": "/static/audio/wordpool/PACKAGE.wav", "conditions": [24, 1600, "a", 12000], "internal_node_id": "0.0-118.0", "trial": 4, "time_elapsed": 783632, "serialpos": 6, "key_press": -1, "wordID": 996, "type": "PRES_AUD", "trial_index": 163}, "uniqueid": "MTK3683:3SUWZRL0MZKYL5MLJUE0QLW0HGM6EX", "dateTime": 1520960289608}, {"current_trial": 164, "trialdata": {"rt": -1000, "trial_type": "single-audio", "word": "marsh", "stimulus": "/static/audio/wordpool/MARSH.wav", "conditions": [24, 1600, "a", 12000], "internal_node_id": "0.0-119.0", "trial": 4, "time_elapsed": 786035, "serialpos": 7, "key_press": -1, "wordID": 873, "type": "PRES_AUD", "trial_index": 164}, "uniqueid": "MTK3683:3SUWZRL0MZKYL5MLJUE0QLW0HGM6EX", "dateTime": 1520960292011}, {"current_trial": 165, "trialdata": {"rt": -1000, "trial_type": "single-audio", "word": "creature", "stimulus": "/static/audio/wordpool/CREATURE.wav", "conditions": [24, 1600, "a", 12000], "internal_node_id": "0.0-120.0", "trial": 4, "time_elapsed": 788609, "serialpos": 8, "key_press": -1, "wordID": 402, "type": "PRES_AUD", "trial_index": 165}, "uniqueid": "MTK3683:3SUWZRL0MZKYL5MLJUE0QLW0HGM6EX", "dateTime": 1520960294585}, {"current_trial": 166, "trialdata": {"rt": -1000, "trial_type": "single-audio", "word": "pluto", "stimulus": "/static/audio/wordpool/PLUTO.wav", "conditions": [24, 1600, "a", 12000], "internal_node_id": "0.0-121.0", "trial": 4, "time_elapsed": 791205, "serialpos": 9, "key_press": -1, "wordID": 1091, "type": "PRES_AUD", "trial_index": 166}, "uniqueid": "MTK3683:3SUWZRL0MZKYL5MLJUE0QLW0HGM6EX", "dateTime": 1520960297181}, {"current_trial": 167, "trialdata": {"rt": -1000, "trial_type": "single-audio", "word": "ox", "stimulus": "/static/audio/wordpool/OX.wav", "conditions": [24, 1600, "a", 12000], "internal_node_id": "0.0-122.0", "trial": 4, "time_elapsed": 793632, "serialpos": 10, "key_press": -1, "wordID": 993, "type": "PRES_AUD", "trial_index": 167}, "uniqueid": "MTK3683:3SUWZRL0MZKYL5MLJUE0QLW0HGM6EX", "dateTime": 1520960299609}, {"current_trial": 168, "trialdata": {"rt": -1000, "trial_type": "single-audio", "word": "mars", "stimulus": "/static/audio/wordpool/MARS.wav", "conditions": [24, 1600, "a", 12000], "internal_node_id": "0.0-123.0", "trial": 4, "time_elapsed": 796089, "serialpos": 11, "key_press": -1, "wordID": 872, "type": "PRES_AUD", "trial_index": 168}, "uniqueid": "MTK3683:3SUWZRL0MZKYL5MLJUE0QLW0HGM6EX", "dateTime": 1520960302065}, {"current_trial": 169, "trialdata": {"rt": -1000, "trial_type": "single-audio", "word": "shrub", "stimulus": "/static/audio/wordpool/SHRUB.wav", "conditions": [24, 1600, "a", 12000], "internal_node_id": "0.0-124.0", "trial": 4, "time_elapsed": 798607, "serialpos": 12, "key_press": -1, "wordID": 1298, "type": "PRES_AUD", "trial_index": 169}, "uniqueid": "MTK3683:3SUWZRL0MZKYL5MLJUE0QLW0HGM6EX", "dateTime": 1520960304584}, {"current_trial": 170, "trialdata": {"rt": -1000, "trial_type": "single-audio", "word": "staple", "stimulus": "/static/audio/wordpool/STAPLE.wav", "conditions": [24, 1600, "a", 12000], "internal_node_id": "0.0-125.0", "trial": 4, "time_elapsed": 801343, "serialpos": 13, "key_press": -1, "wordID": 1370, "type": "PRES_AUD", "trial_index": 170}, "uniqueid": "MTK3683:3SUWZRL0MZKYL5MLJUE0QLW0HGM6EX", "dateTime": 1520960307319}, {"current_trial": 171, "trialdata": {"rt": -1000, "trial_type": "single-audio", "word": "popcorn", "stimulus": "/static/audio/wordpool/POPCORN.wav", "conditions": [24, 1600, "a", 12000], "internal_node_id": "0.0-126.0", "trial": 4, "time_elapsed": 804139, "serialpos": 14, "key_press": -1, "wordID": 1103, "type": "PRES_AUD", "trial_index": 171}, "uniqueid": "MTK3683:3SUWZRL0MZKYL5MLJUE0QLW0HGM6EX", "dateTime": 1520960310116}, {"current_trial": 172, "trialdata": {"rt": -1000, "trial_type": "single-audio", "word": "stallion", "stimulus": "/static/audio/wordpool/STALLION.wav", "conditions": [24, 1600, "a", 12000], "internal_node_id": "0.0-127.0", "trial": 4, "time_elapsed": 806703, "serialpos": 15, "key_press": -1, "wordID": 1368, "type": "PRES_AUD", "trial_index": 172}, "uniqueid": "MTK3683:3SUWZRL0MZKYL5MLJUE0QLW0HGM6EX", "dateTime": 1520960312679}, {"current_trial": 173, "trialdata": {"rt": -1000, "trial_type": "single-audio", "word": "orchid", "stimulus": "/static/audio/wordpool/ORCHID.wav", "conditions": [24, 1600, "a", 12000], "internal_node_id": "0.0-128.0", "trial": 4, "time_elapsed": 809443, "serialpos": 16, "key_press": -1, "wordID": 981, "type": "PRES_AUD", "trial_index": 173}, "uniqueid": "MTK3683:3SUWZRL0MZKYL5MLJUE0QLW0HGM6EX", "dateTime": 1520960315419}, {"current_trial": 174, "trialdata": {"rt": -1000, "trial_type": "single-audio", "word": "motel", "stimulus": "/static/audio/wordpool/MOTEL.wav", "conditions": [24, 1600, "a", 12000], "internal_node_id": "0.0-129.0", "trial": 4, "time_elapsed": 812004, "serialpos": 17, "key_press": -1, "wordID": 918, "type": "PRES_AUD", "trial_index": 174}, "uniqueid": "MTK3683:3SUWZRL0MZKYL5MLJUE0QLW0HGM6EX", "dateTime": 1520960317980}, {"current_trial": 175, "trialdata": {"rt": -1000, "trial_type": "single-audio", "word": "jello", "stimulus": "/static/audio/wordpool/JELLO.wav", "conditions": [24, 1600, "a", 12000], "internal_node_id": "0.0-130.0", "trial": 4, "time_elapsed": 814544, "serialpos": 18, "key_press": -1, "wordID": 753, "type": "PRES_AUD", "trial_index": 175}, "uniqueid": "MTK3683:3SUWZRL0MZKYL5MLJUE0QLW0HGM6EX", "dateTime": 1520960320521}, {"current_trial": 176, "trialdata": {"rt": -1000, "trial_type": "single-audio", "word": "bucket", "stimulus": "/static/audio/wordpool/BUCKET.wav", "conditions": [24, 1600, "a", 12000], "internal_node_id": "0.0-131.0", "trial": 4, "time_elapsed": 817249, "serialpos": 19, "key_press": -1, "wordID": 183, "type": "PRES_AUD", "trial_index": 176}, "uniqueid": "MTK3683:3SUWZRL0MZKYL5MLJUE0QLW0HGM6EX", "dateTime": 1520960323225}, {"current_trial": 177, "trialdata": {"rt": -1000, "trial_type": "single-audio", "word": "oyster", "stimulus": "/static/audio/wordpool/OYSTER.wav", "conditions": [24, 1600, "a", 12000], "internal_node_id": "0.0-132.0", "trial": 4, "time_elapsed": 820010, "serialpos": 20, "key_press": -1, "wordID": 994, "type": "PRES_AUD", "trial_index": 177}, "uniqueid": "MTK3683:3SUWZRL0MZKYL5MLJUE0QLW0HGM6EX", "dateTime": 1520960325986}, {"current_trial": 178, "trialdata": {"rt": -1000, "trial_type": "single-audio", "word": "knife", "stimulus": "/static/audio/wordpool/KNIFE.wav", "conditions": [24, 1600, "a", 12000], "internal_node_id": "0.0-133.0", "trial": 4, "time_elapsed": 822666, "serialpos": 21, "key_press": -1, "wordID": 784, "type": "PRES_AUD", "trial_index": 178}, "uniqueid": "MTK3683:3SUWZRL0MZKYL5MLJUE0QLW0HGM6EX", "dateTime": 1520960328642}, {"current_trial": 179, "trialdata": {"rt": -1000, "trial_type": "single-audio", "word": "pistol", "stimulus": "/static/audio/wordpool/PISTOL.wav", "conditions": [24, 1600, "a", 12000], "internal_node_id": "0.0-134.0", "trial": 4, "time_elapsed": 825308, "serialpos": 22, "key_press": -1, "wordID": 1074, "type": "PRES_AUD", "trial_index": 179}, "uniqueid": "MTK3683:3SUWZRL0MZKYL5MLJUE0QLW0HGM6EX", "dateTime": 1520960331284}, {"current_trial": 180, "trialdata": {"rt": -1000, "trial_type": "single-audio", "word": "garden", "stimulus": "/static/audio/wordpool/GARDEN.wav", "conditions": [24, 1600, "a", 12000], "internal_node_id": "0.0-135.0", "trial": 4, "time_elapsed": 827956, "serialpos": 23, "key_press": -1, "wordID": 622, "type": "PRES_AUD", "trial_index": 180}, "uniqueid": "MTK3683:3SUWZRL0MZKYL5MLJUE0QLW0HGM6EX", "dateTime": 1520960333933}, {"current_trial": 181, "trialdata": {"rt": -1, "trial_type": "single-stim", "stimulus": "", "internal_node_id": "0.0-136.0-0.0", "time_elapsed": 829283, "key_press": -1, "type": "PRE_RECALL_DELAY", "trial_index": 181}, "uniqueid": "MTK3683:3SUWZRL0MZKYL5MLJUE0QLW0HGM6EX", "dateTime": 1520960335259}, {"current_trial": 182, "trialdata": {"rt": -1000, "trial_type": "single-audio", "stimulus": "/static/audio/400Hz.wav", "internal_node_id": "0.0-137.0", "time_elapsed": 829784, "key_press": -1, "type": "PRE_RECALL_ALERT", "trial_index": 182}, "uniqueid": "MTK3683:3SUWZRL0MZKYL5MLJUE0QLW0HGM6EX", "dateTime": 1520960335760}, {"current_trial": 183, "trialdata": {"rt": [11804, 15969, 20987, 23809, 26321, 30223, 33018, 36778, 39947, 46258, 48700, 52275, 53924, 57445], "recwords": ["playground", "beast", "garden", "swimmer", "diver", "monster", "package", "marsh", "pluto", "creature", "ox", "shrub", "staple", "popcorn"], "key_times": [5188, 5394, 5564, 5731, 6347, 6571, 6724, 6876, 7102, 7313, 8225, 8389, 8529, 8691, 9327, 9574, 10332, 10908, 11150, 11410, 11804, 13489, 13707, 13817, 14030, 14357, 15969, 16580, 16720, 16927, 18261, 18512, 19063, 20987, 21545, 21759, 22059, 22311, 22455, 22679, 22758, 23809, 24082, 24380, 24549, 24815, 24902, 26321, 27133, 27285, 27492, 27589, 28416, 28625, 28713, 30223, 31075, 31198, 31529, 32022, 32224, 32419, 32582, 33018, 33616, 33751, 34256, 34548, 34816, 36778, 38229, 38445, 38733, 39015, 39300, 39947, 43892, 44187, 44326, 44446, 45049, 45325, 45484, 45567, 46258, 46805, 47082, 48700, 49597, 49887, 50117, 50392, 50636, 52275, 52518, 52842, 52990, 53354, 53539, 53709, 53924, 54498, 54744, 54892, 55149, 56066, 56231, 56492, 57445, 57740, 58284, 58586, 59670, 59967], "trial_type": "free-recall", "conditions": [24, 1600, "a", 12000], "internal_node_id": "0.0-138.0-0.0", "key_presses": [80, 76, 65, 89, 71, 82, 73, 85, 78, 68, 8, 8, 8, 8, 79, 73, 8, 85, 78, 68, 13, 66, 69, 65, 83, 84, 13, 71, 65, 82, 68, 69, 78, 13, 83, 87, 73, 77, 77, 69, 82, 13, 68, 73, 86, 69, 82, 13, 77, 79, 78, 83, 84, 69, 82, 13, 80, 65, 67, 75, 65, 71, 69, 13, 77, 65, 82, 83, 72, 13, 80, 76, 85, 84, 79, 13, 67, 82, 69, 65, 84, 85, 82, 69, 13, 79, 88, 13, 83, 72, 82, 85, 66, 13, 83, 84, 65, 80, 76, 69, 13, 80, 79, 80, 67, 79, 82, 78, 13, 83, 84, 65, 76, 73], "trial": 4, "time_elapsed": 889787, "type": "FREE_RECALL", "trial_index": 183}, "uniqueid": "MTK3683:3SUWZRL0MZKYL5MLJUE0QLW0HGM6EX", "dateTime": 1520960395766}, {"current_trial": 184, "trialdata": {"rt": 2560, "trial_type": "text", "internal_node_id": "0.0-139.0", "time_elapsed": 894353, "key_press": 13, "type": "INSTRUCTIONS", "trial_index": 184}, "uniqueid": "MTK3683:3SUWZRL0MZKYL5MLJUE0QLW0HGM6EX", "dateTime": 1520960400329}, {"current_trial": 185, "trialdata": {"rt": [6861, 10074, 15595, 23502], "trial_type": "math-distractor", "key_times": [5587, 6140, 6861, 8950, 9468, 10074, 14119, 14905, 15595, 22539, 22756, 23502], "responses": ["14", "10", "18", "21"], "num2": [1, 1, 7, 8, 5], "num3": [6, 5, 6, 6, 9], "conditions": [24, 800, "a", 24000], "internal_node_id": "0.0-140.0", "key_presses": [49, 52, 13, 49, 48, 13, 49, 56, 13, 50, 49, 13], "trial": 5, "time_elapsed": 920359, "type": "DISTRACTOR", "trial_index": 185, "num1": [7, 4, 5, 7, 8]}, "uniqueid": "MTK3683:3SUWZRL0MZKYL5MLJUE0QLW0HGM6EX", "dateTime": 1520960426335}, {"current_trial": 186, "trialdata": {"rt": -1, "trial_type": "single-stim", "stimulus": "<p id=\"stim\">10</p>", "internal_node_id": "0.0-141.0-0.0", "time_elapsed": 923362, "key_press": -1, "trial_index": 186}, "uniqueid": "MTK3683:3SUWZRL0MZKYL5MLJUE0QLW0HGM6EX", "dateTime": 1520960429338}, {"current_trial": 187, "trialdata": {"rt": -1, "trial_type": "single-stim", "stimulus": "<p id=\"stim\">9</p>", "internal_node_id": "0.0-141.0-1.0", "time_elapsed": 924364, "key_press": -1, "trial_index": 187}, "uniqueid": "MTK3683:3SUWZRL0MZKYL5MLJUE0QLW0HGM6EX", "dateTime": 1520960430340}, {"current_trial": 188, "trialdata": {"rt": -1, "trial_type": "single-stim", "stimulus": "<p id=\"stim\">8</p>", "internal_node_id": "0.0-141.0-2.0", "time_elapsed": 925366, "key_press": -1, "trial_index": 188}, "uniqueid": "MTK3683:3SUWZRL0MZKYL5MLJUE0QLW0HGM6EX", "dateTime": 1520960431342}, {"current_trial": 189, "trialdata": {"rt": -1, "trial_type": "single-stim", "stimulus": "<p id=\"stim\">7</p>", "internal_node_id": "0.0-141.0-3.0", "time_elapsed": 926367, "key_press": -1, "trial_index": 189}, "uniqueid": "MTK3683:3SUWZRL0MZKYL5MLJUE0QLW0HGM6EX", "dateTime": 1520960432343}, {"current_trial": 190, "trialdata": {"rt": -1, "trial_type": "single-stim", "stimulus": "<p id=\"stim\">6</p>", "internal_node_id": "0.0-141.0-4.0", "time_elapsed": 927369, "key_press": -1, "trial_index": 190}, "uniqueid": "MTK3683:3SUWZRL0MZKYL5MLJUE0QLW0HGM6EX", "dateTime": 1520960433345}, {"current_trial": 191, "trialdata": {"rt": -1, "trial_type": "single-stim", "stimulus": "<p id=\"stim\">5</p>", "internal_node_id": "0.0-141.0-5.0", "time_elapsed": 928370, "key_press": -1, "trial_index": 191}, "uniqueid": "MTK3683:3SUWZRL0MZKYL5MLJUE0QLW0HGM6EX", "dateTime": 1520960434346}, {"current_trial": 192, "trialdata": {"rt": -1, "trial_type": "single-stim", "stimulus": "<p id=\"stim\">4</p>", "internal_node_id": "0.0-141.0-6.0", "time_elapsed": 929372, "key_press": -1, "trial_index": 192}, "uniqueid": "MTK3683:3SUWZRL0MZKYL5MLJUE0QLW0HGM6EX", "dateTime": 1520960435348}, {"current_trial": 193, "trialdata": {"rt": -1, "trial_type": "single-stim", "stimulus": "<p id=\"stim\">3</p>", "internal_node_id": "0.0-141.0-7.0", "time_elapsed": 930374, "key_press": -1, "trial_index": 193}, "uniqueid": "MTK3683:3SUWZRL0MZKYL5MLJUE0QLW0HGM6EX", "dateTime": 1520960436350}, {"current_trial": 194, "trialdata": {"rt": -1, "trial_type": "single-stim", "stimulus": "<p id=\"stim\">2</p>", "internal_node_id": "0.0-141.0-8.0", "time_elapsed": 931376, "key_press": -1, "trial_index": 194}, "uniqueid": "MTK3683:3SUWZRL0MZKYL5MLJUE0QLW0HGM6EX", "dateTime": 1520960437353}, {"current_trial": 195, "trialdata": {"rt": -1, "trial_type": "single-stim", "stimulus": "<p id=\"stim\">1</p>", "internal_node_id": "0.0-141.0-9.0", "time_elapsed": 932378, "key_press": -1, "trial_index": 195}, "uniqueid": "MTK3683:3SUWZRL0MZKYL5MLJUE0QLW0HGM6EX", "dateTime": 1520960438354}, {"current_trial": 196, "trialdata": {"rt": -1, "trial_type": "single-stim", "stimulus": "<p id=\"stim\">+</p>", "internal_node_id": "0.0-142.0-0.0", "time_elapsed": 933879, "key_press": -1, "type": "FIXATION", "trial_index": 196}, "uniqueid": "MTK3683:3SUWZRL0MZKYL5MLJUE0QLW0HGM6EX", "dateTime": 1520960439856}, {"current_trial": 197, "trialdata": {"rt": -1000, "trial_type": "single-audio", "word": "beaver", "stimulus": "/static/audio/wordpool/BEAVER.wav", "conditions": [24, 800, "a", 24000], "internal_node_id": "0.0-143.0", "trial": 5, "time_elapsed": 935484, "serialpos": 0, "key_press": -1, "wordID": 108, "type": "PRES_AUD", "trial_index": 197}, "uniqueid": "MTK3683:3SUWZRL0MZKYL5MLJUE0QLW0HGM6EX", "dateTime": 1520960441460}, {"current_trial": 198, "trialdata": {"rt": -1000, "trial_type": "single-audio", "word": "scarecrow", "stimulus": "/static/audio/wordpool/SCARECROW.wav", "conditions": [24, 800, "a", 24000], "internal_node_id": "0.0-144.0", "trial": 5, "time_elapsed": 937446, "serialpos": 1, "key_press": -1, "wordID": 1244, "type": "PRES_AUD", "trial_index": 198}, "uniqueid": "MTK3683:3SUWZRL0MZKYL5MLJUE0QLW0HGM6EX", "dateTime": 1520960443422}, {"current_trial": 199, "trialdata": {"rt": -1000, "trial_type": "single-audio", "word": "dime", "stimulus": "/static/audio/wordpool/DIME.wav", "conditions": [24, 800, "a", 24000], "internal_node_id": "0.0-145.0", "trial": 5, "time_elapsed": 939115, "serialpos": 2, "key_press": -1, "wordID": 465, "type": "PRES_AUD", "trial_index": 199}, "uniqueid": "MTK3683:3SUWZRL0MZKYL5MLJUE0QLW0HGM6EX", "dateTime": 1520960445091}, {"current_trial": 200, "trialdata": {"rt": -1000, "trial_type": "single-audio", "word": "beaker", "stimulus": "/static/audio/wordpool/BEAKER.wav", "conditions": [24, 800, "a", 24000], "internal_node_id": "0.0-146.0", "trial": 5, "time_elapsed": 940721, "serialpos": 3, "key_press": -1, "wordID": 103, "type": "PRES_AUD", "trial_index": 200}, "uniqueid": "MTK3683:3SUWZRL0MZKYL5MLJUE0QLW0HGM6EX", "dateTime": 1520960446697}, {"current_trial": 201, "trialdata": {"rt": -1000, "trial_type": "single-audio", "word": "necklace", "stimulus": "/static/audio/wordpool/NECKLACE.wav", "conditions": [24, 800, "a", 24000], "internal_node_id": "0.0-147.0", "trial": 5, "time_elapsed": 942486, "serialpos": 4, "key_press": -1, "wordID": 939, "type": "PRES_AUD", "trial_index": 201}, "uniqueid": "MTK3683:3SUWZRL0MZKYL5MLJUE0QLW0HGM6EX", "dateTime": 1520960448462}, {"current_trial": 202, "trialdata": {"rt": -1000, "trial_type": "single-audio", "word": "shark", "stimulus": "/static/audio/wordpool/SHARK.wav", "conditions": [24, 800, "a", 24000], "internal_node_id": "0.0-148.0", "trial": 5, "time_elapsed": 944314, "serialpos": 5, "key_press": -1, "wordID": 1274, "type": "PRES_AUD", "trial_index": 202}, "uniqueid": "MTK3683:3SUWZRL0MZKYL5MLJUE0QLW0HGM6EX", "dateTime": 1520960450290}, {"current_trial": 203, "trialdata": {"rt": -1000, "trial_type": "single-audio", "word": "camel", "stimulus": "/static/audio/wordpool/CAMEL.wav", "conditions": [24, 800, "a", 24000], "internal_node_id": "0.0-149.0", "trial": 5, "time_elapsed": 945930, "serialpos": 6, "key_press": -1, "wordID": 222, "type": "PRES_AUD", "trial_index": 203}, "uniqueid": "MTK3683:3SUWZRL0MZKYL5MLJUE0QLW0HGM6EX", "dateTime": 1520960451906}, {"current_trial": 204, "trialdata": {"rt": -1000, "trial_type": "single-audio", "word": "razor", "stimulus": "/static/audio/wordpool/RAZOR.wav", "conditions": [24, 800, "a", 24000], "internal_node_id": "0.0-150.0", "trial": 5, "time_elapsed": 947622, "serialpos": 7, "key_press": -1, "wordID": 1170, "type": "PRES_AUD", "trial_index": 204}, "uniqueid": "MTK3683:3SUWZRL0MZKYL5MLJUE0QLW0HGM6EX", "dateTime": 1520960453599}, {"current_trial": 205, "trialdata": {"rt": -1000, "trial_type": "single-audio", "word": "scalpel", "stimulus": "/static/audio/wordpool/SCALPEL.wav", "conditions": [24, 800, "a", 24000], "internal_node_id": "0.0-151.0", "trial": 5, "time_elapsed": 949539, "serialpos": 8, "key_press": -1, "wordID": 1242, "type": "PRES_AUD", "trial_index": 205}, "uniqueid": "MTK3683:3SUWZRL0MZKYL5MLJUE0QLW0HGM6EX", "dateTime": 1520960455516}, {"current_trial": 206, "trialdata": {"rt": -1000, "trial_type": "single-audio", "word": "chipmunk", "stimulus": "/static/audio/wordpool/CHIPMUNK.wav", "conditions": [24, 800, "a", 24000], "internal_node_id": "0.0-152.0", "trial": 5, "time_elapsed": 951296, "serialpos": 9, "key_press": -1, "wordID": 303, "type": "PRES_AUD", "trial_index": 206}, "uniqueid": "MTK3683:3SUWZRL0MZKYL5MLJUE0QLW0HGM6EX", "dateTime": 1520960457273}, {"current_trial": 207, "trialdata": {"rt": -1000, "trial_type": "single-audio", "word": "cattle", "stimulus": "/static/audio/wordpool/CATTLE.wav", "conditions": [24, 800, "a", 24000], "internal_node_id": "0.0-153.0", "trial": 5, "time_elapsed": 953234, "serialpos": 10, "key_press": -1, "wordID": 260, "type": "PRES_AUD", "trial_index": 207}, "uniqueid": "MTK3683:3SUWZRL0MZKYL5MLJUE0QLW0HGM6EX", "dateTime": 1520960459210}, {"current_trial": 208, "trialdata": {"rt": -1000, "trial_type": "single-audio", "word": "parrot", "stimulus": "/static/audio/wordpool/PARROT.wav", "conditions": [24, 800, "a", 24000], "internal_node_id": "0.0-154.0", "trial": 5, "time_elapsed": 955031, "serialpos": 11, "key_press": -1, "wordID": 1014, "type": "PRES_AUD", "trial_index": 208}, "uniqueid": "MTK3683:3SUWZRL0MZKYL5MLJUE0QLW0HGM6EX", "dateTime": 1520960461007}, {"current_trial": 209, "trialdata": {"rt": -1000, "trial_type": "single-audio", "word": "egypt", "stimulus": "/static/audio/wordpool/EGYPT.wav", "conditions": [24, 800, "a", 24000], "internal_node_id": "0.0-155.0", "trial": 5, "time_elapsed": 956680, "serialpos": 12, "key_press": -1, "wordID": 518, "type": "PRES_AUD", "trial_index": 209}, "uniqueid": "MTK3683:3SUWZRL0MZKYL5MLJUE0QLW0HGM6EX", "dateTime": 1520960462656}, {"current_trial": 210, "trialdata": {"rt": -1000, "trial_type": "single-audio", "word": "tractor", "stimulus": "/static/audio/wordpool/TRACTOR.wav", "conditions": [24, 800, "a", 24000], "internal_node_id": "0.0-156.0", "trial": 5, "time_elapsed": 958439, "serialpos": 13, "key_press": -1, "wordID": 1492, "type": "PRES_AUD", "trial_index": 210}, "uniqueid": "MTK3683:3SUWZRL0MZKYL5MLJUE0QLW0HGM6EX", "dateTime": 1520960464415}, {"current_trial": 211, "trialdata": {"rt": -1000, "trial_type": "single-audio", "word": "grape", "stimulus": "/static/audio/wordpool/GRAPE.wav", "conditions": [24, 800, "a", 24000], "internal_node_id": "0.0-157.0", "trial": 5, "time_elapsed": 960138, "serialpos": 14, "key_press": -1, "wordID": 653, "type": "PRES_AUD", "trial_index": 211}, "uniqueid": "MTK3683:3SUWZRL0MZKYL5MLJUE0QLW0HGM6EX", "dateTime": 1520960466114}, {"current_trial": 212, "trialdata": {"rt": -1000, "trial_type": "single-audio", "word": "banjo", "stimulus": "/static/audio/wordpool/BANJO.wav", "conditions": [24, 800, "a", 24000], "internal_node_id": "0.0-158.0", "trial": 5, "time_elapsed": 961811, "serialpos": 15, "key_press": -1, "wordID": 81, "type": "PRES_AUD", "trial_index": 212}, "uniqueid": "MTK3683:3SUWZRL0MZKYL5MLJUE0QLW0HGM6EX", "dateTime": 1520960467787}, {"current_trial": 213, "trialdata": {"rt": -1000, "trial_type": "single-audio", "word": "france", "stimulus": "/static/audio/wordpool/FRANCE.wav", "conditions": [24, 800, "a", 24000], "internal_node_id": "0.0-159.0", "trial": 5, "time_elapsed": 963413, "serialpos": 16, "key_press": -1, "wordID": 600, "type": "PRES_AUD", "trial_index": 213}, "uniqueid": "MTK3683:3SUWZRL0MZKYL5MLJUE0QLW0HGM6EX", "dateTime": 1520960469389}, {"current_trial": 214, "trialdata": {"rt": -1000, "trial_type": "single-audio", "word": "toaster", "stimulus": "/static/audio/wordpool/TOASTER.wav", "conditions": [24, 800, "a", 24000], "internal_node_id": "0.0-160.0", "trial": 5, "time_elapsed": 965157, "serialpos": 17, "key_press": -1, "wordID": 1471, "type": "PRES_AUD", "trial_index": 214}, "uniqueid": "MTK3683:3SUWZRL0MZKYL5MLJUE0QLW0HGM6EX", "dateTime": 1520960471133}, {"current_trial": 215, "trialdata": {"rt": -1000, "trial_type": "single-audio", "word": "police", "stimulus": "/static/audio/wordpool/POLICE.wav", "conditions": [24, 800, "a", 24000], "internal_node_id": "0.0-161.0", "trial": 5, "time_elapsed": 966955, "serialpos": 18, "key_press": -1, "wordID": 1097, "type": "PRES_AUD", "trial_index": 215}, "uniqueid": "MTK3683:3SUWZRL0MZKYL5MLJUE0QLW0HGM6EX", "dateTime": 1520960472931}, {"current_trial": 216, "trialdata": {"rt": -1000, "trial_type": "single-audio", "word": "patrol", "stimulus": "/static/audio/wordpool/PATROL.wav", "conditions": [24, 800, "a", 24000], "internal_node_id": "0.0-162.0", "trial": 5, "time_elapsed": 968848, "serialpos": 19, "key_press": -1, "wordID": 1026, "type": "PRES_AUD", "trial_index": 216}, "uniqueid": "MTK3683:3SUWZRL0MZKYL5MLJUE0QLW0HGM6EX", "dateTime": 1520960474824}, {"current_trial": 217, "trialdata": {"rt": -1000, "trial_type": "single-audio", "word": "label", "stimulus": "/static/audio/wordpool/LABEL.wav", "conditions": [24, 800, "a", 24000], "internal_node_id": "0.0-163.0", "trial": 5, "time_elapsed": 970479, "serialpos": 20, "key_press": -1, "wordID": 789, "type": "PRES_AUD", "trial_index": 217}, "uniqueid": "MTK3683:3SUWZRL0MZKYL5MLJUE0QLW0HGM6EX", "dateTime": 1520960476455}, {"current_trial": 218, "trialdata": {"rt": -1000, "trial_type": "single-audio", "word": "clock", "stimulus": "/static/audio/wordpool/CLOCK.wav", "conditions": [24, 800, "a", 24000], "internal_node_id": "0.0-164.0", "trial": 5, "time_elapsed": 972338, "serialpos": 21, "key_press": -1, "wordID": 324, "type": "PRES_AUD", "trial_index": 218}, "uniqueid": "MTK3683:3SUWZRL0MZKYL5MLJUE0QLW0HGM6EX", "dateTime": 1520960478314}, {"current_trial": 219, "trialdata": {"rt": -1000, "trial_type": "single-audio", "word": "truck", "stimulus": "/static/audio/wordpool/TRUCK.wav", "conditions": [24, 800, "a", 24000], "internal_node_id": "0.0-165.0", "trial": 5, "time_elapsed": 973956, "serialpos": 22, "key_press": -1, "wordID": 1511, "type": "PRES_AUD", "trial_index": 219}, "uniqueid": "MTK3683:3SUWZRL0MZKYL5MLJUE0QLW0HGM6EX", "dateTime": 1520960479932}, {"current_trial": 220, "trialdata": {"rt": -1000, "trial_type": "single-audio", "word": "farmer", "stimulus": "/static/audio/wordpool/FARMER.wav", "conditions": [24, 800, "a", 24000], "internal_node_id": "0.0-166.0", "trial": 5, "time_elapsed": 975676, "serialpos": 23, "key_press": -1, "wordID": 552, "type": "PRES_AUD", "trial_index": 220}, "uniqueid": "MTK3683:3SUWZRL0MZKYL5MLJUE0QLW0HGM6EX", "dateTime": 1520960481653}, {"current_trial": 221, "trialdata": {"rt": -1, "trial_type": "single-stim", "stimulus": "", "internal_node_id": "0.0-167.0-0.0", "time_elapsed": 977023, "key_press": -1, "type": "PRE_RECALL_DELAY", "trial_index": 221}, "uniqueid": "MTK3683:3SUWZRL0MZKYL5MLJUE0QLW0HGM6EX", "dateTime": 1520960482999}, {"current_trial": 222, "trialdata": {"rt": -1000, "trial_type": "single-audio", "stimulus": "/static/audio/400Hz.wav", "internal_node_id": "0.0-168.0", "time_elapsed": 977525, "key_press": -1, "type": "PRE_RECALL_ALERT", "trial_index": 222}, "uniqueid": "MTK3683:3SUWZRL0MZKYL5MLJUE0QLW0HGM6EX", "dateTime": 1520960483501}, {"current_trial": 223, "trialdata": {"rt": [3635, 8101, 9450, 12507, 13918, 16017, 17771, 19311, 24203, 26391, 27779, 32148, 34040, 36956, 38577, 41910, 43964, 46831, 49576, 52562, 56361, 59037], "recwords": ["beaver", "scarecrow", "truck", "farmer", "label", "clock", "dime", "beaker", "necklace", "shark", "camel", "razor", "scarlet", "cattle", "parrot", "grape", "banjo", "france", "toaster", "police", "patrol", "label"], "key_times": [2103, 2492, 2618, 2788, 2986, 3077, 3635, 3879, 4027, 4175, 4409, 4458, 5139, 5664, 5794, 6303, 7308, 7520, 8101, 8455, 8695, 8893, 9039, 9230, 9450, 9991, 10125, 10284, 10490, 10628, 10684, 12507, 12893, 13018, 13172, 13316, 13630, 13918, 14453, 14634, 14794, 14935, 15037, 16017, 16857, 17173, 17358, 17497, 17771, 18345, 18419, 18522, 18769, 18880, 18959, 19311, 21192, 21275, 21476, 21791, 21986, 22079, 22365, 22546, 24203, 25315, 25512, 25596, 25791, 26085, 26391, 26675, 26818, 27081, 27187, 27389, 27779, 29505, 29908, 30129, 30440, 30796, 30921, 31443, 31770, 31931, 32148, 32378, 32567, 32748, 32937, 33534, 33603, 33767, 34040, 35968, 36075, 36318, 36480, 36630, 36753, 36956, 37506, 37607, 37832, 37970, 38142, 38283, 38577, 40710, 40807, 40941, 41219, 41563, 41910, 42530, 42694, 42879, 43373, 43604, 43964, 45735, 45944, 46050, 46259, 46356, 46489, 46831, 48221, 48472, 48626, 48686, 48983, 49163, 49246, 49576, 51449, 51618, 51795, 51972, 52111, 52288, 52562, 54066, 54181, 54455, 54644, 54815, 55004, 55276, 56119, 56361, 57996, 58111, 58287, 58424, 58728, 59037], "trial_type": "free-recall", "conditions": [24, 800, "a", 24000], "internal_node_id": "0.0-169.0-0.0", "key_presses": [66, 69, 65, 86, 69, 82, 13, 83, 67, 65, 82, 69, 86, 8, 67, 82, 79, 87, 13, 84, 82, 85, 67, 75, 32, 70, 65, 82, 77, 69, 82, 13, 76, 65, 66, 69, 76, 32, 67, 76, 79, 67, 75, 13, 68, 73, 77, 69, 13, 66, 69, 65, 75, 69, 82, 13, 78, 69, 67, 75, 76, 65, 67, 69, 13, 83, 72, 65, 82, 75, 13, 67, 65, 77, 69, 76, 13, 82, 65, 88, 79, 8, 8, 90, 79, 82, 13, 83, 67, 65, 82, 76, 69, 84, 13, 67, 65, 84, 84, 76, 69, 13, 80, 65, 82, 82, 79, 84, 13, 71, 82, 65, 80, 69, 13, 66, 65, 78, 74, 79, 13, 70, 82, 65, 78, 67, 69, 13, 84, 79, 65, 83, 84, 69, 82, 13, 80, 79, 76, 73, 67, 69, 13, 80, 65, 84, 82, 79, 76, 222, 8, 13, 76, 65, 66, 69, 76, 13], "trial": 5, "time_elapsed": 1037531, "type": "FREE_RECALL", "trial_index": 223}, "uniqueid": "MTK3683:3SUWZRL0MZKYL5MLJUE0QLW0HGM6EX", "dateTime": 1520960543511}, {"current_trial": 224, "trialdata": {"rt": 1380, "trial_type": "text", "internal_node_id": "0.0-170.0", "time_elapsed": 1040916, "key_press": 32, "type": "INSTRUCTIONS", "trial_index": 224}, "uniqueid": "MTK3683:3SUWZRL0MZKYL5MLJUE0QLW0HGM6EX", "dateTime": 1520960546892}, {"current_trial": 225, "trialdata": {"rt": [7819], "trial_type": "math-distractor", "key_times": [6946, 7150, 7819], "responses": ["12"], "num2": [3, 1], "num3": [7, 4], "conditions": [12, 1600, "a", 12000], "internal_node_id": "0.0-171.0", "key_presses": [49, 50, 13], "trial": 6, "time_elapsed": 1054921, "type": "DISTRACTOR", "trial_index": 225, "num1": [2, 5]}, "uniqueid": "MTK3683:3SUWZRL0MZKYL5MLJUE0QLW0HGM6EX", "dateTime": 1520960560897}, {"current_trial": 226, "trialdata": {"rt": -1, "trial_type": "single-stim", "stimulus": "<p id=\"stim\">10</p>", "internal_node_id": "0.0-172.0-0.0", "time_elapsed": 1057923, "key_press": -1, "trial_index": 226}, "uniqueid": "MTK3683:3SUWZRL0MZKYL5MLJUE0QLW0HGM6EX", "dateTime": 1520960563900}, {"current_trial": 227, "trialdata": {"rt": -1, "trial_type": "single-stim", "stimulus": "<p id=\"stim\">9</p>", "internal_node_id": "0.0-172.0-1.0", "time_elapsed": 1058927, "key_press": -1, "trial_index": 227}, "uniqueid": "MTK3683:3SUWZRL0MZKYL5MLJUE0QLW0HGM6EX", "dateTime": 1520960564903}, {"current_trial": 228, "trialdata": {"rt": -1, "trial_type": "single-stim", "stimulus": "<p id=\"stim\">8</p>", "internal_node_id": "0.0-172.0-2.0", "time_elapsed": 1059930, "key_press": -1, "trial_index": 228}, "uniqueid": "MTK3683:3SUWZRL0MZKYL5MLJUE0QLW0HGM6EX", "dateTime": 1520960565906}, {"current_trial": 229, "trialdata": {"rt": -1, "trial_type": "single-stim", "stimulus": "<p id=\"stim\">7</p>", "internal_node_id": "0.0-172.0-3.0", "time_elapsed": 1060931, "key_press": -1, "trial_index": 229}, "uniqueid": "MTK3683:3SUWZRL0MZKYL5MLJUE0QLW0HGM6EX", "dateTime": 1520960566907}, {"current_trial": 230, "trialdata": {"rt": -1, "trial_type": "single-stim", "stimulus": "<p id=\"stim\">6</p>", "internal_node_id": "0.0-172.0-4.0", "time_elapsed": 1061933, "key_press": -1, "trial_index": 230}, "uniqueid": "MTK3683:3SUWZRL0MZKYL5MLJUE0QLW0HGM6EX", "dateTime": 1520960567909}, {"current_trial": 231, "trialdata": {"rt": -1, "trial_type": "single-stim", "stimulus": "<p id=\"stim\">5</p>", "internal_node_id": "0.0-172.0-5.0", "time_elapsed": 1062936, "key_press": -1, "trial_index": 231}, "uniqueid": "MTK3683:3SUWZRL0MZKYL5MLJUE0QLW0HGM6EX", "dateTime": 1520960568912}, {"current_trial": 232, "trialdata": {"rt": -1, "trial_type": "single-stim", "stimulus": "<p id=\"stim\">4</p>", "internal_node_id": "0.0-172.0-6.0", "time_elapsed": 1063938, "key_press": -1, "trial_index": 232}, "uniqueid": "MTK3683:3SUWZRL0MZKYL5MLJUE0QLW0HGM6EX", "dateTime": 1520960569915}, {"current_trial": 233, "trialdata": {"rt": -1, "trial_type": "single-stim", "stimulus": "<p id=\"stim\">3</p>", "internal_node_id": "0.0-172.0-7.0", "time_elapsed": 1064940, "key_press": -1, "trial_index": 233}, "uniqueid": "MTK3683:3SUWZRL0MZKYL5MLJUE0QLW0HGM6EX", "dateTime": 1520960570917}, {"current_trial": 234, "trialdata": {"rt": -1, "trial_type": "single-stim", "stimulus": "<p id=\"stim\">2</p>", "internal_node_id": "0.0-172.0-8.0", "time_elapsed": 1065942, "key_press": -1, "trial_index": 234}, "uniqueid": "MTK3683:3SUWZRL0MZKYL5MLJUE0QLW0HGM6EX", "dateTime": 1520960571918}, {"current_trial": 235, "trialdata": {"rt": -1, "trial_type": "single-stim", "stimulus": "<p id=\"stim\">1</p>", "internal_node_id": "0.0-172.0-9.0", "time_elapsed": 1066945, "key_press": -1, "trial_index": 235}, "uniqueid": "MTK3683:3SUWZRL0MZKYL5MLJUE0QLW0HGM6EX", "dateTime": 1520960572921}, {"current_trial": 236, "trialdata": {"rt": -1, "trial_type": "single-stim", "stimulus": "<p id=\"stim\">+</p>", "internal_node_id": "0.0-173.0-0.0", "time_elapsed": 1068448, "key_press": -1, "type": "FIXATION", "trial_index": 236}, "uniqueid": "MTK3683:3SUWZRL0MZKYL5MLJUE0QLW0HGM6EX", "dateTime": 1520960574424}, {"current_trial": 237, "trialdata": {"rt": -1000, "trial_type": "single-audio", "word": "hero", "stimulus": "/static/audio/wordpool/HERO.wav", "conditions": [12, 1600, "a", 12000], "internal_node_id": "0.0-174.0", "trial": 6, "time_elapsed": 1070912, "serialpos": 0, "key_press": -1, "wordID": 705, "type": "PRES_AUD", "trial_index": 237}, "uniqueid": "MTK3683:3SUWZRL0MZKYL5MLJUE0QLW0HGM6EX", "dateTime": 1520960576888}, {"current_trial": 238, "trialdata": {"rt": -1000, "trial_type": "single-audio", "word": "outlaw", "stimulus": "/static/audio/wordpool/OUTLAW.wav", "conditions": [12, 1600, "a", 12000], "internal_node_id": "0.0-175.0", "trial": 6, "time_elapsed": 1073548, "serialpos": 1, "key_press": -1, "wordID": 988, "type": "PRES_AUD", "trial_index": 238}, "uniqueid": "MTK3683:3SUWZRL0MZKYL5MLJUE0QLW0HGM6EX", "dateTime": 1520960579524}, {"current_trial": 239, "trialdata": {"rt": -1000, "trial_type": "single-audio", "word": "mattress", "stimulus": "/static/audio/wordpool/MATTRESS.wav", "conditions": [12, 1600, "a", 12000], "internal_node_id": "0.0-176.0", "trial": 6, "time_elapsed": 1076140, "serialpos": 2, "key_press": -1, "wordID": 878, "type": "PRES_AUD", "trial_index": 239}, "uniqueid": "MTK3683:3SUWZRL0MZKYL5MLJUE0QLW0HGM6EX", "dateTime": 1520960582117}, {"current_trial": 240, "trialdata": {"rt": -1000, "trial_type": "single-audio", "word": "smog", "stimulus": "/static/audio/wordpool/SMOG.wav", "conditions": [12, 1600, "a", 12000], "internal_node_id": "0.0-177.0", "trial": 6, "time_elapsed": 1078941, "serialpos": 3, "key_press": -1, "wordID": 1329, "type": "PRES_AUD", "trial_index": 240}, "uniqueid": "MTK3683:3SUWZRL0MZKYL5MLJUE0QLW0HGM6EX", "dateTime": 1520960584919}, {"current_trial": 241, "trialdata": {"rt": -1000, "trial_type": "single-audio", "word": "knapsack", "stimulus": "/static/audio/wordpool/KNAPSACK.wav", "conditions": [12, 1600, "a", 12000], "internal_node_id": "0.0-178.0", "trial": 6, "time_elapsed": 1081510, "serialpos": 4, "key_press": -1, "wordID": 782, "type": "PRES_AUD", "trial_index": 241}, "uniqueid": "MTK3683:3SUWZRL0MZKYL5MLJUE0QLW0HGM6EX", "dateTime": 1520960587486}, {"current_trial": 242, "trialdata": {"rt": -1000, "trial_type": "single-audio", "word": "barrel", "stimulus": "/static/audio/wordpool/BARREL.wav", "conditions": [12, 1600, "a", 12000], "internal_node_id": "0.0-179.0", "trial": 6, "time_elapsed": 1084016, "serialpos": 5, "key_press": -1, "wordID": 90, "type": "PRES_AUD", "trial_index": 242}, "uniqueid": "MTK3683:3SUWZRL0MZKYL5MLJUE0QLW0HGM6EX", "dateTime": 1520960589993}, {"current_trial": 243, "trialdata": {"rt": -1000, "trial_type": "single-audio", "word": "paper", "stimulus": "/static/audio/wordpool/PAPER.wav", "conditions": [12, 1600, "a", 12000], "internal_node_id": "0.0-180.0", "trial": 6, "time_elapsed": 1086580, "serialpos": 6, "key_press": -1, "wordID": 1010, "type": "PRES_AUD", "trial_index": 243}, "uniqueid": "MTK3683:3SUWZRL0MZKYL5MLJUE0QLW0HGM6EX", "dateTime": 1520960592556}, {"current_trial": 244, "trialdata": {"rt": -1000, "trial_type": "single-audio", "word": "ozone", "stimulus": "/static/audio/wordpool/OZONE.wav", "conditions": [12, 1600, "a", 12000], "internal_node_id": "0.0-181.0", "trial": 6, "time_elapsed": 1089187, "serialpos": 7, "key_press": -1, "wordID": 995, "type": "PRES_AUD", "trial_index": 244}, "uniqueid": "MTK3683:3SUWZRL0MZKYL5MLJUE0QLW0HGM6EX", "dateTime": 1520960595163}, {"current_trial": 245, "trialdata": {"rt": -1000, "trial_type": "single-audio", "word": "dress", "stimulus": "/static/audio/wordpool/DRESS.wav", "conditions": [12, 1600, "a", 12000], "internal_node_id": "0.0-182.0", "trial": 6, "time_elapsed": 1091668, "serialpos": 8, "key_press": -1, "wordID": 494, "type": "PRES_AUD", "trial_index": 245}, "uniqueid": "MTK3683:3SUWZRL0MZKYL5MLJUE0QLW0HGM6EX", "dateTime": 1520960597644}, {"current_trial": 246, "trialdata": {"rt": -1000, "trial_type": "single-audio", "word": "wardrobe", "stimulus": "/static/audio/wordpool/WARDROBE.wav", "conditions": [12, 1600, "a", 12000], "internal_node_id": "0.0-183.0", "trial": 6, "time_elapsed": 1094217, "serialpos": 9, "key_press": -1, "wordID": 1586, "type": "PRES_AUD", "trial_index": 246}, "uniqueid": "MTK3683:3SUWZRL0MZKYL5MLJUE0QLW0HGM6EX", "dateTime": 1520960600194}, {"current_trial": 247, "trialdata": {"rt": -1000, "trial_type": "single-audio", "word": "couch", "stimulus": "/static/audio/wordpool/COUCH.wav", "conditions": [12, 1600, "a", 12000], "internal_node_id": "0.0-184.0", "trial": 6, "time_elapsed": 1096932, "serialpos": 10, "key_press": -1, "wordID": 385, "type": "PRES_AUD", "trial_index": 247}, "uniqueid": "MTK3683:3SUWZRL0MZKYL5MLJUE0QLW0HGM6EX", "dateTime": 1520960602908}, {"current_trial": 248, "trialdata": {"rt": -1000, "trial_type": "single-audio", "word": "market", "stimulus": "/static/audio/wordpool/MARKET.wav", "conditions": [12, 1600, "a", 12000], "internal_node_id": "0.0-185.0", "trial": 6, "time_elapsed": 1099398, "serialpos": 11, "key_press": -1, "wordID": 870, "type": "PRES_AUD", "trial_index": 248}, "uniqueid": "MTK3683:3SUWZRL0MZKYL5MLJUE0QLW0HGM6EX", "dateTime": 1520960605374}, {"current_trial": 249, "trialdata": {"rt": -1, "trial_type": "single-stim", "stimulus": "", "internal_node_id": "0.0-186.0-0.0", "time_elapsed": 1100704, "key_press": -1, "type": "PRE_RECALL_DE