{"assignmentId": "3WI0P0II62ZMFI65FN6EVY5BD2DDR9", "workerId": "MTK3266", "questiondata": {"origin": "United States", "strat-rehearsal": "10", "marital": "Single", "education": "Some graduate education", "ethnicity": "Not Hispanic", "color_depth": 24, "distracted": "No", "wrote-notes": "No", "strat-other": "Tried to visualize words as a story (like a possum and a fox are riding a wagon wearing denin)", "screen_width": 1536, "avail_screen_width": 1536, "avail_screen_height": 824, "strat-image": "99", "language": "English", "gender": "Female", "age": "28", "gender_other": "", "race": ["White"], "strat-categorize": "9", "pixel_depth": 24, "strat-spatial": "91", "strat-story": "72", "race_other": "", "screen_height": 864}, "bonus": 0, "hitId": "3NSCTNUR2ZUXP47184X7DCWPFKY5A2", "counterbalance": 1667, "useragent": "Mozilla/5.0 (Windows NT 10.0; Win64; x64) AppleWebKit/537.36 (KHTML, like Gecko) Chrome/64.0.3282.186 Safari/537.36", "eventdata": [{"eventtype": "initialized", "interval": 0, "value": null, "timestamp": 1520284470126}, {"eventtype": "window_resize", "interval": 1, "value": [1540, 816], "timestamp": 1520284470127}, {"eventtype": "focus", "interval": 696912, "value": "off", "timestamp": 1520285167039}, {"eventtype": "focus", "interval": 2303, "value": "on", "timestamp": 1520285169342}, {"eventtype": "focus", "interval": 2264154, "value": "off", "timestamp": 1520287433496}, {"eventtype": "focus", "interval": 1761, "value": "on", "timestamp": 1520287435257}], "data": [{"current_trial": 0, "trialdata": {"rt": 1902, "trial_type": "text", "internal_node_id": "0.0-0.0", "time_elapsed": 1908, "key_press": 32, "type": "INSTRUCTIONS", "trial_index": 0}, "uniqueid": "MTK3266:3WI0P0II62ZMFI65FN6EVY5BD2DDR9", "dateTime": 1520284472589}, {"current_trial": 1, "trialdata": {"rt": 12218, "trial_type": "text", "internal_node_id": "0.0-1.0", "time_elapsed": 14130, "key_press": 32, "type": "INSTRUCTIONS", "trial_index": 1}, "uniqueid": "MTK3266:3WI0P0II62ZMFI65FN6EVY5BD2DDR9", "dateTime": 1520284484810}, {"current_trial": 2, "trialdata": {"rt": [5527], "trial_type": "audio-test", "responses": ["ocean"], "internal_node_id": "0.0-2.0", "time_elapsed": 19684, "type": "AUDIO_TEST", "trial_index": 2}, "uniqueid": "MTK3266:3WI0P0II62ZMFI65FN6EVY5BD2DDR9", "dateTime": 1520284490363}, {"current_trial": 3, "trialdata": {"rt": [7067], "trial_type": "audio-test", "responses": ["crystal"], "internal_node_id": "0.0-3.0", "time_elapsed": 26763, "type": "AUDIO_TEST", "trial_index": 3}, "uniqueid": "MTK3266:3WI0P0II62ZMFI65FN6EVY5BD2DDR9", "dateTime": 1520284497442}, {"current_trial": 4, "trialdata": {"rt": [5227], "trial_type": "audio-test", "responses": ["spice"], "internal_node_id": "0.0-4.0", "time_elapsed": 32001, "type": "AUDIO_TEST", "trial_index": 4}, "uniqueid": "MTK3266:3WI0P0II62ZMFI65FN6EVY5BD2DDR9", "dateTime": 1520284502681}, {"current_trial": 5, "trialdata": {"rt": 34675, "trial_type": "survey-text", "responses": "{\"Q0\":\"2am\",\"Q1\":\"12 noon\",\"Q2\":\"4\"}", "internal_node_id": "0.0-5.0", "time_elapsed": 67431, "type": "SLEEP_SURVEY", "trial_index": 5}, "uniqueid": "MTK3266:3WI0P0II62ZMFI65FN6EVY5BD2DDR9", "dateTime": 1520284538110}, {"current_trial": 6, "trialdata": {"rt": 38417, "trial_type": "text", "internal_node_id": "0.0-6.0", "time_elapsed": 106852, "key_press": 13, "type": "INSTRUCTIONS", "trial_index": 6}, "uniqueid": "MTK3266:3WI0P0II62ZMFI65FN6EVY5BD2DDR9", "dateTime": 1520284577531}, {"current_trial": 7, "trialdata": {"rt": 30993, "trial_type": "text", "internal_node_id": "0.0-7.0", "time_elapsed": 138348, "key_press": 32, "type": "INSTRUCTIONS", "trial_index": 7}, "uniqueid": "MTK3266:3WI0P0II62ZMFI65FN6EVY5BD2DDR9", "dateTime": 1520284609027}, {"current_trial": 8, "trialdata": {"rt": 12232, "trial_type": "text", "internal_node_id": "0.0-8.0", "time_elapsed": 151083, "key_press": 32, "type": "INSTRUCTIONS", "trial_index": 8}, "uniqueid": "MTK3266:3WI0P0II62ZMFI65FN6EVY5BD2DDR9", "dateTime": 1520284621762}, {"current_trial": 9, "trialdata": {"rt": [9348, 13089], "trial_type": "math-distractor", "key_times": [8738, 8828, 9348, 12422, 12502, 13089], "responses": ["13", "16"], "num2": [1, 2, 3], "num3": [8, 9, 8], "conditions": [18, 1200, "v", 18000], "internal_node_id": "0.0-9.0", "key_presses": [49, 51, 13, 49, 54, 13], "trial": 0, "time_elapsed": 170095, "type": "DISTRACTOR", "trial_index": 9, "num1": [4, 5, 5]}, "uniqueid": "MTK3266:3WI0P0II62ZMFI65FN6EVY5BD2DDR9", "dateTime": 1520284640774}, {"current_trial": 10, "trialdata": {"rt": -1, "trial_type": "single-stim", "stimulus": "<p id=\"stim\">10</p>", "internal_node_id": "0.0-10.0-0.0", "time_elapsed": 173101, "key_press": -1, "trial_index": 10}, "uniqueid": "MTK3266:3WI0P0II62ZMFI65FN6EVY5BD2DDR9", "dateTime": 1520284643780}, {"current_trial": 11, "trialdata": {"rt": 720, "trial_type": "single-stim", "stimulus": "<p id=\"stim\">9</p>", "internal_node_id": "0.0-10.0-1.0", "time_elapsed": 174103, "key_press": 13, "trial_index": 11}, "uniqueid": "MTK3266:3WI0P0II62ZMFI65FN6EVY5BD2DDR9", "dateTime": 1520284644782}, {"current_trial": 12, "trialdata": {"rt": -1, "trial_type": "single-stim", "stimulus": "<p id=\"stim\">8</p>", "internal_node_id": "0.0-10.0-2.0", "time_elapsed": 175106, "key_press": -1, "trial_index": 12}, "uniqueid": "MTK3266:3WI0P0II62ZMFI65FN6EVY5BD2DDR9", "dateTime": 1520284645785}, {"current_trial": 13, "trialdata": {"rt": -1, "trial_type": "single-stim", "stimulus": "<p id=\"stim\">7</p>", "internal_node_id": "0.0-10.0-3.0", "time_elapsed": 176108, "key_press": -1, "trial_index": 13}, "uniqueid": "MTK3266:3WI0P0II62ZMFI65FN6EVY5BD2DDR9", "dateTime": 1520284646788}, {"current_trial": 14, "trialdata": {"rt": -1, "trial_type": "single-stim", "stimulus": "<p id=\"stim\">6</p>", "internal_node_id": "0.0-10.0-4.0", "time_elapsed": 177111, "key_press": -1, "trial_index": 14}, "uniqueid": "MTK3266:3WI0P0II62ZMFI65FN6EVY5BD2DDR9", "dateTime": 1520284647790}, {"current_trial": 15, "trialdata": {"rt": -1, "trial_type": "single-stim", "stimulus": "<p id=\"stim\">5</p>", "internal_node_id": "0.0-10.0-5.0", "time_elapsed": 178113, "key_press": -1, "trial_index": 15}, "uniqueid": "MTK3266:3WI0P0II62ZMFI65FN6EVY5BD2DDR9", "dateTime": 1520284648792}, {"current_trial": 16, "trialdata": {"rt": -1, "trial_type": "single-stim", "stimulus": "<p id=\"stim\">4</p>", "internal_node_id": "0.0-10.0-6.0", "time_elapsed": 179115, "key_press": -1, "trial_index": 16}, "uniqueid": "MTK3266:3WI0P0II62ZMFI65FN6EVY5BD2DDR9", "dateTime": 1520284649794}, {"current_trial": 17, "trialdata": {"rt": -1, "trial_type": "single-stim", "stimulus": "<p id=\"stim\">3</p>", "internal_node_id": "0.0-10.0-7.0", "time_elapsed": 180120, "key_press": -1, "trial_index": 17}, "uniqueid": "MTK3266:3WI0P0II62ZMFI65FN6EVY5BD2DDR9", "dateTime": 1520284650799}, {"current_trial": 18, "trialdata": {"rt": -1, "trial_type": "single-stim", "stimulus": "<p id=\"stim\">2</p>", "internal_node_id": "0.0-10.0-8.0", "time_elapsed": 181122, "key_press": -1, "trial_index": 18}, "uniqueid": "MTK3266:3WI0P0II62ZMFI65FN6EVY5BD2DDR9", "dateTime": 1520284651801}, {"current_trial": 19, "trialdata": {"rt": -1, "trial_type": "single-stim", "stimulus": "<p id=\"stim\">1</p>", "internal_node_id": "0.0-10.0-9.0", "time_elapsed": 182124, "key_press": -1, "trial_index": 19}, "uniqueid": "MTK3266:3WI0P0II62ZMFI65FN6EVY5BD2DDR9", "dateTime": 1520284652803}, {"current_trial": 20, "trialdata": {"rt": -1, "trial_type": "single-stim", "stimulus": "<p id=\"stim\">+</p>", "internal_node_id": "0.0-11.0-0.0", "time_elapsed": 183628, "key_press": -1, "type": "FIXATION", "trial_index": 20}, "uniqueid": "MTK3266:3WI0P0II62ZMFI65FN6EVY5BD2DDR9", "dateTime": 1520284654307}, {"current_trial": 21, "trialdata": {"rt": -1, "trial_type": "single-stim", "word": "uncle", "stimulus": "<p id=\"stim\">UNCLE</p>", "conditions": [18, 1200, "v", 18000], "internal_node_id": "0.0-12.0", "trial": 0, "time_elapsed": 184830, "serialpos": 0, "key_press": -1, "wordID": 1535, "type": "PRES_VIS", "trial_index": 21}, "uniqueid": "MTK3266:3WI0P0II62ZMFI65FN6EVY5BD2DDR9", "dateTime": 1520284655509}, {"current_trial": 22, "trialdata": {"rt": -1, "trial_type": "single-stim", "word": "patient", "stimulus": "<p id=\"stim\">PATIENT</p>", "conditions": [18, 1200, "v", 18000], "internal_node_id": "0.0-13.0", "trial": 0, "time_elapsed": 187182, "serialpos": 1, "key_press": -1, "wordID": 1023, "type": "PRES_VIS", "trial_index": 22}, "uniqueid": "MTK3266:3WI0P0II62ZMFI65FN6EVY5BD2DDR9", "dateTime": 1520284657861}, {"current_trial": 23, "trialdata": {"rt": -1, "trial_type": "single-stim", "word": "sister", "stimulus": "<p id=\"stim\">SISTER</p>", "conditions": [18, 1200, "v", 18000], "internal_node_id": "0.0-14.0", "trial": 0, "time_elapsed": 189492, "serialpos": 2, "key_press": -1, "wordID": 1311, "type": "PRES_VIS", "trial_index": 23}, "uniqueid": "MTK3266:3WI0P0II62ZMFI65FN6EVY5BD2DDR9", "dateTime": 1520284660171}, {"current_trial": 24, "trialdata": {"rt": -1, "trial_type": "single-stim", "word": "patrol", "stimulus": "<p id=\"stim\">PATROL</p>", "conditions": [18, 1200, "v", 18000], "internal_node_id": "0.0-15.0", "trial": 0, "time_elapsed": 191634, "serialpos": 3, "key_press": -1, "wordID": 1026, "type": "PRES_VIS", "trial_index": 24}, "uniqueid": "MTK3266:3WI0P0II62ZMFI65FN6EVY5BD2DDR9", "dateTime": 1520284662313}, {"current_trial": 25, "trialdata": {"rt": -1, "trial_type": "single-stim", "word": "butcher", "stimulus": "<p id=\"stim\">BUTCHER</p>", "conditions": [18, 1200, "v", 18000], "internal_node_id": "0.0-16.0", "trial": 0, "time_elapsed": 193829, "serialpos": 4, "key_press": -1, "wordID": 202, "type": "PRES_VIS", "trial_index": 25}, "uniqueid": "MTK3266:3WI0P0II62ZMFI65FN6EVY5BD2DDR9", "dateTime": 1520284664508}, {"current_trial": 26, "trialdata": {"rt": -1, "trial_type": "single-stim", "word": "judge", "stimulus": "<p id=\"stim\">JUDGE</p>", "conditions": [18, 1200, "v", 18000], "internal_node_id": "0.0-17.0", "trial": 0, "time_elapsed": 195979, "serialpos": 5, "key_press": -1, "wordID": 760, "type": "PRES_VIS", "trial_index": 26}, "uniqueid": "MTK3266:3WI0P0II62ZMFI65FN6EVY5BD2DDR9", "dateTime": 1520284666658}, {"current_trial": 27, "trialdata": {"rt": -1, "trial_type": "single-stim", "word": "victim", "stimulus": "<p id=\"stim\">VICTIM</p>", "conditions": [18, 1200, "v", 18000], "internal_node_id": "0.0-18.0", "trial": 0, "time_elapsed": 198290, "serialpos": 6, "key_press": -1, "wordID": 1561, "type": "PRES_VIS", "trial_index": 27}, "uniqueid": "MTK3266:3WI0P0II62ZMFI65FN6EVY5BD2DDR9", "dateTime": 1520284668969}, {"current_trial": 28, "trialdata": {"rt": -1, "trial_type": "single-stim", "word": "couch", "stimulus": "<p id=\"stim\">COUCH</p>", "conditions": [18, 1200, "v", 18000], "internal_node_id": "0.0-19.0", "trial": 0, "time_elapsed": 200565, "serialpos": 7, "key_press": -1, "wordID": 385, "type": "PRES_VIS", "trial_index": 28}, "uniqueid": "MTK3266:3WI0P0II62ZMFI65FN6EVY5BD2DDR9", "dateTime": 1520284671244}, {"current_trial": 29, "trialdata": {"rt": -1, "trial_type": "single-stim", "word": "bouquet", "stimulus": "<p id=\"stim\">BOUQUET</p>", "conditions": [18, 1200, "v", 18000], "internal_node_id": "0.0-20.0", "trial": 0, "time_elapsed": 202661, "serialpos": 8, "key_press": -1, "wordID": 156, "type": "PRES_VIS", "trial_index": 29}, "uniqueid": "MTK3266:3WI0P0II62ZMFI65FN6EVY5BD2DDR9", "dateTime": 1520284673340}, {"current_trial": 30, "trialdata": {"rt": -1, "trial_type": "single-stim", "word": "rocket", "stimulus": "<p id=\"stim\">ROCKET</p>", "conditions": [18, 1200, "v", 18000], "internal_node_id": "0.0-21.0", "trial": 0, "time_elapsed": 204796, "serialpos": 9, "key_press": -1, "wordID": 1201, "type": "PRES_VIS", "trial_index": 30}, "uniqueid": "MTK3266:3WI0P0II62ZMFI65FN6EVY5BD2DDR9", "dateTime": 1520284675475}, {"current_trial": 31, "trialdata": {"rt": -1, "trial_type": "single-stim", "word": "pecan", "stimulus": "<p id=\"stim\">PECAN</p>", "conditions": [18, 1200, "v", 18000], "internal_node_id": "0.0-22.0", "trial": 0, "time_elapsed": 207103, "serialpos": 10, "key_press": -1, "wordID": 1035, "type": "PRES_VIS", "trial_index": 31}, "uniqueid": "MTK3266:3WI0P0II62ZMFI65FN6EVY5BD2DDR9", "dateTime": 1520284677783}, {"current_trial": 32, "trialdata": {"rt": -1, "trial_type": "single-stim", "word": "summit", "stimulus": "<p id=\"stim\">SUMMIT</p>", "conditions": [18, 1200, "v", 18000], "internal_node_id": "0.0-23.0", "trial": 0, "time_elapsed": 209126, "serialpos": 11, "key_press": -1, "wordID": 1404, "type": "PRES_VIS", "trial_index": 32}, "uniqueid": "MTK3266:3WI0P0II62ZMFI65FN6EVY5BD2DDR9", "dateTime": 1520284679805}, {"current_trial": 33, "trialdata": {"rt": -1, "trial_type": "single-stim", "word": "piston", "stimulus": "<p id=\"stim\">PISTON</p>", "conditions": [18, 1200, "v", 18000], "internal_node_id": "0.0-24.0", "trial": 0, "time_elapsed": 211274, "serialpos": 12, "key_press": -1, "wordID": 1075, "type": "PRES_VIS", "trial_index": 33}, "uniqueid": "MTK3266:3WI0P0II62ZMFI65FN6EVY5BD2DDR9", "dateTime": 1520284681953}, {"current_trial": 34, "trialdata": {"rt": -1, "trial_type": "single-stim", "word": "expert", "stimulus": "<p id=\"stim\">EXPERT</p>", "conditions": [18, 1200, "v", 18000], "internal_node_id": "0.0-25.0", "trial": 0, "time_elapsed": 213584, "serialpos": 13, "key_press": -1, "wordID": 542, "type": "PRES_VIS", "trial_index": 34}, "uniqueid": "MTK3266:3WI0P0II62ZMFI65FN6EVY5BD2DDR9", "dateTime": 1520284684263}, {"current_trial": 35, "trialdata": {"rt": -1, "trial_type": "single-stim", "word": "toaster", "stimulus": "<p id=\"stim\">TOASTER</p>", "conditions": [18, 1200, "v", 18000], "internal_node_id": "0.0-26.0", "trial": 0, "time_elapsed": 215950, "serialpos": 14, "key_press": -1, "wordID": 1471, "type": "PRES_VIS", "trial_index": 35}, "uniqueid": "MTK3266:3WI0P0II62ZMFI65FN6EVY5BD2DDR9", "dateTime": 1520284686629}, {"current_trial": 36, "trialdata": {"rt": -1, "trial_type": "single-stim", "word": "plaza", "stimulus": "<p id=\"stim\">PLAZA</p>", "conditions": [18, 1200, "v", 18000], "internal_node_id": "0.0-27.0", "trial": 0, "time_elapsed": 218099, "serialpos": 15, "key_press": -1, "wordID": 1087, "type": "PRES_VIS", "trial_index": 36}, "uniqueid": "MTK3266:3WI0P0II62ZMFI65FN6EVY5BD2DDR9", "dateTime": 1520284688778}, {"current_trial": 37, "trialdata": {"rt": -1, "trial_type": "single-stim", "word": "gift", "stimulus": "<p id=\"stim\">GIFT</p>", "conditions": [18, 1200, "v", 18000], "internal_node_id": "0.0-28.0", "trial": 0, "time_elapsed": 220293, "serialpos": 16, "key_press": -1, "wordID": 634, "type": "PRES_VIS", "trial_index": 37}, "uniqueid": "MTK3266:3WI0P0II62ZMFI65FN6EVY5BD2DDR9", "dateTime": 1520284690972}, {"current_trial": 38, "trialdata": {"rt": -1, "trial_type": "single-stim", "word": "waiter", "stimulus": "<p id=\"stim\">WAITER</p>", "conditions": [18, 1200, "v", 18000], "internal_node_id": "0.0-29.0", "trial": 0, "time_elapsed": 222653, "serialpos": 17, "key_press": -1, "wordID": 1579, "type": "PRES_VIS", "trial_index": 38}, "uniqueid": "MTK3266:3WI0P0II62ZMFI65FN6EVY5BD2DDR9", "dateTime": 1520284693332}, {"current_trial": 39, "trialdata": {"rt": -1, "trial_type": "single-stim", "stimulus": "", "internal_node_id": "0.0-30.0-0.0", "time_elapsed": 224920, "key_press": -1, "type": "PRE_RECALL_DELAY", "trial_index": 39}, "uniqueid": "MTK3266:3WI0P0II62ZMFI65FN6EVY5BD2DDR9", "dateTime": 1520284695599}, {"current_trial": 40, "trialdata": {"rt": -1000, "trial_type": "single-audio", "stimulus": "/static/audio/400Hz.wav", "internal_node_id": "0.0-31.0", "time_elapsed": 225425, "key_press": -1, "type": "PRE_RECALL_ALERT", "trial_index": 40}, "uniqueid": "MTK3266:3WI0P0II62ZMFI65FN6EVY5BD2DDR9", "dateTime": 1520284696104}, {"current_trial": 41, "trialdata": {"rt": [2352, 4304, 5401, 7337, 9486, 11921, 15233, 44066], "recwords": ["waiter", "gift", "uncle", "summit", "pecan", "waiting", "sister", "bouquet"], "key_times": [1264, 1368, 1736, 1842, 1978, 2030, 2352, 3059, 3167, 3844, 4065, 4304, 4747, 4932, 5027, 5123, 5220, 5401, 6058, 6166, 6381, 6855, 6978, 7089, 7337, 8291, 8526, 8718, 8881, 8948, 9486, 11076, 11184, 11359, 11439, 11571, 11634, 11704, 11921, 14467, 14574, 14639, 14798, 14924, 14994, 15233, 39532, 39698, 39748, 40197, 40640, 40824, 40938, 42530, 42716, 42897, 43447, 43575, 43686, 44066, 51981, 52085, 52265, 52322, 52532, 52593, 52794, 53314, 53359, 53391, 53433, 53463, 53503], "trial_type": "free-recall", "conditions": [18, 1200, "v", 18000], "internal_node_id": "0.0-32.0-0.0", "key_presses": [87, 65, 73, 84, 69, 82, 13, 71, 73, 70, 84, 13, 85, 78, 67, 76, 69, 13, 83, 85, 77, 77, 73, 84, 13, 80, 69, 67, 65, 78, 13, 87, 65, 73, 84, 73, 78, 71, 13, 83, 73, 83, 84, 69, 82, 13, 66, 79, 85, 81, 69, 85, 84, 8, 8, 8, 85, 69, 84, 13, 70, 76, 79, 87, 69, 82, 8, 8, 8, 8, 8, 8, 8], "trial": 0, "time_elapsed": 285433, "type": "FREE_RECALL", "trial_index": 41}, "uniqueid": "MTK3266:3WI0P0II62ZMFI65FN6EVY5BD2DDR9", "dateTime": 1520284756115}, {"current_trial": 42, "trialdata": {"rt": 2114, "trial_type": "text", "internal_node_id": "0.0-33.0", "time_elapsed": 289552, "key_press": 32, "type": "INSTRUCTIONS", "trial_index": 42}, "uniqueid": "MTK3266:3WI0P0II62ZMFI65FN6EVY5BD2DDR9", "dateTime": 1520284760231}, {"current_trial": 43, "trialdata": {"rt": [4350, 15519], "trial_type": "math-distractor", "key_times": [3934, 4100, 4350, 13419, 13526, 14482, 14639, 14874, 15014, 15519], "responses": ["20", "25"], "num2": [8, 8, 6], "num3": [2, 8, 3], "conditions": [18, 1200, "v", 18000], "internal_node_id": "0.0-34.0", "key_presses": [50, 48, 13, 49, 53, 8, 8, 50, 53, 13], "trial": 1, "time_elapsed": 309558, "type": "DISTRACTOR", "trial_index": 43, "num1": [9, 9, 2]}, "uniqueid": "MTK3266:3WI0P0II62ZMFI65FN6EVY5BD2DDR9", "dateTime": 1520284780237}, {"current_trial": 44, "trialdata": {"rt": -1, "trial_type": "single-stim", "stimulus": "<p id=\"stim\">10</p>", "internal_node_id": "0.0-35.0-0.0", "time_elapsed": 312561, "key_press": -1, "trial_index": 44}, "uniqueid": "MTK3266:3WI0P0II62ZMFI65FN6EVY5BD2DDR9", "dateTime": 1520284783240}, {"current_trial": 45, "trialdata": {"rt": -1, "trial_type": "single-stim", "stimulus": "<p id=\"stim\">9</p>", "internal_node_id": "0.0-35.0-1.0", "time_elapsed": 313562, "key_press": -1, "trial_index": 45}, "uniqueid": "MTK3266:3WI0P0II62ZMFI65FN6EVY5BD2DDR9", "dateTime": 1520284784242}, {"current_trial": 46, "trialdata": {"rt": -1, "trial_type": "single-stim", "stimulus": "<p id=\"stim\">8</p>", "internal_node_id": "0.0-35.0-2.0", "time_elapsed": 314564, "key_press": -1, "trial_index": 46}, "uniqueid": "MTK3266:3WI0P0II62ZMFI65FN6EVY5BD2DDR9", "dateTime": 1520284785243}, {"current_trial": 47, "trialdata": {"rt": -1, "trial_type": "single-stim", "stimulus": "<p id=\"stim\">7</p>", "internal_node_id": "0.0-35.0-3.0", "time_elapsed": 315566, "key_press": -1, "trial_index": 47}, "uniqueid": "MTK3266:3WI0P0II62ZMFI65FN6EVY5BD2DDR9", "dateTime": 1520284786245}, {"current_trial": 48, "trialdata": {"rt": -1, "trial_type": "single-stim", "stimulus": "<p id=\"stim\">6</p>", "internal_node_id": "0.0-35.0-4.0", "time_elapsed": 316569, "key_press": -1, "trial_index": 48}, "uniqueid": "MTK3266:3WI0P0II62ZMFI65FN6EVY5BD2DDR9", "dateTime": 1520284787248}, {"current_trial": 49, "trialdata": {"rt": -1, "trial_type": "single-stim", "stimulus": "<p id=\"stim\">5</p>", "internal_node_id": "0.0-35.0-5.0", "time_elapsed": 317570, "key_press": -1, "trial_index": 49}, "uniqueid": "MTK3266:3WI0P0II62ZMFI65FN6EVY5BD2DDR9", "dateTime": 1520284788249}, {"current_trial": 50, "trialdata": {"rt": -1, "trial_type": "single-stim", "stimulus": "<p id=\"stim\">4</p>", "internal_node_id": "0.0-35.0-6.0", "time_elapsed": 318572, "key_press": -1, "trial_index": 50}, "uniqueid": "MTK3266:3WI0P0II62ZMFI65FN6EVY5BD2DDR9", "dateTime": 1520284789251}, {"current_trial": 51, "trialdata": {"rt": -1, "trial_type": "single-stim", "stimulus": "<p id=\"stim\">3</p>", "internal_node_id": "0.0-35.0-7.0", "time_elapsed": 319574, "key_press": -1, "trial_index": 51}, "uniqueid": "MTK3266:3WI0P0II62ZMFI65FN6EVY5BD2DDR9", "dateTime": 1520284790253}, {"current_trial": 52, "trialdata": {"rt": -1, "trial_type": "single-stim", "stimulus": "<p id=\"stim\">2</p>", "internal_node_id": "0.0-35.0-8.0", "time_elapsed": 320576, "key_press": -1, "trial_index": 52}, "uniqueid": "MTK3266:3WI0P0II62ZMFI65FN6EVY5BD2DDR9", "dateTime": 1520284791255}, {"current_trial": 53, "trialdata": {"rt": -1, "trial_type": "single-stim", "stimulus": "<p id=\"stim\">1</p>", "internal_node_id": "0.0-35.0-9.0", "time_elapsed": 321578, "key_press": -1, "trial_index": 53}, "uniqueid": "MTK3266:3WI0P0II62ZMFI65FN6EVY5BD2DDR9", "dateTime": 1520284792258}, {"current_trial": 54, "trialdata": {"rt": -1, "trial_type": "single-stim", "stimulus": "<p id=\"stim\">+</p>", "internal_node_id": "0.0-36.0-0.0", "time_elapsed": 323081, "key_press": -1, "type": "FIXATION", "trial_index": 54}, "uniqueid": "MTK3266:3WI0P0II62ZMFI65FN6EVY5BD2DDR9", "dateTime": 1520284793761}, {"current_trial": 55, "trialdata": {"rt": -1, "trial_type": "single-stim", "word": "piano", "stimulus": "<p id=\"stim\">PIANO</p>", "conditions": [18, 1200, "v", 18000], "internal_node_id": "0.0-37.0", "trial": 1, "time_elapsed": 324285, "serialpos": 0, "key_press": -1, "wordID": 1056, "type": "PRES_VIS", "trial_index": 55}, "uniqueid": "MTK3266:3WI0P0II62ZMFI65FN6EVY5BD2DDR9", "dateTime": 1520284794964}, {"current_trial": 56, "trialdata": {"rt": -1, "trial_type": "single-stim", "word": "office", "stimulus": "<p id=\"stim\">OFFICE</p>", "conditions": [18, 1200, "v", 18000], "internal_node_id": "0.0-38.0", "trial": 1, "time_elapsed": 326667, "serialpos": 1, "key_press": -1, "wordID": 971, "type": "PRES_VIS", "trial_index": 56}, "uniqueid": "MTK3266:3WI0P0II62ZMFI65FN6EVY5BD2DDR9", "dateTime": 1520284797347}, {"current_trial": 57, "trialdata": {"rt": -1, "trial_type": "single-stim", "word": "journal", "stimulus": "<p id=\"stim\">JOURNAL</p>", "conditions": [18, 1200, "v", 18000], "internal_node_id": "0.0-39.0", "trial": 1, "time_elapsed": 328685, "serialpos": 2, "key_press": -1, "wordID": 759, "type": "PRES_VIS", "trial_index": 57}, "uniqueid": "MTK3266:3WI0P0II62ZMFI65FN6EVY5BD2DDR9", "dateTime": 1520284799364}, {"current_trial": 58, "trialdata": {"rt": -1, "trial_type": "single-stim", "word": "sheriff", "stimulus": "<p id=\"stim\">SHERIFF</p>", "conditions": [18, 1200, "v", 18000], "internal_node_id": "0.0-40.0", "trial": 1, "time_elapsed": 331039, "serialpos": 3, "key_press": -1, "wordID": 1283, "type": "PRES_VIS", "trial_index": 58}, "uniqueid": "MTK3266:3WI0P0II62ZMFI65FN6EVY5BD2DDR9", "dateTime": 1520284801718}, {"current_trial": 59, "trialdata": {"rt": -1, "trial_type": "single-stim", "word": "eyelash", "stimulus": "<p id=\"stim\">EYELASH</p>", "conditions": [18, 1200, "v", 18000], "internal_node_id": "0.0-41.0", "trial": 1, "time_elapsed": 333316, "serialpos": 4, "key_press": -1, "wordID": 545, "type": "PRES_VIS", "trial_index": 59}, "uniqueid": "MTK3266:3WI0P0II62ZMFI65FN6EVY5BD2DDR9", "dateTime": 1520284803995}, {"current_trial": 60, "trialdata": {"rt": -1, "trial_type": "single-stim", "word": "cross", "stimulus": "<p id=\"stim\">CROSS</p>", "conditions": [18, 1200, "v", 18000], "internal_node_id": "0.0-42.0", "trial": 1, "time_elapsed": 335482, "serialpos": 5, "key_press": -1, "wordID": 412, "type": "PRES_VIS", "trial_index": 60}, "uniqueid": "MTK3266:3WI0P0II62ZMFI65FN6EVY5BD2DDR9", "dateTime": 1520284806162}, {"current_trial": 61, "trialdata": {"rt": -1, "trial_type": "single-stim", "word": "motor", "stimulus": "<p id=\"stim\">MOTOR</p>", "conditions": [18, 1200, "v", 18000], "internal_node_id": "0.0-43.0", "trial": 1, "time_elapsed": 337554, "serialpos": 6, "key_press": -1, "wordID": 921, "type": "PRES_VIS", "trial_index": 61}, "uniqueid": "MTK3266:3WI0P0II62ZMFI65FN6EVY5BD2DDR9", "dateTime": 1520284808233}, {"current_trial": 62, "trialdata": {"rt": -1, "trial_type": "single-stim", "word": "fireplace", "stimulus": "<p id=\"stim\">FIREPLACE</p>", "conditions": [18, 1200, "v", 18000], "internal_node_id": "0.0-44.0", "trial": 1, "time_elapsed": 339951, "serialpos": 7, "key_press": -1, "wordID": 569, "type": "PRES_VIS", "trial_index": 62}, "uniqueid": "MTK3266:3WI0P0II62ZMFI65FN6EVY5BD2DDR9", "dateTime": 1520284810630}, {"current_trial": 63, "trialdata": {"rt": -1, "trial_type": "single-stim", "word": "parrot", "stimulus": "<p id=\"stim\">PARROT</p>", "conditions": [18, 1200, "v", 18000], "internal_node_id": "0.0-45.0", "trial": 1, "time_elapsed": 342239, "serialpos": 8, "key_press": -1, "wordID": 1014, "type": "PRES_VIS", "trial_index": 63}, "uniqueid": "MTK3266:3WI0P0II62ZMFI65FN6EVY5BD2DDR9", "dateTime": 1520284812919}, {"current_trial": 64, "trialdata": {"rt": -1, "trial_type": "single-stim", "word": "poet", "stimulus": "<p id=\"stim\">POET</p>", "conditions": [18, 1200, "v", 18000], "internal_node_id": "0.0-46.0", "trial": 1, "time_elapsed": 344359, "serialpos": 9, "key_press": -1, "wordID": 1094, "type": "PRES_VIS", "trial_index": 64}, "uniqueid": "MTK3266:3WI0P0II62ZMFI65FN6EVY5BD2DDR9", "dateTime": 1520284815038}, {"current_trial": 65, "trialdata": {"rt": -1, "trial_type": "single-stim", "word": "item", "stimulus": "<p id=\"stim\">ITEM</p>", "conditions": [18, 1200, "v", 18000], "internal_node_id": "0.0-47.0", "trial": 1, "time_elapsed": 346702, "serialpos": 10, "key_press": -1, "wordID": 745, "type": "PRES_VIS", "trial_index": 65}, "uniqueid": "MTK3266:3WI0P0II62ZMFI65FN6EVY5BD2DDR9", "dateTime": 1520284817381}, {"current_trial": 66, "trialdata": {"rt": -1, "trial_type": "single-stim", "word": "lightning", "stimulus": "<p id=\"stim\">LIGHTNING</p>", "conditions": [18, 1200, "v", 18000], "internal_node_id": "0.0-48.0", "trial": 1, "time_elapsed": 348820, "serialpos": 11, "key_press": -1, "wordID": 819, "type": "PRES_VIS", "trial_index": 66}, "uniqueid": "MTK3266:3WI0P0II62ZMFI65FN6EVY5BD2DDR9", "dateTime": 1520284819499}, {"current_trial": 67, "trialdata": {"rt": -1, "trial_type": "single-stim", "word": "snack", "stimulus": "<p id=\"stim\">SNACK</p>", "conditions": [18, 1200, "v", 18000], "internal_node_id": "0.0-49.0", "trial": 1, "time_elapsed": 351190, "serialpos": 12, "key_press": -1, "wordID": 1330, "type": "PRES_VIS", "trial_index": 67}, "uniqueid": "MTK3266:3WI0P0II62ZMFI65FN6EVY5BD2DDR9", "dateTime": 1520284821870}, {"current_trial": 68, "trialdata": {"rt": -1, "trial_type": "single-stim", "word": "blockade", "stimulus": "<p id=\"stim\">BLOCKADE</p>", "conditions": [18, 1200, "v", 18000], "internal_node_id": "0.0-50.0", "trial": 1, "time_elapsed": 353442, "serialpos": 13, "key_press": -1, "wordID": 136, "type": "PRES_VIS", "trial_index": 68}, "uniqueid": "MTK3266:3WI0P0II62ZMFI65FN6EVY5BD2DDR9", "dateTime": 1520284824126}, {"current_trial": 69, "trialdata": {"rt": -1, "trial_type": "single-stim", "word": "padding", "stimulus": "<p id=\"stim\">PADDING</p>", "conditions": [18, 1200, "v", 18000], "internal_node_id": "0.0-51.0", "trial": 1, "time_elapsed": 355621, "serialpos": 14, "key_press": -1, "wordID": 998, "type": "PRES_VIS", "trial_index": 69}, "uniqueid": "MTK3266:3WI0P0II62ZMFI65FN6EVY5BD2DDR9", "dateTime": 1520284826300}, {"current_trial": 70, "trialdata": {"rt": -1, "trial_type": "single-stim", "word": "radish", "stimulus": "<p id=\"stim\">RADISH</p>", "conditions": [18, 1200, "v", 18000], "internal_node_id": "0.0-52.0", "trial": 1, "time_elapsed": 357704, "serialpos": 15, "key_press": -1, "wordID": 1157, "type": "PRES_VIS", "trial_index": 70}, "uniqueid": "MTK3266:3WI0P0II62ZMFI65FN6EVY5BD2DDR9", "dateTime": 1520284828383}, {"current_trial": 71, "trialdata": {"rt": -1, "trial_type": "single-stim", "word": "canyon", "stimulus": "<p id=\"stim\">CANYON</p>", "conditions": [18, 1200, "v", 18000], "internal_node_id": "0.0-53.0", "trial": 1, "time_elapsed": 359911, "serialpos": 16, "key_press": -1, "wordID": 234, "type": "PRES_VIS", "trial_index": 71}, "uniqueid": "MTK3266:3WI0P0II62ZMFI65FN6EVY5BD2DDR9", "dateTime": 1520284830590}, {"current_trial": 72, "trialdata": {"rt": -1, "trial_type": "single-stim", "word": "switch", "stimulus": "<p id=\"stim\">SWITCH</p>", "conditions": [18, 1200, "v", 18000], "internal_node_id": "0.0-54.0", "trial": 1, "time_elapsed": 361959, "serialpos": 17, "key_press": -1, "wordID": 1421, "type": "PRES_VIS", "trial_index": 72}, "uniqueid": "MTK3266:3WI0P0II62ZMFI65FN6EVY5BD2DDR9", "dateTime": 1520284832638}, {"current_trial": 73, "trialdata": {"rt": -1, "trial_type": "single-stim", "stimulus": "", "internal_node_id": "0.0-55.0-0.0", "time_elapsed": 364152, "key_press": -1, "type": "PRE_RECALL_DELAY", "trial_index": 73}, "uniqueid": "MTK3266:3WI0P0II62ZMFI65FN6EVY5BD2DDR9", "dateTime": 1520284834831}, {"current_trial": 74, "trialdata": {"rt": -1000, "trial_type": "single-audio", "stimulus": "/static/audio/400Hz.wav", "internal_node_id": "0.0-56.0", "time_elapsed": 364655, "key_press": -1, "type": "PRE_RECALL_ALERT", "trial_index": 74}, "uniqueid": "MTK3266:3WI0P0II62ZMFI65FN6EVY5BD2DDR9", "dateTime": 1520284835334}, {"current_trial": 75, "trialdata": {"rt": [2122, 3786, 4910, 6179, 10258, 16471, 22597, 59180], "recwords": ["switch", "parrot", "poem", "piano", "sheriff", "switch", "radish", "uncle"], "key_times": [1002, 1159, 1344, 1421, 1683, 1800, 2122, 2658, 2754, 2922, 3065, 3275, 3396, 3786, 4177, 4441, 4564, 4657, 4910, 5240, 5466, 5594, 5719, 5913, 6179, 6519, 6671, 6769, 7128, 7209, 7988, 8363, 8549, 8707, 9471, 9875, 9986, 10132, 10258, 15290, 15512, 15845, 15909, 16130, 16225, 16471, 21718, 21874, 22008, 22126, 22221, 22316, 22597, 58333, 58534, 58791, 58921, 59002, 59180], "trial_type": "free-recall", "conditions": [18, 1200, "v", 18000], "internal_node_id": "0.0-57.0-0.0", "key_presses": [83, 87, 73, 84, 67, 72, 13, 80, 65, 82, 82, 79, 84, 13, 80, 79, 69, 77, 13, 80, 73, 65, 78, 79, 13, 83, 72, 65, 8, 69, 70, 8, 82, 82, 8, 73, 70, 70, 13, 83, 87, 73, 84, 67, 72, 13, 82, 65, 68, 73, 83, 72, 13, 85, 78, 67, 76, 69, 13], "trial": 1, "time_elapsed": 424663, "type": "FREE_RECALL", "trial_index": 75}, "uniqueid": "MTK3266:3WI0P0II62ZMFI65FN6EVY5BD2DDR9", "dateTime": 1520284895346}, {"current_trial": 76, "trialdata": {"rt": 1956, "trial_type": "text", "internal_node_id": "0.0-58.0", "time_elapsed": 428625, "key_press": 13, "type": "INSTRUCTIONS", "trial_index": 76}, "uniqueid": "MTK3266:3WI0P0II62ZMFI65FN6EVY5BD2DDR9", "dateTime": 1520284899304}, {"current_trial": 77, "trialdata": {"rt": [6332, 6425, 10883, 12861, 18279, 21956], "trial_type": "math-distractor", "key_times": [5661, 5737, 6332, 6425, 10479, 10647, 10883, 12550, 12694, 12861, 17690, 17767, 18279, 21228, 21738, 21956], "responses": ["17", "", "12", "11", "21", "18"], "num2": [7, 4, 2, 1, 5, 9, 9], "num3": [1, 9, 6, 1, 8, 7, 9], "conditions": [12, 800, "v", 24000], "internal_node_id": "0.0-59.0", "key_presses": [49, 55, 13, 13, 49, 50, 13, 49, 49, 13, 50, 49, 13, 49, 56, 13], "trial": 2, "time_elapsed": 453629, "type": "DISTRACTOR", "trial_index": 77, "num1": [8, 3, 4, 9, 8, 2, 4]}, "uniqueid": "MTK3266:3WI0P0II62ZMFI65FN6EVY5BD2DDR9", "dateTime": 1520284924308}, {"current_trial": 78, "trialdata": {"rt": -1, "trial_type": "single-stim", "stimulus": "<p id=\"stim\">10</p>", "internal_node_id": "0.0-60.0-0.0", "time_elapsed": 456632, "key_press": -1, "trial_index": 78}, "uniqueid": "MTK3266:3WI0P0II62ZMFI65FN6EVY5BD2DDR9", "dateTime": 1520284927311}, {"current_trial": 79, "trialdata": {"rt": -1, "trial_type": "single-stim", "stimulus": "<p id=\"stim\">9</p>", "internal_node_id": "0.0-60.0-1.0", "time_elapsed": 457634, "key_press": -1, "trial_index": 79}, "uniqueid": "MTK3266:3WI0P0II62ZMFI65FN6EVY5BD2DDR9", "dateTime": 1520284928313}, {"current_trial": 80, "trialdata": {"rt": -1, "trial_type": "single-stim", "stimulus": "<p id=\"stim\">8</p>", "internal_node_id": "0.0-60.0-2.0", "time_elapsed": 458637, "key_press": -1, "trial_index": 80}, "uniqueid": "MTK3266:3WI0P0II62ZMFI65FN6EVY5BD2DDR9", "dateTime": 1520284929316}, {"current_trial": 81, "trialdata": {"rt": -1, "trial_type": "single-stim", "stimulus": "<p id=\"stim\">7</p>", "internal_node_id": "0.0-60.0-3.0", "time_elapsed": 459639, "key_press": -1, "trial_index": 81}, "uniqueid": "MTK3266:3WI0P0II62ZMFI65FN6EVY5BD2DDR9", "dateTime": 1520284930318}, {"current_trial": 82, "trialdata": {"rt": -1, "trial_type": "single-stim", "stimulus": "<p id=\"stim\">6</p>", "internal_node_id": "0.0-60.0-4.0", "time_elapsed": 460642, "key_press": -1, "trial_index": 82}, "uniqueid": "MTK3266:3WI0P0II62ZMFI65FN6EVY5BD2DDR9", "dateTime": 1520284931321}, {"current_trial": 83, "trialdata": {"rt": -1, "trial_type": "single-stim", "stimulus": "<p id=\"stim\">5</p>", "internal_node_id": "0.0-60.0-5.0", "time_elapsed": 461643, "key_press": -1, "trial_index": 83}, "uniqueid": "MTK3266:3WI0P0II62ZMFI65FN6EVY5BD2DDR9", "dateTime": 1520284932322}, {"current_trial": 84, "trialdata": {"rt": -1, "trial_type": "single-stim", "stimulus": "<p id=\"stim\">4</p>", "internal_node_id": "0.0-60.0-6.0", "time_elapsed": 462646, "key_press": -1, "trial_index": 84}, "uniqueid": "MTK3266:3WI0P0II62ZMFI65FN6EVY5BD2DDR9", "dateTime": 1520284933325}, {"current_trial": 85, "trialdata": {"rt": -1, "trial_type": "single-stim", "stimulus": "<p id=\"stim\">3</p>", "internal_node_id": "0.0-60.0-7.0", "time_elapsed": 463648, "key_press": -1, "trial_index": 85}, "uniqueid": "MTK3266:3WI0P0II62ZMFI65FN6EVY5BD2DDR9", "dateTime": 1520284934327}, {"current_trial": 86, "trialdata": {"rt": -1, "trial_type": "single-stim", "stimulus": "<p id=\"stim\">2</p>", "internal_node_id": "0.0-60.0-8.0", "time_elapsed": 464648, "key_press": -1, "trial_index": 86}, "uniqueid": "MTK3266:3WI0P0II62ZMFI65FN6EVY5BD2DDR9", "dateTime": 1520284935330}, {"current_trial": 87, "trialdata": {"rt": -1, "trial_type": "single-stim", "stimulus": "<p id=\"stim\">1</p>", "internal_node_id": "0.0-60.0-9.0", "time_elapsed": 465655, "key_press": -1, "trial_index": 87}, "uniqueid": "MTK3266:3WI0P0II62ZMFI65FN6EVY5BD2DDR9", "dateTime": 1520284936334}, {"current_trial": 88, "trialdata": {"rt": -1, "trial_type": "single-stim", "stimulus": "<p id=\"stim\">+</p>", "internal_node_id": "0.0-61.0-0.0", "time_elapsed": 467156, "key_press": -1, "type": "FIXATION", "trial_index": 88}, "uniqueid": "MTK3266:3WI0P0II62ZMFI65FN6EVY5BD2DDR9", "dateTime": 1520284937835}, {"current_trial": 89, "trialdata": {"rt": -1, "trial_type": "single-stim", "word": "gavel", "stimulus": "<p id=\"stim\">GAVEL</p>", "conditions": [12, 800, "v", 24000], "internal_node_id": "0.0-62.0", "trial": 2, "time_elapsed": 467958, "serialpos": 0, "key_press": -1, "wordID": 626, "type": "PRES_VIS", "trial_index": 89}, "uniqueid": "MTK3266:3WI0P0II62ZMFI65FN6EVY5BD2DDR9", "dateTime": 1520284938637}, {"current_trial": 90, "trialdata": {"rt": -1, "trial_type": "single-stim", "word": "crater", "stimulus": "<p id=\"stim\">CRATER</p>", "conditions": [12, 800, "v", 24000], "internal_node_id": "0.0-63.0", "trial": 2, "time_elapsed": 469575, "serialpos": 1, "key_press": -1, "wordID": 399, "type": "PRES_VIS", "trial_index": 90}, "uniqueid": "MTK3266:3WI0P0II62ZMFI65FN6EVY5BD2DDR9", "dateTime": 1520284940255}, {"current_trial": 91, "trialdata": {"rt": -1, "trial_type": "single-stim", "word": "lava", "stimulus": "<p id=\"stim\">LAVA</p>", "conditions": [12, 800, "v", 24000], "internal_node_id": "0.0-64.0", "trial": 2, "time_elapsed": 471522, "serialpos": 2, "key_press": -1, "wordID": 803, "type": "PRES_VIS", "trial_index": 91}, "uniqueid": "MTK3266:3WI0P0II62ZMFI65FN6EVY5BD2DDR9", "dateTime": 1520284942201}, {"current_trial": 92, "trialdata": {"rt": -1, "trial_type": "single-stim", "word": "panther", "stimulus": "<p id=\"stim\">PANTHER</p>", "conditions": [12, 800, "v", 24000], "internal_node_id": "0.0-65.0", "trial": 2, "time_elapsed": 473453, "serialpos": 3, "key_press": -1, "wordID": 1008, "type": "PRES_VIS", "trial_index": 92}, "uniqueid": "MTK3266:3WI0P0II62ZMFI65FN6EVY5BD2DDR9", "dateTime": 1520284944132}, {"current_trial": 93, "trialdata": {"rt": -1, "trial_type": "single-stim", "word": "leopard", "stimulus": "<p id=\"stim\">LEOPARD</p>", "conditions": [12, 800, "v", 24000], "internal_node_id": "0.0-66.0", "trial": 2, "time_elapsed": 475225, "serialpos": 4, "key_press": -1, "wordID": 811, "type": "PRES_VIS", "trial_index": 93}, "uniqueid": "MTK3266:3WI0P0II62ZMFI65FN6EVY5BD2DDR9", "dateTime": 1520284945904}, {"current_trial": 94, "trialdata": {"rt": -1, "trial_type": "single-stim", "word": "muffin", "stimulus": "<p id=\"stim\">MUFFIN</p>", "conditions": [12, 800, "v", 24000], "internal_node_id": "0.0-67.0", "trial": 2, "time_elapsed": 476930, "serialpos": 5, "key_press": -1, "wordID": 928, "type": "PRES_VIS", "trial_index": 94}, "uniqueid": "MTK3266:3WI0P0II62ZMFI65FN6EVY5BD2DDR9", "dateTime": 1520284947610}, {"current_trial": 95, "trialdata": {"rt": -1, "trial_type": "single-stim", "word": "puddle", "stimulus": "<p id=\"stim\">PUDDLE</p>", "conditions": [12, 800, "v", 24000], "internal_node_id": "0.0-68.0", "trial": 2, "time_elapsed": 478864, "serialpos": 6, "key_press": -1, "wordID": 1139, "type": "PRES_VIS", "trial_index": 95}, "uniqueid": "MTK3266:3WI0P0II62ZMFI65FN6EVY5BD2DDR9", "dateTime": 1520284949543}, {"current_trial": 96, "trialdata": {"rt": -1, "trial_type": "single-stim", "word": "chest", "stimulus": "<p id=\"stim\">CHEST</p>", "conditions": [12, 800, "v", 24000], "internal_node_id": "0.0-69.0", "trial": 2, "time_elapsed": 480571, "serialpos": 7, "key_press": -1, "wordID": 294, "type": "PRES_VIS", "trial_index": 96}, "uniqueid": "MTK3266:3WI0P0II62ZMFI65FN6EVY5BD2DDR9", "dateTime": 1520284951250}, {"current_trial": 97, "trialdata": {"rt": -1, "trial_type": "single-stim", "word": "chipmunk", "stimulus": "<p id=\"stim\">CHIPMUNK</p>", "conditions": [12, 800, "v", 24000], "internal_node_id": "0.0-70.0", "trial": 2, "time_elapsed": 482518, "serialpos": 8, "key_press": -1, "wordID": 303, "type": "PRES_VIS", "trial_index": 97}, "uniqueid": "MTK3266:3WI0P0II62ZMFI65FN6EVY5BD2DDR9", "dateTime": 1520284953197}, {"current_trial": 98, "trialdata": {"rt": -1, "trial_type": "single-stim", "word": "wrist", "stimulus": "<p id=\"stim\">WRIST</p>", "conditions": [12, 800, "v", 24000], "internal_node_id": "0.0-71.0", "trial": 2, "time_elapsed": 484347, "serialpos": 9, "key_press": -1, "wordID": 1625, "type": "PRES_VIS", "trial_index": 98}, "uniqueid": "MTK3266:3WI0P0II62ZMFI65FN6EVY5BD2DDR9", "dateTime": 1520284955026}, {"current_trial": 99, "trialdata": {"rt": -1, "trial_type": "single-stim", "word": "zebra", "stimulus": "<p id=\"stim\">ZEBRA</p>", "conditions": [12, 800, "v", 24000], "internal_node_id": "0.0-72.0", "trial": 2, "time_elapsed": 486242, "serialpos": 10, "key_press": -1, "wordID": 1634, "type": "PRES_VIS", "trial_index": 99}, "uniqueid": "MTK3266:3WI0P0II62ZMFI65FN6EVY5BD2DDR9", "dateTime": 1520284956921}, {"current_trial": 100, "trialdata": {"rt": -1, "trial_type": "single-stim", "word": "suitcase", "stimulus": "<p id=\"stim\">SUITCASE</p>", "conditions": [12, 800, "v", 24000], "internal_node_id": "0.0-73.0", "trial": 2, "time_elapsed": 488078, "serialpos": 11, "key_press": -1, "wordID": 1402, "type": "PRES_VIS", "trial_index": 100}, "uniqueid": "MTK3266:3WI0P0II62ZMFI65FN6EVY5BD2DDR9", "dateTime": 1520284958758}, {"current_trial": 101, "trialdata": {"rt": -1, "trial_type": "single-stim", "stimulus": "", "internal_node_id": "0.0-74.0-0.0", "time_elapsed": 490657, "key_press": -1, "type": "PRE_RECALL_DELAY", "trial_index": 101}, "uniqueid": "MTK3266:3WI0P0II62ZMFI65FN6EVY5BD2DDR9", "dateTime": 1520284961337}, {"current_trial": 102, "trialdata": {"rt": -1000, "trial_type": "single-audio", "stimulus": "/static/audio/400Hz.wav", "internal_node_id": "0.0-75.0", "time_elapsed": 491160, "key_press": -1, "type": "PRE_RECALL_ALERT", "trial_index": 102}, "uniqueid": "MTK3266:3WI0P0II62ZMFI65FN6EVY5BD2DDR9", "dateTime": 1520284961839}, {"current_trial": 103, "trialdata": {"rt": [2660, 4209, 6747, 8748, 11136, 12723, 15014, 20854, 29902], "recwords": ["paddle", "muffin", "zebra", "suitcase", "leopard", "panther", "gavel", "lava", "molten"], "key_times": [623, 697, 878, 1295, 1526, 1647, 1983, 2118, 2404, 2492, 2660, 3091, 3337, 3524, 3667, 3811, 3990, 4209, 5704, 6075, 6305, 6523, 6608, 6747, 7088, 7463, 7630, 7741, 7969, 8074, 8277, 8317, 8748, 9917, 10231, 10411, 10576, 10642, 10735, 10967, 11136, 11866, 11961, 12118, 12231, 12350, 12445, 12498, 12723, 14090, 14279, 14493, 14578, 14706, 15014, 20029, 20192, 20435, 20655, 20854, 28948, 29109, 29282, 29378, 29523, 29609, 29902], "trial_type": "free-recall", "conditions": [12, 800, "v", 24000], "internal_node_id": "0.0-76.0-0.0", "key_presses": [80, 65, 68, 68, 69, 76, 8, 8, 76, 69, 13, 77, 85, 70, 70, 73, 78, 32, 90, 69, 66, 82, 65, 13, 83, 85, 73, 84, 67, 65, 83, 69, 13, 76, 69, 79, 80, 65, 82, 68, 13, 80, 65, 78, 84, 72, 69, 82, 13, 71, 65, 86, 69, 76, 13, 76, 65, 86, 65, 13, 77, 79, 76, 84, 69, 78, 13], "trial": 2, "time_elapsed": 551165, "type": "FREE_RECALL", "trial_index": 103}, "uniqueid": "MTK3266:3WI0P0II62ZMFI65FN6EVY5BD2DDR9", "dateTime": 1520285021851}, {"current_trial": 104, "trialdata": {"rt": 1791, "trial_type": "text", "internal_node_id": "0.0-77.0", "time_elapsed": 554964, "key_press": 32, "type": "INSTRUCTIONS", "trial_index": 104}, "uniqueid": "MTK3266:3WI0P0II62ZMFI65FN6EVY5BD2DDR9", "dateTime": 1520285025643}, {"current_trial": 105, "trialdata": {"rt": [2628, 6226, 7951, 11678, 15453, 20578], "trial_type": "math-distractor", "key_times": [2180, 2472, 2628, 5693, 6021, 6226, 7646, 7794, 7951, 10963, 11381, 11678, 14951, 15149, 15453, 19177, 19400, 20053, 20192, 20288, 20468, 20578], "responses": ["15", "14", "11", "14", "13", "21"], "num2": [1, 7, 9, 8, 1, 9, 7], "num3": [9, 4, 1, 5, 7, 9, 4], "conditions": [24, 800, "v", 24000], "internal_node_id": "0.0-78.0", "key_presses": [49, 53, 13, 49, 52, 13, 49, 49, 13, 49, 52, 13, 49, 51, 13, 49, 50, 8, 8, 50, 49, 13], "trial": 3, "time_elapsed": 580970, "type": "DISTRACTOR", "trial_index": 105, "num1": [5, 3, 1, 1, 5, 3, 5]}, "uniqueid": "MTK3266:3WI0P0II62ZMFI65FN6EVY5BD2DDR9", "dateTime": 1520285051649}, {"current_trial": 106, "trialdata": {"rt": -1, "trial_type": "single-stim", "stimulus": "<p id=\"stim\">10</p>", "internal_node_id": "0.0-79.0-0.0", "time_elapsed": 583974, "key_press": -1, "trial_index": 106}, "uniqueid": "MTK3266:3WI0P0II62ZMFI65FN6EVY5BD2DDR9", "dateTime": 1520285054653}, {"current_trial": 107, "trialdata": {"rt": -1, "trial_type": "single-stim", "stimulus": "<p id=\"stim\">9</p>", "internal_node_id": "0.0-79.0-1.0", "time_elapsed": 584978, "key_press": -1, "trial_index": 107}, "uniqueid": "MTK3266:3WI0P0II62ZMFI65FN6EVY5BD2DDR9", "dateTime": 1520285055657}, {"current_trial": 108, "trialdata": {"rt": -1, "trial_type": "single-stim", "stimulus": "<p id=\"stim\">8</p>", "internal_node_id": "0.0-79.0-2.0", "time_elapsed": 585979, "key_press": -1, "trial_index": 108}, "uniqueid": "MTK3266:3WI0P0II62ZMFI65FN6EVY5BD2DDR9", "dateTime": 1520285056659}, {"current_trial": 109, "trialdata": {"rt": -1, "trial_type": "single-stim", "stimulus": "<p id=\"stim\">7</p>", "internal_node_id": "0.0-79.0-3.0", "time_elapsed": 586982, "key_press": -1, "trial_index": 109}, "uniqueid": "MTK3266:3WI0P0II62ZMFI65FN6EVY5BD2DDR9", "dateTime": 1520285057661}, {"current_trial": 110, "trialdata": {"rt": -1, "trial_type": "single-stim", "stimulus": "<p id=\"stim\">6</p>", "internal_node_id": "0.0-79.0-4.0", "time_elapsed": 587985, "key_press": -1, "trial_index": 110}, "uniqueid": "MTK3266:3WI0P0II62ZMFI65FN6EVY5BD2DDR9", "dateTime": 1520285058664}, {"current_trial": 111, "trialdata": {"rt": -1, "trial_type": "single-stim", "stimulus": "<p id=\"stim\">5</p>", "internal_node_id": "0.0-79.0-5.0", "time_elapsed": 588987, "key_press": -1, "trial_index": 111}, "uniqueid": "MTK3266:3WI0P0II62ZMFI65FN6EVY5BD2DDR9", "dateTime": 1520285059666}, {"current_trial": 112, "trialdata": {"rt": -1, "trial_type": "single-stim", "stimulus": "<p id=\"stim\">4</p>", "internal_node_id": "0.0-79.0-6.0", "time_elapsed": 589988, "key_press": -1, "trial_index": 112}, "uniqueid": "MTK3266:3WI0P0II62ZMFI65FN6EVY5BD2DDR9", "dateTime": 1520285060667}, {"current_trial": 113, "trialdata": {"rt": -1, "trial_type": "single-stim", "stimulus": "<p id=\"stim\">3</p>", "internal_node_id": "0.0-79.0-7.0", "time_elapsed": 590991, "key_press": -1, "trial_index": 113}, "uniqueid": "MTK3266:3WI0P0II62ZMFI65FN6EVY5BD2DDR9", "dateTime": 1520285061670}, {"current_trial": 114, "trialdata": {"rt": -1, "trial_type": "single-stim", "stimulus": "<p id=\"stim\">2</p>", "internal_node_id": "0.0-79.0-8.0", "time_elapsed": 591994, "key_press": -1, "trial_index": 114}, "uniqueid": "MTK3266:3WI0P0II62ZMFI65FN6EVY5BD2DDR9", "dateTime": 1520285062673}, {"current_trial": 115, "trialdata": {"rt": -1, "trial_type": "single-stim", "stimulus": "<p id=\"stim\">1</p>", "internal_node_id": "0.0-79.0-9.0", "time_elapsed": 592996, "key_press": -1, "trial_index": 115}, "uniqueid": "MTK3266:3WI0P0II62ZMFI65FN6EVY5BD2DDR9", "dateTime": 1520285063675}, {"current_trial": 116, "trialdata": {"rt": -1, "trial_type": "single-stim", "stimulus": "<p id=\"stim\">+</p>", "internal_node_id": "0.0-80.0-0.0", "time_elapsed": 594498, "key_press": -1, "type": "FIXATION", "trial_index": 116}, "uniqueid": "MTK3266:3WI0P0II62ZMFI65FN6EVY5BD2DDR9", "dateTime": 1520285065177}, {"current_trial": 117, "trialdata": {"rt": -1, "trial_type": "single-stim", "word": "film", "stimulus": "<p id=\"stim\">FILM</p>", "conditions": [24, 800, "v", 24000], "internal_node_id": "0.0-81.0", "trial": 3, "time_elapsed": 595300, "serialpos": 0, "key_press": -1, "wordID": 564, "type": "PRES_VIS", "trial_index": 117}, "uniqueid": "MTK3266:3WI0P0II62ZMFI65FN6EVY5BD2DDR9", "dateTime": 1520285065979}, {"current_trial": 118, "trialdata": {"rt": -1, "trial_type": "single-stim", "word": "japan", "stimulus": "<p id=\"stim\">JAPAN</p>", "conditions": [24, 800, "v", 24000], "internal_node_id": "0.0-82.0", "trial": 3, "time_elapsed": 596927, "serialpos": 1, "key_press": -1, "wordID": 748, "type": "PRES_VIS", "trial_index": 118}, "uniqueid": "MTK3266:3WI0P0II62ZMFI65FN6EVY5BD2DDR9", "dateTime": 1520285067606}, {"current_trial": 119, "trialdata": {"rt": -1, "trial_type": "single-stim", "word": "mammal", "stimulus": "<p id=\"stim\">MAMMAL</p>", "conditions": [24, 800, "v", 24000], "internal_node_id": "0.0-83.0", "trial": 3, "time_elapsed": 598825, "serialpos": 2, "key_press": -1, "wordID": 860, "type": "PRES_VIS", "trial_index": 119}, "uniqueid": "MTK3266:3WI0P0II62ZMFI65FN6EVY5BD2DDR9", "dateTime": 1520285069504}, {"current_trial": 120, "trialdata": {"rt": -1, "trial_type": "single-stim", "word": "turtle", "stimulus": "<p id=\"stim\">TURTLE</p>", "conditions": [24, 800, "v", 24000], "internal_node_id": "0.0-84.0", "trial": 3, "time_elapsed": 600761, "serialpos": 3, "key_press": -1, "wordID": 1521, "type": "PRES_VIS", "trial_index": 120}, "uniqueid": "MTK3266:3WI0P0II62ZMFI65FN6EVY5BD2DDR9", "dateTime": 1520285071440}, {"current_trial": 121, "trialdata": {"rt": -1, "trial_type": "single-stim", "word": "actor", "stimulus": "<p id=\"stim\">ACTOR</p>", "conditions": [24, 800, "v", 24000], "internal_node_id": "0.0-85.0", "trial": 3, "time_elapsed": 602448, "serialpos": 4, "key_press": -1, "wordID": 4, "type": "PRES_VIS", "trial_index": 121}, "uniqueid": "MTK3266:3WI0P0II62ZMFI65FN6EVY5BD2DDR9", "dateTime": 1520285073128}, {"current_trial": 122, "trialdata": {"rt": -1, "trial_type": "single-stim", "word": "snake", "stimulus": "<p id=\"stim\">SNAKE</p>", "conditions": [24, 800, "v", 24000], "internal_node_id": "0.0-86.0", "trial": 3, "time_elapsed": 604274, "serialpos": 5, "key_press": -1, "wordID": 1332, "type": "PRES_VIS", "trial_index": 122}, "uniqueid": "MTK3266:3WI0P0II62ZMFI65FN6EVY5BD2DDR9", "dateTime": 1520285074953}, {"current_trial": 123, "trialdata": {"rt": -1, "trial_type": "single-stim", "word": "eagle", "stimulus": "<p id=\"stim\">EAGLE</p>", "conditions": [24, 800, "v", 24000], "internal_node_id": "0.0-87.0", "trial": 3, "time_elapsed": 606244, "serialpos": 6, "key_press": -1, "wordID": 511, "type": "PRES_VIS", "trial_index": 123}, "uniqueid": "MTK3266:3WI0P0II62ZMFI65FN6EVY5BD2DDR9", "dateTime": 1520285076923}, {"current_trial": 124, "trialdata": {"rt": -1, "trial_type": "single-stim", "word": "drink", "stimulus": "<p id=\"stim\">DRINK</p>", "conditions": [24, 800, "v", 24000], "internal_node_id": "0.0-88.0", "trial": 3, "time_elapsed": 608063, "serialpos": 7, "key_press": -1, "wordID": 497, "type": "PRES_VIS", "trial_index": 124}, "uniqueid": "MTK3266:3WI0P0II62ZMFI65FN6EVY5BD2DDR9", "dateTime": 1520285078742}, {"current_trial": 125, "trialdata": {"rt": -1, "trial_type": "single-stim", "word": "award", "stimulus": "<p id=\"stim\">AWARD</p>", "conditions": [24, 800, "v", 24000], "internal_node_id": "0.0-89.0", "trial": 3, "time_elapsed": 609720, "serialpos": 8, "key_press": -1, "wordID": 62, "type": "PRES_VIS", "trial_index": 125}, "uniqueid": "MTK3266:3WI0P0II62ZMFI65FN6EVY5BD2DDR9", "dateTime": 1520285080399}, {"current_trial": 126, "trialdata": {"rt": -1, "trial_type": "single-stim", "word": "treat", "stimulus": "<p id=\"stim\">TREAT</p>", "conditions": [24, 800, "v", 24000], "internal_node_id": "0.0-90.0", "trial": 3, "time_elapsed": 611565, "serialpos": 9, "key_press": -1, "wordID": 1500, "type": "PRES_VIS", "trial_index": 126}, "uniqueid": "MTK3266:3WI0P0II62ZMFI65FN6EVY5BD2DDR9", "dateTime": 1520285082244}, {"current_trial": 127, "trialdata": {"rt": -1, "trial_type": "single-stim", "word": "shelf", "stimulus": "<p id=\"stim\">SHELF</p>", "conditions": [24, 800, "v", 24000], "internal_node_id": "0.0-91.0", "trial": 3, "time_elapsed": 613180, "serialpos": 10, "key_press": -1, "wordID": 1279, "type": "PRES_VIS", "trial_index": 127}, "uniqueid": "MTK3266:3WI0P0II62ZMFI65FN6EVY5BD2DDR9", "dateTime": 1520285083859}, {"current_trial": 128, "trialdata": {"rt": -1, "trial_type": "single-stim", "word": "kleenex", "stimulus": "<p id=\"stim\">KLEENEX</p>", "conditions": [24, 800, "v", 24000], "internal_node_id": "0.0-92.0", "trial": 3, "time_elapsed": 614964, "serialpos": 11, "key_press": -1, "wordID": 781, "type": "PRES_VIS", "trial_index": 128}, "uniqueid": "MTK3266:3WI0P0II62ZMFI65FN6EVY5BD2DDR9", "dateTime": 1520285085644}, {"current_trial": 129, "trialdata": {"rt": -1, "trial_type": "single-stim", "word": "woman", "stimulus": "<p id=\"stim\">WOMAN</p>", "conditions": [24, 800, "v", 24000], "internal_node_id": "0.0-93.0", "trial": 3, "time_elapsed": 616752, "serialpos": 12, "key_press": -1, "wordID": 1619, "type": "PRES_VIS", "trial_index": 129}, "uniqueid": "MTK3266:3WI0P0II62ZMFI65FN6EVY5BD2DDR9", "dateTime": 1520285087431}, {"current_trial": 130, "trialdata": {"rt": -1, "trial_type": "single-stim", "word": "beaver", "stimulus": "<p id=\"stim\">BEAVER</p>", "conditions": [24, 800, "v", 24000], "internal_node_id": "0.0-94.0", "trial": 3, "time_elapsed": 618576, "serialpos": 13, "key_press": -1, "wordID": 108, "type": "PRES_VIS", "trial_index": 130}, "uniqueid": "MTK3266:3WI0P0II62ZMFI65FN6EVY5BD2DDR9", "dateTime": 1520285089255}, {"current_trial": 131, "trialdata": {"rt": -1, "trial_type": "single-stim", "word": "cobra", "stimulus": "<p id=\"stim\">COBRA</p>", "conditions": [24, 800, "v", 24000], "internal_node_id": "0.0-95.0", "trial": 3, "time_elapsed": 620313, "serialpos": 14, "key_press": -1, "wordID": 335, "type": "PRES_VIS", "trial_index": 131}, "uniqueid": "MTK3266:3WI0P0II62ZMFI65FN6EVY5BD2DDR9", "dateTime": 1520285090992}, {"current_trial": 132, "trialdata": {"rt": -1, "trial_type": "single-stim", "word": "lizard", "stimulus": "<p id=\"stim\">LIZARD</p>", "conditions": [24, 800, "v", 24000], "internal_node_id": "0.0-96.0", "trial": 3, "time_elapsed": 622103, "serialpos": 15, "key_press": -1, "wordID": 833, "type": "PRES_VIS", "trial_index": 132}, "uniqueid": "MTK3266:3WI0P0II62ZMFI65FN6EVY5BD2DDR9", "dateTime": 1520285092783}, {"current_trial": 133, "trialdata": {"rt": -1, "trial_type": "single-stim", "word": "mustard", "stimulus": "<p id=\"stim\">MUSTARD</p>", "conditions": [24, 800, "v", 24000], "internal_node_id": "0.0-97.0", "trial": 3, "time_elapsed": 623967, "serialpos": 16, "key_press": -1, "wordID": 934, "type": "PRES_VIS", "trial_index": 133}, "uniqueid": "MTK3266:3WI0P0II62ZMFI65FN6EVY5BD2DDR9", "dateTime": 1520285094646}, {"current_trial": 134, "trialdata": {"rt": -1, "trial_type": "single-stim", "word": "buggy", "stimulus": "<p id=\"stim\">BUGGY</p>", "conditions": [24, 800, "v", 24000], "internal_node_id": "0.0-98.0", "trial": 3, "time_elapsed": 625884, "serialpos": 17, "key_press": -1, "wordID": 187, "type": "PRES_VIS", "trial_index": 134}, "uniqueid": "MTK3266:3WI0P0II62ZMFI65FN6EVY5BD2DDR9", "dateTime": 1520285096563}, {"current_trial": 135, "trialdata": {"rt": -1, "trial_type": "single-stim", "word": "lady", "stimulus": "<p id=\"stim\">LADY</p>", "conditions": [24, 800, "v", 24000], "internal_node_id": "0.0-99.0", "trial": 3, "time_elapsed": 627490, "serialpos": 18, "key_press": -1, "wordID": 793, "type": "PRES_VIS", "trial_index": 135}, "uniqueid": "MTK3266:3WI0P0II62ZMFI65FN6EVY5BD2DDR9", "dateTime": 1520285098169}, {"current_trial": 136, "trialdata": {"rt": -1, "trial_type": "single-stim", "word": "yacht", "stimulus": "<p id=\"stim\">YACHT</p>", "conditions": [24, 800, "v", 24000], "internal_node_id": "0.0-100.0", "trial": 3, "time_elapsed": 629384, "serialpos": 19, "key_press": -1, "wordID": 1628, "type": "PRES_VIS", "trial_index": 136}, "uniqueid": "MTK3266:3WI0P0II62ZMFI65FN6EVY5BD2DDR9", "dateTime": 1520285100063}, {"current_trial": 137, "trialdata": {"rt": -1, "trial_type": "single-stim", "word": "sponge", "stimulus": "<p id=\"stim\">SPONGE</p>", "conditions": [24, 800, "v", 24000], "internal_node_id": "0.0-101.0", "trial": 3, "time_elapsed": 631124, "serialpos": 20, "key_press": -1, "wordID": 1354, "type": "PRES_VIS", "trial_index": 137}, "uniqueid": "MTK3266:3WI0P0II62ZMFI65FN6EVY5BD2DDR9", "dateTime": 1520285101803}, {"current_trial": 138, "trialdata": {"rt": -1, "trial_type": "single-stim", "word": "doughnut", "stimulus": "<p id=\"stim\">DOUGHNUT</p>", "conditions": [24, 800, "v", 24000], "internal_node_id": "0.0-102.0", "trial": 3, "time_elapsed": 632768, "serialpos": 21, "key_press": -1, "wordID": 489, "type": "PRES_VIS", "trial_index": 138}, "uniqueid": "MTK3266:3WI0P0II62ZMFI65FN6EVY5BD2DDR9", "dateTime": 1520285103447}, {"current_trial": 139, "trialdata": {"rt": -1, "trial_type": "single-stim", "word": "oyster", "stimulus": "<p id=\"stim\">OYSTER</p>", "conditions": [24, 800, "v", 24000], "internal_node_id": "0.0-103.0", "trial": 3, "time_elapsed": 634719, "serialpos": 22, "key_press": -1, "wordID": 994, "type": "PRES_VIS", "trial_index": 139}, "uniqueid": "MTK3266:3WI0P0II62ZMFI65FN6EVY5BD2DDR9", "dateTime": 1520285105398}, {"current_trial": 140, "trialdata": {"rt": -1, "trial_type": "single-stim", "word": "brook", "stimulus": "<p id=\"stim\">BROOK</p>", "conditions": [24, 800, "v", 24000], "internal_node_id": "0.0-104.0", "trial": 3, "time_elapsed": 636665, "serialpos": 23, "key_press": -1, "wordID": 176, "type": "PRES_VIS", "trial_index": 140}, "uniqueid": "MTK3266:3WI0P0II62ZMFI65FN6EVY5BD2DDR9", "dateTime": 1520285107344}, {"current_trial": 141, "trialdata": {"rt": -1, "trial_type": "single-stim", "stimulus": "", "internal_node_id": "0.0-105.0-0.0", "time_elapsed": 638942, "key_press": -1, "type": "PRE_RECALL_DELAY", "trial_index": 141}, "uniqueid": "MTK3266:3WI0P0II62ZMFI65FN6EVY5BD2DDR9", "dateTime": 1520285109621}, {"current_trial": 142, "trialdata": {"rt": -1000, "trial_type": "single-audio", "stimulus": "/static/audio/400Hz.wav", "internal_node_id": "0.0-106.0", "time_elapsed": 639444, "key_press": -1, "type": "PRE_RECALL_ALERT", "trial_index": 142}, "uniqueid": "MTK3266:3WI0P0II62ZMFI65FN6EVY5BD2DDR9", "dateTime": 1520285110123}, {"current_trial": 143, "trialdata": {"rt": [2538, 4596, 7312, 9242, 11651, 34456, 40112], "recwords": ["brook", "lady", "japan", "film", "oyster", "snake", "yacht"], "key_times": [481, 681, 831, 1359, 1507, 1743, 1926, 2065, 2252, 2538, 3099, 3215, 3470, 3943, 4224, 4301, 4596, 6085, 6191, 6781, 6947, 7043, 7312, 8398, 8559, 8718, 8987, 9242, 9743, 10245, 10399, 10522, 10786, 11395, 11651, 12374, 12892, 33643, 33761, 33882, 34145, 34191, 34456, 39093, 39198, 39399, 39504, 39870, 40112, 56853], "trial_type": "free-recall", "conditions": [24, 800, "v", 24000], "internal_node_id": "0.0-107.0-0.0", "key_presses": [66, 79, 79, 8, 8, 82, 79, 79, 75, 13, 76, 65, 89, 8, 68, 89, 13, 74, 65, 80, 65, 78, 13, 70, 73, 76, 77, 13, 79, 89, 83, 84, 69, 82, 13, 68, 8, 83, 78, 65, 75, 69, 13, 89, 65, 67, 72, 84, 13, 18], "trial": 3, "time_elapsed": 699448, "type": "FREE_RECALL", "trial_index": 143}, "uniqueid": "MTK3266:3WI0P0II62ZMFI65FN6EVY5BD2DDR9", "dateTime": 1520285170133}, {"current_trial": 144, "trialdata": {"rt": 1389, "trial_type": "text", "internal_node_id": "0.0-108.0", "time_elapsed": 702844, "key_press": 32, "type": "INSTRUCTIONS", "trial_index": 144}, "uniqueid": "MTK3266:3WI0P0II62ZMFI65FN6EVY5BD2DDR9", "dateTime": 1520285173523}, {"current_trial": 145, "trialdata": {"rt": [6006, 10069], "trial_type": "math-distractor", "key_times": [5550, 5650, 6006, 9460, 9905, 10069], "responses": ["18", "17"], "num2": [6, 2, 4], "num3": [6, 6, 3], "conditions": [12, 800, "v", 12000], "internal_node_id": "0.0-109.0", "key_presses": [49, 56, 13, 49, 55, 13], "trial": 4, "time_elapsed": 716849, "type": "DISTRACTOR", "trial_index": 145, "num1": [6, 9, 4]}, "uniqueid": "MTK3266:3WI0P0II62ZMFI65FN6EVY5BD2DDR9", "dateTime": 1520285187528}, {"current_trial": 146, "trialdata": {"rt": -1, "trial_type": "single-stim", "stimulus": "<p id=\"stim\">10</p>", "internal_node_id": "0.0-110.0-0.0", "time_elapsed": 719853, "key_press": -1, "trial_index": 146}, "uniqueid": "MTK3266:3WI0P0II62ZMFI65FN6EVY5BD2DDR9", "dateTime": 1520285190532}, {"current_trial": 147, "trialdata": {"rt": -1, "trial_type": "single-stim", "stimulus": "<p id=\"stim\">9</p>", "internal_node_id": "0.0-110.0-1.0", "time_elapsed": 720855, "key_press": -1, "trial_index": 147}, "uniqueid": "MTK3266:3WI0P0II62ZMFI65FN6EVY5BD2DDR9", "dateTime": 1520285191534}, {"current_trial": 148, "trialdata": {"rt": -1, "trial_type": "single-stim", "stimulus": "<p id=\"stim\">8</p>", "internal_node_id": "0.0-110.0-2.0", "time_elapsed": 721856, "key_press": -1, "trial_index": 148}, "uniqueid": "MTK3266:3WI0P0II62ZMFI65FN6EVY5BD2DDR9", "dateTime": 1520285192535}, {"current_trial": 149, "trialdata": {"rt": -1, "trial_type": "single-stim", "stimulus": "<p id=\"stim\">7</p>", "internal_node_id": "0.0-110.0-3.0", "time_elapsed": 722858, "key_press": -1, "trial_index": 149}, "uniqueid": "MTK3266:3WI0P0II62ZMFI65FN6EVY5BD2DDR9", "dateTime": 1520285193537}, {"current_trial": 150, "trialdata": {"rt": -1, "trial_type": "single-stim", "stimulus": "<p id=\"stim\">6</p>", "internal_node_id": "0.0-110.0-4.0", "time_elapsed": 723860, "key_press": -1, "trial_index": 150}, "uniqueid": "MTK3266:3WI0P0II62ZMFI65FN6EVY5BD2DDR9", "dateTime": 1520285194539}, {"current_trial": 151, "trialdata": {"rt": -1, "trial_type": "single-stim", "stimulus": "<p id=\"stim\">5</p>", "internal_node_id": "0.0-110.0-5.0", "time_elapsed": 724861, "key_press": -1, "trial_index": 151}, "uniqueid": "MTK3266:3WI0P0II62ZMFI65FN6EVY5BD2DDR9", "dateTime": 1520285195540}, {"current_trial": 152, "trialdata": {"rt": -1, "trial_type": "single-stim", "stimulus": "<p id=\"stim\">4</p>", "internal_node_id": "0.0-110.0-6.0", "time_elapsed": 725863, "key_press": -1, "trial_index": 152}, "uniqueid": "MTK3266:3WI0P0II62ZMFI65FN6EVY5BD2DDR9", "dateTime": 1520285196542}, {"current_trial": 153, "trialdata": {"rt": -1, "trial_type": "single-stim", "stimulus": "<p id=\"stim\">3</p>", "internal_node_id": "0.0-110.0-7.0", "time_elapsed": 726865, "key_press": -1, "trial_index": 153}, "uniqueid": "MTK3266:3WI0P0II62ZMFI65FN6EVY5BD2DDR9", "dateTime": 1520285197544}, {"current_trial": 154, "trialdata": {"rt": -1, "trial_type": "single-stim", "stimulus": "<p id=\"stim\">2</p>", "internal_node_id": "0.0-110.0-8.0", "time_elapsed": 727866, "key_press": -1, "trial_index": 154}, "uniqueid": "MTK3266:3WI0P0II62ZMFI65FN6EVY5BD2DDR9", "dateTime": 1520285198546}, {"current_trial": 155, "trialdata": {"rt": -1, "trial_type": "single-stim", "stimulus": "<p id=\"stim\">1</p>", "internal_node_id": "0.0-110.0-9.0", "time_elapsed": 728869, "key_press": -1, "trial_index": 155}, "uniqueid": "MTK3266:3WI0P0II62ZMFI65FN6EVY5BD2DDR9", "dateTime": 1520285199548}, {"current_trial": 156, "trialdata": {"rt": -1, "trial_type": "single-stim", "stimulus": "<p id=\"stim\">+</p>", "internal_node_id": "0.0-111.0-0.0", "time_elapsed": 730370, "key_press": -1, "type": "FIXATION", "trial_index": 156}, "uniqueid": "MTK3266:3WI0P0II62ZMFI65FN6EVY5BD2DDR9", "dateTime": 1520285201049}, {"current_trial": 157, "trialdata": {"rt": -1, "trial_type": "single-stim", "word": "mildew", "stimulus": "<p id=\"stim\">MILDEW</p>", "conditions": [12, 800, "v", 12000], "internal_node_id": "0.0-112.0", "trial": 4, "time_elapsed": 731172, "serialpos": 0, "key_press": -1, "wordID": 892, "type": "PRES_VIS", "trial_index": 157}, "uniqueid": "MTK3266:3WI0P0II62ZMFI65FN6EVY5BD2DDR9", "dateTime": 1520285201851}, {"current_trial": 158, "trialdata": {"rt": -1, "trial_type": "single-stim", "word": "valley", "stimulus": "<p id=\"stim\">VALLEY</p>", "conditions": [12, 800, "v", 12000], "internal_node_id": "0.0-113.0", "trial": 4, "time_elapsed": 732789, "serialpos": 1, "key_press": -1, "wordID": 1544, "type": "PRES_VIS", "trial_index": 158}, "uniqueid": "MTK3266:3WI0P0II62ZMFI65FN6EVY5BD2DDR9", "dateTime": 1520285203469}, {"current_trial": 159, "trialdata": {"rt": -1, "trial_type": "single-stim", "word": "primate", "stimulus": "<p id=\"stim\">PRIMATE</p>", "conditions": [12, 800, "v", 12000], "internal_node_id": "0.0-114.0", "trial": 4, "time_elapsed": 734559, "serialpos": 2, "key_press": -1, "wordID": 1122, "type": "PRES_VIS", "trial_index": 159}, "uniqueid": "MTK3266:3WI0P0II62ZMFI65FN6EVY5BD2DDR9", "dateTime": 1520285205239}, {"current_trial": 160, "trialdata": {"rt": -1, "trial_type": "single-stim", "word": "flesh", "stimulus": "<p id=\"stim\">FLESH</p>", "conditions": [12, 800, "v", 12000], "internal_node_id": "0.0-115.0", "trial": 4, "time_elapsed": 736380, "serialpos": 3, "key_press": -1, "wordID": 578, "type": "PRES_VIS", "trial_index": 160}, "uniqueid": "MTK3266:3WI0P0II62ZMFI65FN6EVY5BD2DDR9", "dateTime": 1520285207059}, {"current_trial": 161, "trialdata": {"rt": -1, "trial_type": "single-stim", "word": "taxi", "stimulus": "<p id=\"stim\">TAXI</p>", "conditions": [12, 800, "v", 12000], "internal_node_id": "0.0-116.0", "trial": 4, "time_elapsed": 737997, "serialpos": 4, "key_press": -1, "wordID": 1437, "type": "PRES_VIS", "trial_index": 161}, "uniqueid": "MTK3266:3WI0P0II62ZMFI65FN6EVY5BD2DDR9", "dateTime": 1520285208676}, {"current_trial": 162, "trialdata": {"rt": -1, "trial_type": "single-stim", "word": "lodge", "stimulus": "<p id=\"stim\">LODGE</p>", "conditions": [12, 800, "v", 12000], "internal_node_id": "0.0-117.0", "trial": 4, "time_elapsed": 739738, "serialpos": 5, "key_press": -1, "wordID": 838, "type": "PRES_VIS", "trial_index": 162}, "uniqueid": "MTK3266:3WI0P0II62ZMFI65FN6EVY5BD2DDR9", "dateTime": 1520285210417}, {"current_trial": 163, "trialdata": {"rt": -1, "trial_type": "single-stim", "word": "freezer", "stimulus": "<p id=\"stim\">FREEZER</p>", "conditions": [12, 800, "v", 12000], "internal_node_id": "0.0-118.0", "trial": 4, "time_elapsed": 741441, "serialpos": 6, "key_press": -1, "wordID": 603, "type": "PRES_VIS", "trial_index": 163}, "uniqueid": "MTK3266:3WI0P0II62ZMFI65FN6EVY5BD2DDR9", "dateTime": 1520285212120}, {"current_trial": 164, "trialdata": {"rt": -1, "trial_type": "single-stim", "word": "fungus", "stimulus": "<p id=\"stim\">FUNGUS</p>", "conditions": [12, 800, "v", 12000], "internal_node_id": "0.0-119.0", "trial": 4, "time_elapsed": 743156, "serialpos": 7, "key_press": -1, "wordID": 613, "type": "PRES_VIS", "trial_index": 164}, "uniqueid": "MTK3266:3WI0P0II62ZMFI65FN6EVY5BD2DDR9", "dateTime": 1520285213835}, {"current_trial": 165, "trialdata": {"rt": -1, "trial_type": "single-stim", "word": "balloon", "stimulus": "<p id=\"stim\">BALLOON</p>", "conditions": [12, 800, "v", 12000], "internal_node_id": "0.0-120.0", "trial": 4, "time_elapsed": 744999, "serialpos": 8, "key_press": -1, "wordID": 74, "type": "PRES_VIS", "trial_index": 165}, "uniqueid": "MTK3266:3WI0P0II62ZMFI65FN6EVY5BD2DDR9", "dateTime": 1520285215679}, {"current_trial": 166, "trialdata": {"rt": -1, "trial_type": "single-stim", "word": "soda", "stimulus": "<p id=\"stim\">SODA</p>", "conditions": [12, 800, "v", 12000], "internal_node_id": "0.0-121.0", "trial": 4, "time_elapsed": 746784, "serialpos": 9, "key_press": -1, "wordID": 1340, "type": "PRES_VIS", "trial_index": 166}, "uniqueid": "MTK3266:3WI0P0II62ZMFI65FN6EVY5BD2DDR9", "dateTime": 1520285217463}, {"current_trial": 167, "trialdata": {"rt": -1, "trial_type": "single-stim", "word": "shortcake", "stimulus": "<p id=\"stim\">SHORTCAKE</p>", "conditions": [12, 800, "v", 12000], "internal_node_id": "0.0-122.0", "trial": 4, "time_elapsed": 748428, "serialpos": 10, "key_press": -1, "wordID": 1291, "type": "PRES_VIS", "trial_index": 167}, "uniqueid": "MTK3266:3WI0P0II62ZMFI65FN6EVY5BD2DDR9", "dateTime": 1520285219108}, {"current_trial": 168, "trialdata": {"rt": -1, "trial_type": "single-stim", "word": "pasta", "stimulus": "<p id=\"stim\">PASTA</p>", "conditions": [12, 800, "v", 12000], "internal_node_id": "0.0-123.0", "trial": 4, "time_elapsed": 750233, "serialpos": 11, "key_press": -1, "wordID": 1020, "type": "PRES_VIS", "trial_index": 168}, "uniqueid": "MTK3266:3WI0P0II62ZMFI65FN6EVY5BD2DDR9", "dateTime": 1520285220912}, {"current_trial": 169, "trialdata": {"rt": -1, "trial_type": "single-stim", "stimulus": "", "internal_node_id": "0.0-124.0-0.0", "time_elapsed": 752600, "key_press": -1, "type": "PRE_RECALL_DELAY", "trial_index": 169}, "uniqueid": "MTK3266:3WI0P0II62ZMFI65FN6EVY5BD2DDR9", "dateTime": 1520285223279}, {"current_trial": 170, "trialdata": {"rt": -1000, "trial_type": "single-audio", "stimulus": "/static/audio/400Hz.wav", "internal_node_id": "0.0-125.0", "time_elapsed": 753103, "key_press": -1, "type": "PRE_RECALL_ALERT", "trial_index": 170}, "uniqueid": "MTK3266:3WI0P0II62ZMFI65FN6EVY5BD2DDR9", "dateTime": 1520285223782}, {"current_trial": 171, "trialdata": {"rt": [1675, 3160, 4623, 6523, 7994, 27828], "recwords": ["soda", "pasta", "mildew", "shortcake", "lodge", "valley"], "key_times": [1116, 1266, 1425, 1494, 1675, 2156, 2257, 2459, 2644, 2916, 3160, 3671, 3816, 4009, 4089, 4359, 4425, 4623, 5126, 5237, 5390, 5462, 5623, 5941, 6102, 6223, 6331, 6523, 6897, 7087, 7135, 7379, 7592, 7994, 25864, 26077, 26244, 26396, 26782, 27229, 27401, 27528, 27828], "trial_type": "free-recall", "conditions": [12, 800, "v", 12000], "internal_node_id": "0.0-126.0-0.0", "key_presses": [83, 79, 68, 65, 13, 80, 65, 83, 84, 65, 13, 77, 73, 76, 68, 69, 87, 13, 83, 72, 79, 82, 84, 67, 65, 75, 69, 13, 76, 79, 68, 71, 69, 13, 86, 65, 76, 76, 89, 8, 69, 89, 13], "trial": 4, "time_elapsed": 813108, "type": "FREE_RECALL", "trial_index": 171}, "uniqueid": "MTK3266:3WI0P0II62ZMFI65FN6EVY5BD2DDR9", "dateTime": 1520285283792}, {"current_trial": 172, "trialdata": {"rt": 2163, "trial_type": "text", "internal_node_id": "0.0-127.0", "time_elapsed": 817278, "key_press": 32, "type": "INSTRUCTIONS", "trial_index": 172}, "uniqueid": "MTK3266:3WI0P0II62ZMFI65FN6EVY5BD2DDR9", "dateTime": 1520285287957}, {"current_trial": 173, "trialdata": {"rt": [3390, 6051, 10807, 13938, 16559, 21812], "trial_type": "math-distractor", "key_times": [2927, 3108, 3390, 5593, 5694, 6051, 10477, 10535, 10807, 13591, 13793, 13938, 16366, 16559, 21480, 21537, 21812], "responses": ["12", "10", "17", "14", "8", "17"], "num2": [7, 1, 4, 4, 3, 8, 7], "num3": [4, 7, 8, 2, 1, 5, 1], "conditions": [24, 1600, "v", 24000], "internal_node_id": "0.0-128.0", "key_presses": [49, 50, 13, 49, 48, 13, 49, 55, 13, 49, 52, 13, 56, 13, 49, 55, 13], "trial": 5, "time_elapsed": 843282, "type": "DISTRACTOR", "trial_index": 173, "num1": [2, 2, 5, 8, 4, 4, 8]}, "uniqueid": "MTK3266:3WI0P0II62ZMFI65FN6EVY5BD2DDR9", "dateTime": 1520285313961}, {"current_trial": 174, "trialdata": {"rt": -1, "trial_type": "single-stim", "stimulus": "<p id=\"stim\">10</p>", "internal_node_id": "0.0-129.0-0.0", "time_elapsed": 846288, "key_press": -1, "trial_index": 174}, "uniqueid": "MTK3266:3WI0P0II62ZMFI65FN6EVY5BD2DDR9", "dateTime": 1520285316967}, {"current_trial": 175, "trialdata": {"rt": -1, "trial_type": "single-stim", "stimulus": "<p id=\"stim\">9</p>", "internal_node_id": "0.0-129.0-1.0", "time_elapsed": 847292, "key_press": -1, "trial_index": 175}, "uniqueid": "MTK3266:3WI0P0II62ZMFI65FN6EVY5BD2DDR9", "dateTime": 1520285317971}, {"current_trial": 176, "trialdata": {"rt": -1, "trial_type": "single-stim", "stimulus": "<p id=\"stim\">8</p>", "internal_node_id": "0.0-129.0-2.0", "time_elapsed": 848293, "key_press": -1, "trial_index": 176}, "uniqueid": "MTK3266:3WI0P0II62ZMFI65FN6EVY5BD2DDR9", "dateTime": 1520285318972}, {"current_trial": 177, "trialdata": {"rt": -1, "trial_type": "single-stim", "stimulus": "<p id=\"stim\">7</p>", "internal_node_id": "0.0-129.0-3.0", "time_elapsed": 849296, "key_press": -1, "trial_index": 177}, "uniqueid": "MTK3266:3WI0P0II62ZMFI65FN6EVY5BD2DDR9", "dateTime": 1520285319975}, {"current_trial": 178, "trialdata": {"rt": -1, "trial_type": "single-stim", "stimulus": "<p id=\"stim\">6</p>", "internal_node_id": "0.0-129.0-4.0", "time_elapsed": 850299, "key_press": -1, "trial_index": 178}, "uniqueid": "MTK3266:3WI0P0II62ZMFI65FN6EVY5BD2DDR9", "dateTime": 1520285320979}, {"current_trial": 179, "trialdata": {"rt": -1, "trial_type": "single-stim", "stimulus": "<p id=\"stim\">5</p>", "internal_node_id": "0.0-129.0-5.0", "time_elapsed": 851301, "key_press": -1, "trial_index": 179}, "uniqueid": "MTK3266:3WI0P0II62ZMFI65FN6EVY5BD2DDR9", "dateTime": 1520285321980}, {"current_trial": 180, "trialdata": {"rt": -1, "trial_type": "single-stim", "stimulus": "<p id=\"stim\">4</p>", "internal_node_id": "0.0-129.0-6.0", "time_elapsed": 852303, "key_press": -1, "trial_index": 180}, "uniqueid": "MTK3266:3WI0P0II62ZMFI65FN6EVY5BD2DDR9", "dateTime": 1520285322982}, {"current_trial": 181, "trialdata": {"rt": -1, "trial_type": "single-stim", "stimulus": "<p id=\"stim\">3</p>", "internal_node_id": "0.0-129.0-7.0", "time_elapsed": 853306, "key_press": -1, "trial_index": 181}, "uniqueid": "MTK3266:3WI0P0II62ZMFI65FN6EVY5BD2DDR9", "dateTime": 1520285323985}, {"current_trial": 182, "trialdata": {"rt": -1, "trial_type": "single-stim", "stimulus": "<p id=\"stim\">2</p>", "internal_node_id": "0.0-129.0-8.0", "time_elapsed": 854308, "key_press": -1, "trial_index": 182}, "uniqueid": "MTK3266:3WI0P0II62ZMFI65FN6EVY5BD2DDR9", "dateTime": 1520285324987}, {"current_trial": 183, "trialdata": {"rt": -1, "trial_type": "single-stim", "stimulus": "<p id=\"stim\">1</p>", "internal_node_id": "0.0-129.0-9.0", "time_elapsed": 855308, "key_press": -1, "trial_index": 183}, "uniqueid": "MTK3266:3WI0P0II62ZMFI65FN6EVY5BD2DDR9", "dateTime": 1520285325988}, {"current_trial": 184, "trialdata": {"rt": -1, "trial_type": "single-stim", "stimulus": "<p id=\"stim\">+</p>", "internal_node_id": "0.0-130.0-0.0", "time_elapsed": 856810, "key_press": -1, "type": "FIXATION", "trial_index": 184}, "uniqueid": "MTK3266:3WI0P0II62ZMFI65FN6EVY5BD2DDR9", "dateTime": 1520285327490}, {"current_trial": 185, "trialdata": {"rt": -1, "trial_type": "single-stim", "word": "rooster", "stimulus": "<p id=\"stim\">ROOSTER</p>", "conditions": [24, 1600, "v", 24000], "internal_node_id": "0.0-131.0", "trial": 5, "time_elapsed": 858413, "serialpos": 0, "key_press": -1, "wordID": 1208, "type": "PRES_VIS", "trial_index": 185}, "uniqueid": "MTK3266:3WI0P0II62ZMFI65FN6EVY5BD2DDR9", "dateTime": 1520285329093}, {"current_trial": 186, "trialdata": {"rt": -1, "trial_type": "single-stim", "word": "rabbit", "stimulus": "<p id=\"stim\">RABBIT</p>", "conditions": [24, 1600, "v", 24000], "internal_node_id": "0.0-132.0", "trial": 5, "time_elapsed": 861007, "serialpos": 1, "key_press": -1, "wordID": 1151, "type": "PRES_VIS", "trial_index": 186}, "uniqueid": "MTK3266:3WI0P0II62ZMFI65FN6EVY5BD2DDR9", "dateTime": 1520285331686}, {"current_trial": 187, "trialdata": {"rt": -1, "trial_type": "single-stim", "word": "wife", "stimulus": "<p id=\"stim\">WIFE</p>", "conditions": [24, 1600, "v", 24000], "internal_node_id": "0.0-133.0", "trial": 5, "time_elapsed": 863555, "serialpos": 2, "key_press": -1, "wordID": 1608, "type": "PRES_VIS", "trial_index": 187}, "uniqueid": "MTK3266:3WI0P0II62ZMFI65FN6EVY5BD2DDR9", "dateTime": 1520285334234}, {"current_trial": 188, "trialdata": {"rt": -1, "trial_type": "single-stim", "word": "hornet", "stimulus": "<p id=\"stim\">HORNET</p>", "conditions": [24, 1600, "v", 24000], "internal_node_id": "0.0-134.0", "trial": 5, "time_elapsed": 866068, "serialpos": 3, "key_press": -1, "wordID": 717, "type": "PRES_VIS", "trial_index": 188}, "uniqueid": "MTK3266:3WI0P0II62ZMFI65FN6EVY5BD2DDR9", "dateTime": 1520285336747}, {"current_trial": 189, "trialdata": {"rt": -1, "trial_type": "single-stim", "word": "compass", "stimulus": "<p id=\"stim\">COMPASS</p>", "conditions": [24, 1600, "v", 24000], "internal_node_id": "0.0-135.0", "trial": 5, "time_elapsed": 868494, "serialpos": 4, "key_press": -1, "wordID": 357, "type": "PRES_VIS", "trial_index": 189}, "uniqueid": "MTK3266:3WI0P0II62ZMFI65FN6EVY5BD2DDR9", "dateTime": 1520285339173}, {"current_trial": 190, "trialdata": {"rt": -1, "trial_type": "single-stim", "word": "scallop", "stimulus": "<p id=\"stim\">SCALLOP</p>", "conditions": [24, 1600, "v", 24000], "internal_node_id": "0.0-136.0", "trial": 5, "time_elapsed": 871056, "serialpos": 5, "key_press": -1, "wordID": 1241, "type": "PRES_VIS", "trial_index": 190}, "uniqueid": "MTK3266:3WI0P0II62ZMFI65FN6EVY5BD2DDR9", "dateTime": 1520285341735}, {"current_trial": 191, "trialdata": {"rt": -1, "trial_type": "single-stim", "word": "perch", "stimulus": "<p id=\"stim\">PERCH</p>", "conditions": [24, 1600, "v", 24000], "internal_node_id": "0.0-137.0", "trial": 5, "time_elapsed": 873738, "serialpos": 6, "key_press": -1, "wordID": 1047, "type": "PRES_VIS", "trial_index": 191}, "uniqueid": "MTK3266:3WI0P0II62ZMFI65FN6EVY5BD2DDR9", "dateTime": 1520285344417}, {"current_trial": 192, "trialdata": {"rt": -1, "trial_type": "single-stim", "word": "ground", "stimulus": "<p id=\"stim\">GROUND</p>", "conditions": [24, 1600, "v", 24000], "internal_node_id": "0.0-138.0", "trial": 5, "time_elapsed": 876163, "serialpos": 7, "key_press": -1, "wordID": 665, "type": "PRES_VIS", "trial_index": 192}, "uniqueid": "MTK3266:3WI0P0II62ZMFI65FN6EVY5BD2DDR9", "dateTime": 1520285346842}, {"current_trial": 193, "trialdata": {"rt": -1, "trial_type": "single-stim", "word": "shovel", "stimulus": "<p id=\"stim\">SHOVEL</p>", "conditions": [24, 1600, "v", 24000], "internal_node_id": "0.0-139.0", "trial": 5, "time_elapsed": 878906, "serialpos": 8, "key_press": -1, "wordID": 1294, "type": "PRES_VIS", "trial_index": 193}, "uniqueid": "MTK3266:3WI0P0II62ZMFI65FN6EVY5BD2DDR9", "dateTime": 1520285349585}, {"current_trial": 194, "trialdata": {"rt": -1, "trial_type": "single-stim", "word": "cod", "stimulus": "<p id=\"stim\">COD</p>", "conditions": [24, 1600, "v", 24000], "internal_node_id": "0.0-140.0", "trial": 5, "time_elapsed": 881502, "serialpos": 9, "key_press": -1, "wordID": 339, "type": "PRES_VIS", "trial_index": 194}, "uniqueid": "MTK3266:3WI0P0II62ZMFI65FN6EVY5BD2DDR9", "dateTime": 1520285352181}, {"current_trial": 195, "trialdata": {"rt": -1, "trial_type": "single-stim", "word": "scalpel", "stimulus": "<p id=\"stim\">SCALPEL</p>", "conditions": [24, 1600, "v", 24000], "internal_node_id": "0.0-141.0", "trial": 5, "time_elapsed": 884115, "serialpos": 10, "key_press": -1, "wordID": 1242, "type": "PRES_VIS", "trial_index": 195}, "uniqueid": "MTK3266:3WI0P0II62ZMFI65FN6EVY5BD2DDR9", "dateTime": 1520285354794}, {"current_trial": 196, "trialdata": {"rt": -1, "trial_type": "single-stim", "word": "casket", "stimulus": "<p id=\"stim\">CASKET</p>", "conditions": [24, 1600, "v", 24000], "internal_node_id": "0.0-142.0", "trial": 5, "time_elapsed": 886633, "serialpos": 11, "key_press": -1, "wordID": 254, "type": "PRES_VIS", "trial_index": 196}, "uniqueid": "MTK3266:3WI0P0II62ZMFI65FN6EVY5BD2DDR9", "dateTime": 1520285357312}, {"current_trial": 197, "trialdata": {"rt": -1, "trial_type": "single-stim", "word": "concert", "stimulus": "<p id=\"stim\">CONCERT</p>", "conditions": [24, 1600, "v", 24000], "internal_node_id": "0.0-143.0", "trial": 5, "time_elapsed": 889155, "serialpos": 12, "key_press": -1, "wordID": 359, "type": "PRES_VIS", "trial_index": 197}, "uniqueid": "MTK3266:3WI0P0II62ZMFI65FN6EVY5BD2DDR9", "dateTime": 1520285359834}, {"current_trial": 198, "trialdata": {"rt": -1, "trial_type": "single-stim", "word": "bike", "stimulus": "<p id=\"stim\">BIKE</p>", "conditions": [24, 1600, "v", 24000], "internal_node_id": "0.0-144.0", "trial": 5, "time_elapsed": 891675, "serialpos": 13, "key_press": -1, "wordID": 124, "type": "PRES_VIS", "trial_index": 198}, "uniqueid": "MTK3266:3WI0P0II62ZMFI65FN6EVY5BD2DDR9", "dateTime": 1520285362354}, {"current_trial": 199, "trialdata": {"rt": -1, "trial_type": "single-stim", "word": "bunny", "stimulus": "<p id=\"stim\">BUNNY</p>", "conditions": [24, 1600, "v", 24000], "internal_node_id": "0.0-145.0", "trial": 5, "time_elapsed": 894227, "serialpos": 14, "key_press": -1, "wordID": 197, "type": "PRES_VIS", "trial_index": 199}, "uniqueid": "MTK3266:3WI0P0II62ZMFI65FN6EVY5BD2DDR9", "dateTime": 1520285364906}, {"current_trial": 200, "trialdata": {"rt": -1, "trial_type": "single-stim", "word": "blueprint", "stimulus": "<p id=\"stim\">BLUEPRINT</p>", "conditions": [24, 1600, "v", 24000], "internal_node_id": "0.0-146.0", "trial": 5, "time_elapsed": 896651, "serialpos": 15, "key_press": -1, "wordID": 141, "type": "PRES_VIS", "trial_index": 200}, "uniqueid": "MTK3266:3WI0P0II62ZMFI65FN6EVY5BD2DDR9", "dateTime": 1520285367330}, {"current_trial": 201, "trialdata": {"rt": -1, "trial_type": "single-stim", "word": "student", "stimulus": "<p id=\"stim\">STUDENT</p>", "conditions": [24, 1600, "v", 24000], "internal_node_id": "0.0-147.0", "trial": 5, "time_elapsed": 899357, "serialpos": 16, "key_press": -1, "wordID": 1394, "type": "PRES_VIS", "trial_index": 201}, "uniqueid": "MTK3266:3WI0P0II62ZMFI65FN6EVY5BD2DDR9", "dateTime": 1520285370037}, {"current_trial": 202, "trialdata": {"rt": -1, "trial_type": "single-stim", "word": "gazelle", "stimulus": "<p id=\"stim\">GAZELLE</p>", "conditions": [24, 1600, "v", 24000], "internal_node_id": "0.0-148.0", "trial": 5, "time_elapsed": 902035, "serialpos": 17, "key_press": -1, "wordID": 627, "type": "PRES_VIS", "trial_index": 202}, "uniqueid": "MTK3266:3WI0P0II62ZMFI65FN6EVY5BD2DDR9", "dateTime": 1520285372714}, {"current_trial": 203, "trialdata": {"rt": -1, "trial_type": "single-stim", "word": "trout", "stimulus": "<p id=\"stim\">TROUT</p>", "conditions": [24, 1600, "v", 24000], "internal_node_id": "0.0-149.0", "trial": 5, "time_elapsed": 904576, "serialpos": 18, "key_press": -1, "wordID": 1510, "type": "PRES_VIS", "trial_index": 203}, "uniqueid": "MTK3266:3WI0P0II62ZMFI65FN6EVY5BD2DDR9", "dateTime": 1520285375255}, {"current_trial": 204, "trialdata": {"rt": -1, "trial_type": "single-stim", "word": "lamp", "stimulus": "<p id=\"stim\">LAMP</p>", "conditions": [24, 1600, "v", 24000], "internal_node_id": "0.0-150.0", "trial": 5, "time_elapsed": 907162, "serialpos": 19, "key_press": -1, "wordID": 797, "type": "PRES_VIS", "trial_index": 204}, "uniqueid": "MTK3266:3WI0P0II62ZMFI65FN6EVY5BD2DDR9", "dateTime": 1520285377841}, {"current_trial": 205, "trialdata": {"rt": -1, "trial_type": "single-stim", "word": "kidney", "stimulus": "<p id=\"stim\">KIDNEY</p>", "conditions": [24, 1600, "v", 24000], "internal_node_id": "0.0-151.0", "trial": 5, "time_elapsed": 909829, "serialpos": 20, "key_press": -1, "wordID": 775, "type": "PRES_VIS", "trial_index": 205}, "uniqueid": "MTK3266:3WI0P0II62ZMFI65FN6EVY5BD2DDR9", "dateTime": 1520285380508}, {"current_trial": 206, "trialdata": {"rt": -1, "trial_type": "single-stim", "word": "liver", "stimulus": "<p id=\"stim\">LIVER</p>", "conditions": [24, 1600, "v", 24000], "internal_node_id": "0.0-152.0", "trial": 5, "time_elapsed": 912618, "serialpos": 21, "key_press": -1, "wordID": 832, "type": "PRES_VIS", "trial_index": 206}, "uniqueid": "MTK3266:3WI0P0II62ZMFI65FN6EVY5BD2DDR9", "dateTime": 1520285383297}, {"current_trial": 207, "trialdata": {"rt": -1, "trial_type": "single-stim", "word": "teacher", "stimulus": "<p id=\"stim\">TEACHER</p>", "conditions": [24, 1600, "v", 24000], "internal_node_id": "0.0-153.0", "trial": 5, "time_elapsed": 915030, "serialpos": 22, "key_press": -1, "wordID": 1439, "type": "PRES_VIS", "trial_index": 207}, "uniqueid": "MTK3266:3WI0P0II62ZMFI65FN6EVY5BD2DDR9", "dateTime": 1520285385709}, {"current_trial": 208, "trialdata": {"rt": -1, "trial_type": "single-stim", "word": "custard", "stimulus": "<p id=\"stim\">CUSTARD</p>", "conditions": [24, 1600, "v", 24000], "internal_node_id": "0.0-154.0", "trial": 5, "time_elapsed": 917502, "serialpos": 23, "key_press": -1, "wordID": 428, "type": "PRES_VIS", "trial_index": 208}, "uniqueid": "MTK3266:3WI0P0II62ZMFI65FN6EVY5BD2DDR9", "dateTime": 1520285388181}, {"current_trial": 209, "trialdata": {"rt": -1, "trial_type": "single-stim", "stimulus": "", "internal_node_id": "0.0-155.0-0.0", "time_elapsed": 919805, "key_press": -1, "type": "PRE_RECALL_DELAY", "trial_index": 209}, "uniqueid": "MTK3266:3WI0P0II62ZMFI65FN6EVY5BD2DDR9", "dateTime": 1520285390484}, {"current_trial": 210, "trialdata": {"rt": -1000, "trial_type": "single-audio", "stimulus": "/static/audio/400Hz.wav", "internal_node_id": "0.0-156.0", "time_elapsed": 920308, "key_press": -1, "type": "PRE_RECALL_ALERT", "trial_index": 210}, "uniqueid": "MTK3266:3WI0P0II62ZMFI65FN6EVY5BD2DDR9", "dateTime": 1520285390987}, {"current_trial": 211, "trialdata": {"rt": [2359, 4312, 5657, 6673, 7931, 9170, 11155, 13072, 15182, 16258, 21913], "recwords": ["custard", "student", "teacher", "ground", "cod", "trout", "rooster", "perch", "kidney", "liver", "blueprint"], "key_times": [917, 1087, 1343, 1543, 1718, 1813, 2063, 2359, 2962, 3093, 3212, 3323, 3425, 3939, 4126, 4312, 4722, 4922, 4990, 5167, 5317, 5396, 5456, 5657, 5967, 6065, 6161, 6220, 6398, 6483, 6673, 7446, 7635, 7749, 7931, 8491, 8661, 8752, 8815, 8930, 9170, 9831, 10130, 10280, 10336, 10427, 10614, 10694, 11155, 11859, 11951, 12036, 12302, 12392, 13072, 14305, 14477, 14514, 14699, 14801, 14921, 15182, 15491, 15729, 15793, 16009, 16099, 16258, 20582, 20732, 20918, 21029, 21198, 21298, 21498, 21561, 21660, 21913], "trial_type": "free-recall", "conditions": [24, 1600, "v", 24000], "internal_node_id": "0.0-157.0-0.0", "key_presses": [67, 85, 83, 84, 65, 82, 68, 13, 83, 84, 85, 68, 69, 78, 84, 13, 84, 69, 65, 67, 72, 69, 82, 13, 71, 82, 79, 85, 78, 68, 13, 67, 79, 68, 13, 84, 82, 79, 85, 84, 13, 82, 79, 79, 83, 84, 69, 82, 13, 80, 69, 82, 67, 72, 13, 75, 73, 68, 78, 69, 89, 13, 76, 73, 86, 69, 82, 13, 66, 76, 85, 69, 80, 82, 73, 78, 84, 13], "trial": 5, "time_elapsed": 980311, "type": "FREE_RECALL", "trial_index": 211}, "uniqueid": "MTK3266:3WI0P0II62ZMFI65FN6EVY5BD2DDR9", "dateTime": 1520285450998}, {"current_trial": 212, "trialdata": {"rt": 1264, "trial_type": "text", "internal_node_id": "0.0-158.0", "time_elapsed": 983585, "key_press": 32, "type": "INSTRUCTIONS", "trial_index": 212}, "uniqueid": "MTK3266:3WI0P0II62ZMFI65FN6EVY5BD2DDR9", "dateTime": 1520285454264}, {"current_trial": 213, "trialdata": {"rt": [4595, 9050, 11328, 13661, 17439, 19527], "trial_type": "math-distractor", "key_times": [4266, 4351, 4595, 8708, 8906, 9050, 11004, 11162, 11328, 13257, 13483, 13661, 16900, 17296, 17439, 19021, 19172, 19527], "responses": ["24", "14", "11", "14", "14", "11"], "num2": [7, 5, 4, 2, 6, 9, 3], "num3": [8, 2, 1, 3, 3, 1, 6], "conditions": [12, 1600, "v", 24000], "internal_node_id": "0.0-159.0", "key_presses": [50, 52, 13, 49, 52, 13, 49, 49, 13, 49, 52, 13, 49, 52, 13, 49, 49, 13], "trial": 6, "time_elapsed": 1009592, "type": "DISTRACTOR", "trial_index": 213, "num1": [9, 7, 6, 9, 5, 1, 4]}, "uniqueid": "MTK3266:3WI0P0II62ZMFI65FN6EVY5BD2DDR9", "dateTime": 1520285480271}, {"current_trial": 214, "trialdata": {"rt": -1, "trial_type": "single-stim", "stimulus": "<p id=\"stim\">10</p>", "internal_node_id": "0.0-160.0-0.0", "time_elapsed": 1012593, "key_press": -1, "trial_index": 214}, "uniqueid": "MTK3266:3WI0P0II62ZMFI65FN6EVY5BD2DDR9", "dateTime": 1520285483273}, {"current_trial": 215, "trialdata": {"rt": -1, "trial_type": "single-stim", "stimulus": "<p id=\"stim\">9</p>", "internal_node_id": "0.0-160.0-1.0", "time_elapsed": 1013595, "key_press": -1, "trial_index": 215}, "uniqueid": "MTK3266:3WI0P0II62ZMFI65FN6EVY5BD2DDR9", "dateTime": 1520285484274}, {"current_trial": 216, "trialdata": {"rt": -1, "trial_type": "single-stim", "stimulus": "<p id=\"stim\">8</p>", "internal_node_id": "0.0-160.0-2.0", "time_elapsed": 1014599, "key_press": -1, "trial_index": 216}, "uniqueid": "MTK3266:3WI0P0II62ZMFI65FN6EVY5BD2DDR9", "dateTime": 1520285485278}, {"current_trial": 217, "trialdata": {"rt": -1, "trial_type": "single-stim", "stimulus": "<p id=\"stim\">7</p>", "internal_node_id": "0.0-160.0-3.0", "time_elapsed": 1015600, "key_press": -1, "trial_index": 217}, "uniqueid": "MTK3266:3WI0P0II62ZMFI65FN6EVY5BD2DDR9", "dateTime": 1520285486279}, {"current_trial": 218, "trialdata": {"rt": -1, "trial_type": "single-stim", "stimulus": "<p id=\"stim\">6</p>", "internal_node_id": "0.0-160.0-4.0", "time_elapsed": 1016602, "key_press": -1, "trial_index": 218}, "uniqueid": "MTK3266:3WI0P0II62ZMFI65FN6EVY5BD2DDR9", "dateTime": 1520285487281}, {"current_trial": 219, "trialdata": {"rt": -1, "trial_type": "single-stim", "stimulus": "<p id=\"stim\">5</p>", "internal_node_id": "0.0-160.0-5.0", "time_elapsed": 1017606, "key_press": -1, "trial_index": 219}, "uniqueid": "MTK3266:3WI0P0II62ZMFI65FN6EVY5BD2DDR9", "dateTime": 1520285488285}, {"current_trial": 220, "trialdata": {"rt": -1, "trial_type": "single-stim", "stimulus": "<p id=\"stim\">4</p>", "internal_node_id": "0.0-160.0-6.0", "time_elapsed": 1018607, "key_press": -1, "trial_index": 220}, "uniqueid": "MTK3266:3WI0P0II62ZMFI65FN6EVY5BD2DDR9", "dateTime": 1520285489286}, {"current_trial": 221, "trialdata": {"rt": -1, "trial_type": "single-stim", "stimulus": "<p id=\"stim\">3</p>", "internal_node_id": "0.0-160.0-7.0", "time_elapsed": 1019609, "key_press": -1, "trial_index": 221}, "uniqueid": "MTK3266:3WI0P0II62ZMFI65FN6EVY5BD2DDR9", "dateTime": 1520285490288}, {"current_trial": 222, "trialdata": {"rt": -1, "trial_type": "single-stim", "stimulus": "<p id=\"stim\">2</p>", "internal_node_id": "0.0-160.0-8.0", "time_elapsed": 1020611, "key_press": -1, "trial_index": 222}, "uniqueid": "MTK3266:3WI0P0II62ZMFI65FN6EVY5BD2DDR9", "dateTime": 1520285491290}, {"current_trial": 223, "trialdata": {"rt": -1, "trial_type": "single-stim", "stimulus": "<p id=\"stim\">1</p>", "internal_node_id": "0.0-160.0-9.0", "time_elapsed": 1021613, "key_press": -1, "trial_index": 223}, "uniqueid": "MTK3266:3WI0P0II62ZMFI65FN6EVY5BD2DDR9", "dateTime": 1520285492292}, {"current_trial": 224, "trialdata": {"rt": -1, "trial_type": "single-stim", "stimulus": "<p id=\"stim\">+</p>", "internal_node_id": "0.0-161.0-0.0", "time_elapsed": 1023116, "key_press": -1, "type": "FIXATION", "trial_index": 224}, "uniqueid": "MTK3266:3WI0P0II62ZMFI65FN6EVY5BD2DDR9", "dateTime": 1520285493795}, {"current_trial": 225, "trialdata": {"rt": -1, "trial_type": "single-stim", "word": "child", "stimulus": "<p id=\"stim\">CHILD</p>", "conditions": [12, 1600, "v", 24000], "internal_node_id": "0.0-162.0", "trial": 6, "time_elapsed": 1024718, "serialpos": 0, "key_press": -1, "wordID": 298, "type": "PRES_VIS", "trial_index": 225}, "uniqueid": "MTK3266:3WI0P0II62ZMFI65FN6EVY5BD2DDR9", "dateTime": 1520285495397}, {"current_trial": 226, "trialdata": {"rt": -1, "trial_type": "single-stim", "word": "nomad", "stimulus": "<p id=\"stim\">NOMAD</p>", "conditions": [12, 1600, "v", 24000], "internal_node_id": "0.0-163.0", "trial": 6, "time_elapsed": 1027273, "serialpos": 1, "key_press": -1, "wordID": 954, "type": "PRES_VIS", "trial_index": 226}, "uniqueid": "MTK3266:3WI0P0II62ZMFI65FN6EVY5BD2DDR9", "dateTime": 1520285497952}, {"current_trial": 227, "trialdata": {"rt": -1, "trial_type": "single-stim", "word": "tractor", "stimulus": "<p id=\"stim\">TRACTOR</p>", "conditions": [12, 1600, "v", 24000], "internal_node_id": "0.0-164.0", "trial": 6, "time_elapsed": 1030001, "serialpos": 2, "key_press": -1, "wordID": 1492, "type": "PRES_VIS", "trial_index": 227}, "uniqueid": "MTK3266:3WI0P0II62ZMFI65FN6EVY5BD2DDR9", "dateTime": 1520285500680}, {"current_trial": 228, "trialdata": {"rt": -1, "trial_type": "single-stim", "word": "parsley", "stimulus": "<p id=\"stim\">PARSLEY</p>", "conditions": [12, 1600, "v", 24000], "internal_node_id": "0.0-165.0", "trial": 6, "time_elapsed": 1032748, "serialpos": 3, "key_press": -1, "wordID": 1015, "type": "PRES_VIS", "trial_index": 228}, "uniqueid": "MTK3266:3WI0P0II62ZMFI65FN6EVY5BD2DDR9", "dateTime": 1520285503427}, {"current_trial": 229, "trialdata": {"rt": -1, "trial_type": "single-stim", "word": "portrait", "stimulus": "<p id=\"stim\">PORTRAIT</p>", "conditions": [12, 1600, "v", 24000], "internal_node_id": "0.0-166.0", "trial": 6, "time_elapsed": 1035168, "serialpos": 4, "key_press": -1, "wordID": 1110, "type": "PRES_VIS", "trial_index": 229}, "uniqueid": "MTK3266:3WI0P0II62ZMFI65FN6EVY5BD2DDR9", "dateTime": 1520285505847}, {"current_trial": 230, "trialdata": {"rt": -1, "trial_type": "single-stim", "word": "statue", "stimulus": "<p id=\"stim\">STATUE</p>", "conditions": [12, 1600, "v", 24000], "internal_node_id": "0.0-167.0", "trial": 6, "time_elapsed": 1037927, "serialpos": 5, "key_press": -1, "wordID": 1373, "type": "PRES_VIS", "trial_index": 230}, "uniqueid": "MTK3266:3WI0P0II62ZMFI65FN6EVY5BD2DDR9", "dateTime": 1520285508608}, {"current_trial": 231, "trialdata": {"rt": -1, "trial_type": "single-stim", "word": "tombstone", "stimulus": "<p id=\"stim\">TOMBSTONE</p>", "conditions": [12, 1600, "v", 24000], "internal_node_id": "0.0-168.0", "trial": 6, "time_elapsed": 1040616, "serialpos": 6, "key_press": -1, "wordID": 1477, "type": "PRES_VIS", "trial_index": 231}, "uniqueid": "MTK3266:3WI0P0II62ZMFI65FN6EVY5BD2DDR9", "dateTime": 1520285511296}, {"current_trial": 232, "trialdata": {"rt": -1, "trial_type": "single-stim", "word": "cabbage", "stimulus": "<p id=\"stim\">CABBAGE</p>", "conditions": [12, 1600, "v", 24000], "internal_node_id": "0.0-169.0", "trial": 6, "time_elapsed": 1043090, "serialpos": 7, "key_press": -1, "wordID": 209, "type": "PRES_VIS", "trial_index": 232}, "uniqueid": "MTK3266:3WI0P0II62ZMFI65FN6EVY5BD2DDR9", "dateTime": 1520285513769}, {"current_trial": 233, "trialdata": {"rt": -1, "trial_type": "single-stim", "word": "farmer", "stimulus": "<p id=\"stim\">FARMER</p>", "conditions": [12, 1600, "v", 24000], "internal_node_id": "0.0-170.0", "trial": 6, "time_elapsed": 1045707, "serialpos": 8, "key_press": -1, "wordID": 552, "type": "PRES_VIS", "trial_index": 233}, "uniqueid": "MTK3266:3WI0P0II62ZMFI65FN6EVY5BD2DDR9", "dateTime": 1520285516386}, {"current_trial": 234, "trialdata": {"rt": -1, "trial_type": "single-stim", "word": "tourist", "stimulus": "<p id=\"stim\">TOURIST</p>", "conditions": [12, 1600, "v", 24000], "internal_node_id": "0.0-171.0", "trial": 6, "time_elapsed": 1048187, "serialpos": 9, "key_press": -1, "wordID": 1487, "type": "PRES_VIS", "trial_index": 234}, "uniqueid": "MTK3266:3WI0P0II62ZMFI65FN6EVY5BD2DDR9", "dateTime": 1520285518867}, {"current_trial": 235, "trialdata": {"rt": -1, "trial_type": "single-stim", "word": "guitar", "stimulus": "<p id=\"stim\">GUITAR</p>", "conditions": [12, 1600, "v", 24000], "internal_node_id": "0.0-172.0", "trial": 6, "time_elapsed": 1050599, "serialpos": 10, "key_press": -1, "wordID": 669, "type": "PRES_VIS", "trial_index": 235}, "uniqueid": "MTK3266:3WI0P0II62ZMFI65FN6EVY5BD2DDR9", "dateTime": 1520285521278}, {"current_trial": 236, "trialdata": {"rt": -1, "trial_type": "single-stim", "word": "shrub", "stimulus": "<p id=\"stim\">SHRUB</p>", "conditions": [12, 1600, "v", 24000], "internal_node_id": "0.0-173.0", "trial": 6, "time_elapsed": 1053209, "serialpos": 11, "key_press": -1, "wordID": 1298, "type": "PRES_VIS", "trial_index": 236}, "uniqueid": "MTK3266:3WI0P0II62ZMFI65FN6EVY5BD2DDR9", "dateTime": 1520285523889}, {"current_trial": 237, "trialdata": {"rt": -1, "trial_type": "single-stim", "stimulus": "", "internal_node_id": "0.0-174.0-0.0", "time_elapsed": 1055579, "key_press": -1, "type": "PRE_RECALL_DELAY", "trial_index": 237}, "uniqueid": "MTK3266:3WI0P0II62ZMFI65FN6EVY5BD2DDR9", "dateTime": 1520285526258}, {"current_trial": 238, "trialdata": {"rt": -1000, "trial_type": "single-audio", "stimulus": "/static/audio/400Hz.wav", "internal_node_id": "0.0-175.0", "time_elapsed": 1056083, "key_press": -1, "type": "PRE_RECALL_ALERT", "trial_index": 238}, "uniqueid": "MTK3266:3WI0P0II62ZMFI65FN6EVY5BD2DDR9", "dateTime": 1520285526762}, {"current_trial": 239, "trialdata": {"rt": [1913, 3491, 4476, 5987, 9943, 11512, 23411, 27155], "recwords": ["shrub", "tractor", "farmer", "child", "parsley", "guitar", "cabbage", "tombstone"], "key_times": [525, 1027, 1222, 1564, 1706, 1913, 2411, 2590, 2671, 2874, 3099, 3192, 3294, 3491, 3785, 3943, 4046, 4182, 4262, 4331, 4476, 5202, 5287, 5371, 5574, 5675, 5987, 6464, 6592, 6774, 8915, 9242, 9379, 9492, 9943, 10506, 10648, 10808, 10882, 11118, 11248, 11512, 22181, 22324, 22566, 22710, 22888, 23081, 23149, 23411, 25119, 25254, 25345, 25450, 26353, 26475, 26669, 26797, 26911, 27155], "trial_type": "free-recall", "conditions": [12, 1600, "v", 24000], "internal_node_id": "0.0-176.0-0.0", "key_presses": [83, 72, 82, 85, 66, 13, 84, 82, 65, 67, 84, 79, 82, 13, 70, 65, 82, 77, 69, 82, 13, 67, 72, 73, 76, 68, 13, 80, 65, 82, 83, 76, 69, 89, 13, 71, 85, 73, 84, 65, 82, 13, 67, 65, 66, 66, 65, 71, 69, 13, 84, 79, 77, 66, 83, 84, 79, 78, 69, 13], "trial": 6, "time_elapsed": 1116087, "type": "FREE_RECALL", "trial_index": 239}, "uniqueid": "MTK3266:3WI0P0II62ZMFI65FN6EVY5BD2DDR9", "dateTime": 1520285586774}, {"current_trial": 240, "trialdata": {"rt": 1648, "trial_type": "text", "internal_node_id": "0.0-177.0", "time_elapsed": 1119746, "key_press": 32, "type": "INSTRUCTIONS", "trial_index": 240}, "uniqueid": "MTK3266:3WI0P0II62ZMFI65FN6EVY5BD2DDR9", "dateTime": 1520285590425}, {"current_trial": 241, "trialdata": {"rt": [4858, 8807, 12751, 15687, 19196, 22470], "trial_type": "math-distractor", "key_times": [4559, 4667, 4858, 8438, 8533, 8807, 12288, 12564, 12751, 14915, 15485, 15687, 18786, 18938, 19196, 22118, 22199, 22470], "responses": ["13", "18", "15", "15", "20", "20"], "num2": [6, 6, 6, 5, 9, 8, 7], "num3": [1, 9, 4, 1, 5, 2, 3], "conditions": [12, 1600, "v", 24000], "internal_node_id": "0.0-178.0", "key_presses": [49, 51, 13, 49, 56, 13, 49, 53, 13, 49, 53, 13, 50, 48, 13, 50, 48, 13], "trial": 7, "time_elapsed": 1145751, "type": "DISTRACTOR", "trial_index": 241, "num1": [3, 4, 5, 9, 6, 9, 2]}, "uniqueid": "MTK3266:3WI0P0II62ZMFI65FN6EVY5BD2DDR9", "dateTime": 1520285616431}, {"current_trial": 242, "trialdata": {"rt": -1, "trial_type": "single-stim", "stimulus": "<p id=\"stim\">10</p>", "internal_node_id": "0.0-179.0-0.0", "time_elapsed": 1148754, "key_press": -1, "trial_index": 242}, "uniqueid": "MTK3266:3WI0P0II62ZMFI65FN6EVY5BD2DDR9", "dateTime": 1520285619433}, {"current_trial": 243, "trialdata": {"rt": -1, "trial_type": "single-stim", "stimulus": "<p id=\"stim\">9</p>", "internal_node_id": "0.0-179.0-1.0", "time_elapsed": 1149755, "key_press": -1, "trial_index": 243}, "uniqueid": "MTK3266:3WI0P0II62ZMFI65FN6EVY5BD2DDR9", "dateTime": 1520285620434}, {"current_trial": 244, "trialdata": {"rt": -1, "trial_type": "single-stim", "stimulus": "<p id=\"stim\">8</p>", "internal_node_id": "0.0-179.0-2.0", "time_elapsed": 1150757, "key_press": -1, "trial_index": 244}, "uniqueid": "MTK3266:3WI0P0II62ZMFI65FN6EVY5BD2DDR9", "dateTime": 1520285621436}, {"current_trial": 245, "trialdata": {"rt": -1, "trial_type": "single-stim", "stimulus": "<p id=\"stim\">7</p>", "internal_node_id": "0.0-179.0-3.0", "time_elapsed": 1151759, "key_press": -1, "trial_index": 245}, "uniqueid": "MTK3266:3WI0P0II62ZMFI65FN6EVY5BD2DDR9", "dateTime": 1520285622438}, {"current_trial": 246, "trialdata": {"rt": -1, "trial_type": "single-stim", "stimulus": "<p id=\"stim\">6</p>", "internal_node_id": "0.0-179.0-4.0", "time_elapsed": 1152761, "key_press": -1, "trial_index": 246}, "uniqueid": "MTK3266:3WI0P0II62ZMFI65FN6EVY5BD2DDR9", "dateTime": 1520285623440}, {"current_trial": 247, "trialdata": {"rt": -1, "trial_type": "single-stim", "stimulus": "<p id=\"stim\">5</p>", "internal_node_id": "0.0-179.0-5.0", "time_elapsed": 1153763, "key_press": -1, "trial_index": 247}, "uniqueid": "MTK3266:3WI0P0II62ZMFI65FN6EVY5BD2DDR9", "dateTime": 1520285624442}, {"current_trial": 248, "trialdata": {"rt": -1, "trial_type": "single-stim", "stimulus": "<p id=\"stim\">4</p>", "internal_node_id": "0.0-179.0-6.0", "time_elapsed": 1154766, "key_press": -1, "trial_index": 248}, "uniqueid": "MTK3266:3WI0P0II62ZMFI65FN6EVY5BD2DDR9", "dateTime": 1520285625445}, {"current_trial": 249, "trialdata": {"rt": -1, "trial_type": "single-stim", "stimulus": "<p id=\"stim\">3</p>", "internal_node_id": "0.0-179.0-7.0", "time_elapsed": 1155767, "key_press": -1, "trial_index": 249}, "uniqueid": "MTK3266:3WI0P0II62ZMFI65FN6EVY5BD2DDR9", "dateTime": 1520285626446}, {"current_trial": 250, "trialdata": {"rt": -1, "trial_type": "single-stim", "stimulus": "<p id=\"stim\">2</p>", "internal_node_id": "0.0-179.0-8.0", "time_elapsed": 1156770, "key_press": -1, "trial_index": 250}, "uniqueid": "MTK3266:3WI0P0II62ZMFI65FN6EVY5BD2DDR9", "dateTime": 1520285627449}, {"current_trial": 251, "trialdata": {"rt": -1, "trial_type": "single-stim", "stimulus": "<p id=\"stim\">1</p>", "internal_node_id": "0.0-179.0-9.0", "time_elapsed": 1157771, "key_press": -1, "trial_index": 251}, "uniqueid": "MTK3266:3WI0P0II62ZMFI65FN6EVY5BD2DDR9", "dateTime": 1520285628450}, {"current_trial": 252, "trialdata": {"rt": -1, "trial_type": "single-stim", "stimulus": "<p id=\"stim\">+</p>", "internal_node_id": "0.0-180.0-0.0", "time_elapsed": 1159275, "key_press": -1, "type": "FIXATION", "trial_index": 252}, "uniqueid": "MTK3266:3WI0P0II62ZMFI65FN6EVY5BD2DDR9", "dateTime": 1520285629954}, {"current_trial": 253, "trialdata": {"rt": -1, "trial_type": "single-stim", "word": "suspect", "stimulus": "<p id=\"stim\">SUSPECT</p>", "conditions": [12, 1600, "v", 24000], "internal_node_id": "0.0-181.0", "trial": 7, "time_elapsed": 1160877, "serialpos": 0, "key_press": -1, "wordID": 1414, "type": "PRES_VIS", "trial_index": 253}, "uniqueid": "MTK3266:3WI0P0II62ZMFI65FN6EVY5BD2DDR9", "dateTime": 1520285631556}, {"current_trial": 254, "trialdata": {"rt": -1, "trial_type": "single-stim", "word": "stallion", "stimulus": "<p id=\"stim\">STALLION</p>", "conditions": [12, 1600, "v", 24000], "internal_node_id": "0.0-182.0", "trial": 7, "time_elapsed": 1163386, "serialpos": 1, "key_press": -1, "wordID": 1368, "type": "PRES_VIS", "trial_index": 254}, "uniqueid": "MTK3266:3WI0P0II62ZMFI65FN6EVY5BD2DDR9", "dateTime": 1520285634066}, {"current_trial": 255, "trialdata": {"rt": -1, "trial_type": "single-stim", "word": "sidewalk", "stimulus": "<p id=\"stim\">SIDEWALK</p>", "conditions": [12, 1600, "v", 24000], "internal_node_id": "0.0-183.0", "trial": 7, "time_elapsed": 1165955, "serialpos": 2, "key_press": -1, "wordID": 1302, "type": "PRES_VIS", "trial_index": 255}, "uniqueid": "MTK3266:3WI0P0II62ZMFI65FN6EVY5BD2DDR9", "dateTime": 1520285636634}, {"current_trial": 256, "trialdata": {"rt": -1, "trial_type": "single-stim", "word": "sandwich", "stimulus": "<p id=\"stim\">SANDWICH</p>", "conditions": [12, 1600, "v", 24000], "interna