{"assignmentId": "3DOCMVPBTOLAMW5QBA30IJCVQHSNNV", "workerId": "MTK3375", "questiondata": {"origin": "United States", "strat-rehearsal": "10", "marital": "Divorced", "education": "High school diploma", "ethnicity": "Not Hispanic", "color_depth": 24, "distracted": "No", "wrote-notes": "Yes", "strat-other": "", "screen_width": 1366, "avail_screen_width": 1366, "avail_screen_height": 768, "strat-image": "51", "language": "english", "gender": "Female", "age": "58", "gender_other": "", "race": ["Black"], "strat-categorize": "18", "pixel_depth": 24, "strat-spatial": "58", "strat-story": "62", "race_other": "", "screen_height": 768}, "bonus": 0, "hitId": "3K3IX1W4S6Y1IEPKSJ6LBI166LPAPL", "counterbalance": 2474, "useragent": "Mozilla/5.0 (Windows NT 10.0; Win64; x64) AppleWebKit/537.36 (KHTML, like Gecko) Chrome/64.0.3282.168 Safari/537.36 OPR/51.0.2830.40", "eventdata": [{"eventtype": "initialized", "interval": 0, "value": null, "timestamp": 1520457182099}, {"eventtype": "window_resize", "interval": 0, "value": [1350, 679], "timestamp": 1520457182099}, {"eventtype": "focus", "interval": 2067117, "value": "off", "timestamp": 1520459249216}, {"eventtype": "focus", "interval": 10352, "value": "on", "timestamp": 1520459259568}], "data": [{"current_trial": 0, "trialdata": {"rt": 2601, "trial_type": "text", "internal_node_id": "0.0-0.0", "time_elapsed": 2608, "key_press": 32, "type": "INSTRUCTIONS", "trial_index": 0}, "uniqueid": "MTK3375:3DOCMVPBTOLAMW5QBA30IJCVQHSNNV", "dateTime": 1520457185216}, {"current_trial": 1, "trialdata": {"rt": 100366, "trial_type": "text", "internal_node_id": "0.0-1.0", "time_elapsed": 102982, "key_press": 17, "type": "INSTRUCTIONS", "trial_index": 1}, "uniqueid": "MTK3375:3DOCMVPBTOLAMW5QBA30IJCVQHSNNV", "dateTime": 1520457285587}, {"current_trial": 2, "trialdata": {"rt": [45831], "trial_type": "audio-test", "responses": ["ocean"], "internal_node_id": "0.0-2.0", "time_elapsed": 148865, "type": "AUDIO_TEST", "trial_index": 2}, "uniqueid": "MTK3375:3DOCMVPBTOLAMW5QBA30IJCVQHSNNV", "dateTime": 1520457331470}, {"current_trial": 3, "trialdata": {"rt": [12169], "trial_type": "audio-test", "responses": ["crystal"], "internal_node_id": "0.0-3.0", "time_elapsed": 161052, "type": "AUDIO_TEST", "trial_index": 3}, "uniqueid": "MTK3375:3DOCMVPBTOLAMW5QBA30IJCVQHSNNV", "dateTime": 1520457343657}, {"current_trial": 4, "trialdata": {"rt": [7542], "trial_type": "audio-test", "responses": ["spice"], "internal_node_id": "0.0-4.0", "time_elapsed": 168604, "type": "AUDIO_TEST", "trial_index": 4}, "uniqueid": "MTK3375:3DOCMVPBTOLAMW5QBA30IJCVQHSNNV", "dateTime": 1520457351209}, {"current_trial": 5, "trialdata": {"rt": 55373, "trial_type": "survey-text", "responses": "{\"Q0\":\"11 pm \",\"Q1\":\"6 am \",\"Q2\":\"5\"}", "internal_node_id": "0.0-5.0", "time_elapsed": 224734, "type": "SLEEP_SURVEY", "trial_index": 5}, "uniqueid": "MTK3375:3DOCMVPBTOLAMW5QBA30IJCVQHSNNV", "dateTime": 1520457407339}, {"current_trial": 6, "trialdata": {"rt": 2146, "trial_type": "text", "internal_node_id": "0.0-6.0", "time_elapsed": 227882, "key_press": 32, "type": "INSTRUCTIONS", "trial_index": 6}, "uniqueid": "MTK3375:3DOCMVPBTOLAMW5QBA30IJCVQHSNNV", "dateTime": 1520457410488}, {"current_trial": 7, "trialdata": {"rt": 3222, "trial_type": "text", "internal_node_id": "0.0-7.0", "time_elapsed": 231608, "key_press": 32, "type": "INSTRUCTIONS", "trial_index": 7}, "uniqueid": "MTK3375:3DOCMVPBTOLAMW5QBA30IJCVQHSNNV", "dateTime": 1520457414213}, {"current_trial": 8, "trialdata": {"rt": 3077, "trial_type": "text", "internal_node_id": "0.0-8.0", "time_elapsed": 235185, "key_press": 32, "type": "INSTRUCTIONS", "trial_index": 8}, "uniqueid": "MTK3375:3DOCMVPBTOLAMW5QBA30IJCVQHSNNV", "dateTime": 1520457417791}, {"current_trial": 9, "trialdata": {"rt": [5746, 13640], "trial_type": "math-distractor", "key_times": [4901, 5084, 5746, 12652, 12818, 13640, 17813], "responses": ["12", "21"], "num2": [9, 9, 3], "num3": [1, 8, 3], "conditions": [18, 1200, "v", 18000], "internal_node_id": "0.0-9.0", "key_presses": [97, 98, 13, 98, 97, 13, 97], "trial": 0, "time_elapsed": 254211, "type": "DISTRACTOR", "trial_index": 9, "num1": [3, 3, 8]}, "uniqueid": "MTK3375:3DOCMVPBTOLAMW5QBA30IJCVQHSNNV", "dateTime": 1520457436817}, {"current_trial": 10, "trialdata": {"rt": -1, "trial_type": "single-stim", "stimulus": "<p id=\"stim\">10</p>", "internal_node_id": "0.0-10.0-0.0", "time_elapsed": 257215, "key_press": -1, "trial_index": 10}, "uniqueid": "MTK3375:3DOCMVPBTOLAMW5QBA30IJCVQHSNNV", "dateTime": 1520457439820}, {"current_trial": 11, "trialdata": {"rt": -1, "trial_type": "single-stim", "stimulus": "<p id=\"stim\">9</p>", "internal_node_id": "0.0-10.0-1.0", "time_elapsed": 258218, "key_press": -1, "trial_index": 11}, "uniqueid": "MTK3375:3DOCMVPBTOLAMW5QBA30IJCVQHSNNV", "dateTime": 1520457440823}, {"current_trial": 12, "trialdata": {"rt": -1, "trial_type": "single-stim", "stimulus": "<p id=\"stim\">8</p>", "internal_node_id": "0.0-10.0-2.0", "time_elapsed": 259220, "key_press": -1, "trial_index": 12}, "uniqueid": "MTK3375:3DOCMVPBTOLAMW5QBA30IJCVQHSNNV", "dateTime": 1520457441825}, {"current_trial": 13, "trialdata": {"rt": -1, "trial_type": "single-stim", "stimulus": "<p id=\"stim\">7</p>", "internal_node_id": "0.0-10.0-3.0", "time_elapsed": 260222, "key_press": -1, "trial_index": 13}, "uniqueid": "MTK3375:3DOCMVPBTOLAMW5QBA30IJCVQHSNNV", "dateTime": 1520457442828}, {"current_trial": 14, "trialdata": {"rt": -1, "trial_type": "single-stim", "stimulus": "<p id=\"stim\">6</p>", "internal_node_id": "0.0-10.0-4.0", "time_elapsed": 261225, "key_press": -1, "trial_index": 14}, "uniqueid": "MTK3375:3DOCMVPBTOLAMW5QBA30IJCVQHSNNV", "dateTime": 1520457443830}, {"current_trial": 15, "trialdata": {"rt": -1, "trial_type": "single-stim", "stimulus": "<p id=\"stim\">5</p>", "internal_node_id": "0.0-10.0-5.0", "time_elapsed": 262445, "key_press": -1, "trial_index": 15}, "uniqueid": "MTK3375:3DOCMVPBTOLAMW5QBA30IJCVQHSNNV", "dateTime": 1520457445050}, {"current_trial": 16, "trialdata": {"rt": -1, "trial_type": "single-stim", "stimulus": "<p id=\"stim\">4</p>", "internal_node_id": "0.0-10.0-6.0", "time_elapsed": 263449, "key_press": -1, "trial_index": 16}, "uniqueid": "MTK3375:3DOCMVPBTOLAMW5QBA30IJCVQHSNNV", "dateTime": 1520457446054}, {"current_trial": 17, "trialdata": {"rt": -1, "trial_type": "single-stim", "stimulus": "<p id=\"stim\">3</p>", "internal_node_id": "0.0-10.0-7.0", "time_elapsed": 264453, "key_press": -1, "trial_index": 17}, "uniqueid": "MTK3375:3DOCMVPBTOLAMW5QBA30IJCVQHSNNV", "dateTime": 1520457447058}, {"current_trial": 18, "trialdata": {"rt": -1, "trial_type": "single-stim", "stimulus": "<p id=\"stim\">2</p>", "internal_node_id": "0.0-10.0-8.0", "time_elapsed": 265457, "key_press": -1, "trial_index": 18}, "uniqueid": "MTK3375:3DOCMVPBTOLAMW5QBA30IJCVQHSNNV", "dateTime": 1520457448062}, {"current_trial": 19, "trialdata": {"rt": -1, "trial_type": "single-stim", "stimulus": "<p id=\"stim\">1</p>", "internal_node_id": "0.0-10.0-9.0", "time_elapsed": 266459, "key_press": -1, "trial_index": 19}, "uniqueid": "MTK3375:3DOCMVPBTOLAMW5QBA30IJCVQHSNNV", "dateTime": 1520457449064}, {"current_trial": 20, "trialdata": {"rt": -1, "trial_type": "single-stim", "stimulus": "<p id=\"stim\">+</p>", "internal_node_id": "0.0-11.0-0.0", "time_elapsed": 267961, "key_press": -1, "type": "FIXATION", "trial_index": 20}, "uniqueid": "MTK3375:3DOCMVPBTOLAMW5QBA30IJCVQHSNNV", "dateTime": 1520457450567}, {"current_trial": 21, "trialdata": {"rt": -1, "trial_type": "single-stim", "word": "nurse", "stimulus": "<p id=\"stim\">NURSE</p>", "conditions": [18, 1200, "v", 18000], "internal_node_id": "0.0-12.0", "trial": 0, "time_elapsed": 269164, "serialpos": 0, "key_press": -1, "wordID": 962, "type": "PRES_VIS", "trial_index": 21}, "uniqueid": "MTK3375:3DOCMVPBTOLAMW5QBA30IJCVQHSNNV", "dateTime": 1520457451769}, {"current_trial": 22, "trialdata": {"rt": -1, "trial_type": "single-stim", "word": "guitar", "stimulus": "<p id=\"stim\">GUITAR</p>", "conditions": [18, 1200, "v", 18000], "internal_node_id": "0.0-13.0", "trial": 0, "time_elapsed": 271533, "serialpos": 1, "key_press": -1, "wordID": 669, "type": "PRES_VIS", "trial_index": 22}, "uniqueid": "MTK3375:3DOCMVPBTOLAMW5QBA30IJCVQHSNNV", "dateTime": 1520457454138}, {"current_trial": 23, "trialdata": {"rt": -1, "trial_type": "single-stim", "word": "garlic", "stimulus": "<p id=\"stim\">GARLIC</p>", "conditions": [18, 1200, "v", 18000], "internal_node_id": "0.0-14.0", "trial": 0, "time_elapsed": 273663, "serialpos": 2, "key_press": -1, "wordID": 623, "type": "PRES_VIS", "trial_index": 23}, "uniqueid": "MTK3375:3DOCMVPBTOLAMW5QBA30IJCVQHSNNV", "dateTime": 1520457456268}, {"current_trial": 24, "trialdata": {"rt": -1, "trial_type": "single-stim", "word": "camel", "stimulus": "<p id=\"stim\">CAMEL</p>", "conditions": [18, 1200, "v", 18000], "internal_node_id": "0.0-15.0", "trial": 0, "time_elapsed": 276029, "serialpos": 3, "key_press": -1, "wordID": 222, "type": "PRES_VIS", "trial_index": 24}, "uniqueid": "MTK3375:3DOCMVPBTOLAMW5QBA30IJCVQHSNNV", "dateTime": 1520457458634}, {"current_trial": 25, "trialdata": {"rt": -1, "trial_type": "single-stim", "word": "sword", "stimulus": "<p id=\"stim\">SWORD</p>", "conditions": [18, 1200, "v", 18000], "internal_node_id": "0.0-16.0", "trial": 0, "time_elapsed": 278121, "serialpos": 4, "key_press": -1, "wordID": 1422, "type": "PRES_VIS", "trial_index": 25}, "uniqueid": "MTK3375:3DOCMVPBTOLAMW5QBA30IJCVQHSNNV", "dateTime": 1520457460726}, {"current_trial": 26, "trialdata": {"rt": -1, "trial_type": "single-stim", "word": "pecan", "stimulus": "<p id=\"stim\">PECAN</p>", "conditions": [18, 1200, "v", 18000], "internal_node_id": "0.0-17.0", "trial": 0, "time_elapsed": 280602, "serialpos": 5, "key_press": -1, "wordID": 1035, "type": "PRES_VIS", "trial_index": 26}, "uniqueid": "MTK3375:3DOCMVPBTOLAMW5QBA30IJCVQHSNNV", "dateTime": 1520457463208}, {"current_trial": 27, "trialdata": {"rt": -1, "trial_type": "single-stim", "word": "witness", "stimulus": "<p id=\"stim\">WITNESS</p>", "conditions": [18, 1200, "v", 18000], "internal_node_id": "0.0-18.0", "trial": 0, "time_elapsed": 282647, "serialpos": 6, "key_press": -1, "wordID": 1617, "type": "PRES_VIS", "trial_index": 27}, "uniqueid": "MTK3375:3DOCMVPBTOLAMW5QBA30IJCVQHSNNV", "dateTime": 1520457465252}, {"current_trial": 28, "trialdata": {"rt": -1, "trial_type": "single-stim", "word": "liver", "stimulus": "<p id=\"stim\">LIVER</p>", "conditions": [18, 1200, "v", 18000], "internal_node_id": "0.0-19.0", "trial": 0, "time_elapsed": 284827, "serialpos": 7, "key_press": -1, "wordID": 832, "type": "PRES_VIS", "trial_index": 28}, "uniqueid": "MTK3375:3DOCMVPBTOLAMW5QBA30IJCVQHSNNV", "dateTime": 1520457467432}, {"current_trial": 29, "trialdata": {"rt": -1, "trial_type": "single-stim", "word": "slope", "stimulus": "<p id=\"stim\">SLOPE</p>", "conditions": [18, 1200, "v", 18000], "internal_node_id": "0.0-20.0", "trial": 0, "time_elapsed": 286962, "serialpos": 8, "key_press": -1, "wordID": 1327, "type": "PRES_VIS", "trial_index": 29}, "uniqueid": "MTK3375:3DOCMVPBTOLAMW5QBA30IJCVQHSNNV", "dateTime": 1520457469568}, {"current_trial": 30, "trialdata": {"rt": -1, "trial_type": "single-stim", "word": "atlas", "stimulus": "<p id=\"stim\">ATLAS</p>", "conditions": [18, 1200, "v", 18000], "internal_node_id": "0.0-21.0", "trial": 0, "time_elapsed": 289136, "serialpos": 9, "key_press": -1, "wordID": 52, "type": "PRES_VIS", "trial_index": 30}, "uniqueid": "MTK3375:3DOCMVPBTOLAMW5QBA30IJCVQHSNNV", "dateTime": 1520457471741}, {"current_trial": 31, "trialdata": {"rt": -1, "trial_type": "single-stim", "word": "chest", "stimulus": "<p id=\"stim\">CHEST</p>", "conditions": [18, 1200, "v", 18000], "internal_node_id": "0.0-22.0", "trial": 0, "time_elapsed": 291229, "serialpos": 10, "key_press": -1, "wordID": 294, "type": "PRES_VIS", "trial_index": 31}, "uniqueid": "MTK3375:3DOCMVPBTOLAMW5QBA30IJCVQHSNNV", "dateTime": 1520457473834}, {"current_trial": 32, "trialdata": {"rt": -1, "trial_type": "single-stim", "word": "finger", "stimulus": "<p id=\"stim\">FINGER</p>", "conditions": [18, 1200, "v", 18000], "internal_node_id": "0.0-23.0", "trial": 0, "time_elapsed": 293475, "serialpos": 11, "key_press": -1, "wordID": 566, "type": "PRES_VIS", "trial_index": 32}, "uniqueid": "MTK3375:3DOCMVPBTOLAMW5QBA30IJCVQHSNNV", "dateTime": 1520457476080}, {"current_trial": 33, "trialdata": {"rt": -1, "trial_type": "single-stim", "word": "carrot", "stimulus": "<p id=\"stim\">CARROT</p>", "conditions": [18, 1200, "v", 18000], "internal_node_id": "0.0-24.0", "trial": 0, "time_elapsed": 295833, "serialpos": 12, "key_press": -1, "wordID": 248, "type": "PRES_VIS", "trial_index": 33}, "uniqueid": "MTK3375:3DOCMVPBTOLAMW5QBA30IJCVQHSNNV", "dateTime": 1520457478438}, {"current_trial": 34, "trialdata": {"rt": -1, "trial_type": "single-stim", "word": "scallop", "stimulus": "<p id=\"stim\">SCALLOP</p>", "conditions": [18, 1200, "v", 18000], "internal_node_id": "0.0-25.0", "trial": 0, "time_elapsed": 297933, "serialpos": 13, "key_press": -1, "wordID": 1241, "type": "PRES_VIS", "trial_index": 34}, "uniqueid": "MTK3375:3DOCMVPBTOLAMW5QBA30IJCVQHSNNV", "dateTime": 1520457480538}, {"current_trial": 35, "trialdata": {"rt": -1, "trial_type": "single-stim", "word": "lizard", "stimulus": "<p id=\"stim\">LIZARD</p>", "conditions": [18, 1200, "v", 18000], "internal_node_id": "0.0-26.0", "trial": 0, "time_elapsed": 300001, "serialpos": 14, "key_press": -1, "wordID": 833, "type": "PRES_VIS", "trial_index": 35}, "uniqueid": "MTK3375:3DOCMVPBTOLAMW5QBA30IJCVQHSNNV", "dateTime": 1520457482607}, {"current_trial": 36, "trialdata": {"rt": -1, "trial_type": "single-stim", "word": "guard", "stimulus": "<p id=\"stim\">GUARD</p>", "conditions": [18, 1200, "v", 18000], "internal_node_id": "0.0-27.0", "trial": 0, "time_elapsed": 302232, "serialpos": 15, "key_press": -1, "wordID": 666, "type": "PRES_VIS", "trial_index": 36}, "uniqueid": "MTK3375:3DOCMVPBTOLAMW5QBA30IJCVQHSNNV", "dateTime": 1520457484837}, {"current_trial": 37, "trialdata": {"rt": -1, "trial_type": "single-stim", "word": "chauffeur", "stimulus": "<p id=\"stim\">CHAUFFEUR</p>", "conditions": [18, 1200, "v", 18000], "internal_node_id": "0.0-28.0", "trial": 0, "time_elapsed": 304388, "serialpos": 16, "key_press": -1, "wordID": 282, "type": "PRES_VIS", "trial_index": 37}, "uniqueid": "MTK3375:3DOCMVPBTOLAMW5QBA30IJCVQHSNNV", "dateTime": 1520457486993}, {"current_trial": 38, "trialdata": {"rt": -1, "trial_type": "single-stim", "word": "donor", "stimulus": "<p id=\"stim\">DONOR</p>", "conditions": [18, 1200, "v", 18000], "internal_node_id": "0.0-29.0", "trial": 0, "time_elapsed": 306458, "serialpos": 17, "key_press": -1, "wordID": 484, "type": "PRES_VIS", "trial_index": 38}, "uniqueid": "MTK3375:3DOCMVPBTOLAMW5QBA30IJCVQHSNNV", "dateTime": 1520457489063}, {"current_trial": 39, "trialdata": {"rt": -1, "trial_type": "single-stim", "stimulus": "", "internal_node_id": "0.0-30.0-0.0", "time_elapsed": 308660, "key_press": -1, "type": "PRE_RECALL_DELAY", "trial_index": 39}, "uniqueid": "MTK3375:3DOCMVPBTOLAMW5QBA30IJCVQHSNNV", "dateTime": 1520457491266}, {"current_trial": 40, "trialdata": {"rt": -1000, "trial_type": "single-audio", "stimulus": "/static/audio/400Hz.wav", "internal_node_id": "0.0-31.0", "time_elapsed": 309196, "key_press": -1, "type": "PRE_RECALL_ALERT", "trial_index": 40}, "uniqueid": "MTK3375:3DOCMVPBTOLAMW5QBA30IJCVQHSNNV", "dateTime": 1520457491801}, {"current_trial": 41, "trialdata": {"rt": [25814, 28113], "recwords": ["garlic", "spice"], "key_times": [23118, 23527, 24120, 24660, 24902, 25210, 25814, 26438, 27008, 27307, 27696, 27906, 28113], "trial_type": "free-recall", "conditions": [18, 1200, "v", 18000], "internal_node_id": "0.0-32.0-0.0", "key_presses": [71, 65, 82, 76, 73, 67, 13, 83, 80, 73, 67, 69, 32], "trial": 0, "time_elapsed": 369251, "type": "FREE_RECALL", "trial_index": 41}, "uniqueid": "MTK3375:3DOCMVPBTOLAMW5QBA30IJCVQHSNNV", "dateTime": 1520457551861}, {"current_trial": 42, "trialdata": {"rt": 49796, "trial_type": "text", "internal_node_id": "0.0-33.0", "time_elapsed": 421055, "key_press": 32, "type": "INSTRUCTIONS", "trial_index": 42}, "uniqueid": "MTK3375:3DOCMVPBTOLAMW5QBA30IJCVQHSNNV", "dateTime": 1520457603660}, {"current_trial": 43, "trialdata": {"rt": [7425, 9678, 13430, 16947], "trial_type": "math-distractor", "key_times": [6266, 6504, 7425, 9238, 9568, 9678, 12994, 13209, 13430, 15843, 16022, 16947], "responses": ["16", "13", "13", "14"], "num2": [7, 4, 1, 9, 6], "num3": [1, 3, 6, 4, 7], "conditions": [18, 1200, "v", 18000], "internal_node_id": "0.0-34.0", "key_presses": [97, 102, 13, 97, 99, 13, 97, 99, 13, 97, 100, 13], "trial": 1, "time_elapsed": 441064, "type": "DISTRACTOR", "trial_index": 43, "num1": [8, 6, 2, 1, 5]}, "uniqueid": "MTK3375:3DOCMVPBTOLAMW5QBA30IJCVQHSNNV", "dateTime": 1520457623670}, {"current_trial": 44, "trialdata": {"rt": -1, "trial_type": "single-stim", "stimulus": "<p id=\"stim\">10</p>", "internal_node_id": "0.0-35.0-0.0", "time_elapsed": 444069, "key_press": -1, "trial_index": 44}, "uniqueid": "MTK3375:3DOCMVPBTOLAMW5QBA30IJCVQHSNNV", "dateTime": 1520457626674}, {"current_trial": 45, "trialdata": {"rt": -1, "trial_type": "single-stim", "stimulus": "<p id=\"stim\">9</p>", "internal_node_id": "0.0-35.0-1.0", "time_elapsed": 445073, "key_press": -1, "trial_index": 45}, "uniqueid": "MTK3375:3DOCMVPBTOLAMW5QBA30IJCVQHSNNV", "dateTime": 1520457627678}, {"current_trial": 46, "trialdata": {"rt": -1, "trial_type": "single-stim", "stimulus": "<p id=\"stim\">8</p>", "internal_node_id": "0.0-35.0-2.0", "time_elapsed": 446074, "key_press": -1, "trial_index": 46}, "uniqueid": "MTK3375:3DOCMVPBTOLAMW5QBA30IJCVQHSNNV", "dateTime": 1520457628679}, {"current_trial": 47, "trialdata": {"rt": -1, "trial_type": "single-stim", "stimulus": "<p id=\"stim\">7</p>", "internal_node_id": "0.0-35.0-3.0", "time_elapsed": 447077, "key_press": -1, "trial_index": 47}, "uniqueid": "MTK3375:3DOCMVPBTOLAMW5QBA30IJCVQHSNNV", "dateTime": 1520457629682}, {"current_trial": 48, "trialdata": {"rt": -1, "trial_type": "single-stim", "stimulus": "<p id=\"stim\">6</p>", "internal_node_id": "0.0-35.0-4.0", "time_elapsed": 448081, "key_press": -1, "trial_index": 48}, "uniqueid": "MTK3375:3DOCMVPBTOLAMW5QBA30IJCVQHSNNV", "dateTime": 1520457630686}, {"current_trial": 49, "trialdata": {"rt": -1, "trial_type": "single-stim", "stimulus": "<p id=\"stim\">5</p>", "internal_node_id": "0.0-35.0-5.0", "time_elapsed": 449084, "key_press": -1, "trial_index": 49}, "uniqueid": "MTK3375:3DOCMVPBTOLAMW5QBA30IJCVQHSNNV", "dateTime": 1520457631689}, {"current_trial": 50, "trialdata": {"rt": -1, "trial_type": "single-stim", "stimulus": "<p id=\"stim\">4</p>", "internal_node_id": "0.0-35.0-6.0", "time_elapsed": 450086, "key_press": -1, "trial_index": 50}, "uniqueid": "MTK3375:3DOCMVPBTOLAMW5QBA30IJCVQHSNNV", "dateTime": 1520457632691}, {"current_trial": 51, "trialdata": {"rt": -1, "trial_type": "single-stim", "stimulus": "<p id=\"stim\">3</p>", "internal_node_id": "0.0-35.0-7.0", "time_elapsed": 451089, "key_press": -1, "trial_index": 51}, "uniqueid": "MTK3375:3DOCMVPBTOLAMW5QBA30IJCVQHSNNV", "dateTime": 1520457633694}, {"current_trial": 52, "trialdata": {"rt": -1, "trial_type": "single-stim", "stimulus": "<p id=\"stim\">2</p>", "internal_node_id": "0.0-35.0-8.0", "time_elapsed": 452092, "key_press": -1, "trial_index": 52}, "uniqueid": "MTK3375:3DOCMVPBTOLAMW5QBA30IJCVQHSNNV", "dateTime": 1520457634697}, {"current_trial": 53, "trialdata": {"rt": -1, "trial_type": "single-stim", "stimulus": "<p id=\"stim\">1</p>", "internal_node_id": "0.0-35.0-9.0", "time_elapsed": 453094, "key_press": -1, "trial_index": 53}, "uniqueid": "MTK3375:3DOCMVPBTOLAMW5QBA30IJCVQHSNNV", "dateTime": 1520457635699}, {"current_trial": 54, "trialdata": {"rt": -1, "trial_type": "single-stim", "stimulus": "<p id=\"stim\">+</p>", "internal_node_id": "0.0-36.0-0.0", "time_elapsed": 454598, "key_press": -1, "type": "FIXATION", "trial_index": 54}, "uniqueid": "MTK3375:3DOCMVPBTOLAMW5QBA30IJCVQHSNNV", "dateTime": 1520457637203}, {"current_trial": 55, "trialdata": {"rt": -1, "trial_type": "single-stim", "word": "actor", "stimulus": "<p id=\"stim\">ACTOR</p>", "conditions": [18, 1200, "v", 18000], "internal_node_id": "0.0-37.0", "trial": 1, "time_elapsed": 455800, "serialpos": 0, "key_press": -1, "wordID": 4, "type": "PRES_VIS", "trial_index": 55}, "uniqueid": "MTK3375:3DOCMVPBTOLAMW5QBA30IJCVQHSNNV", "dateTime": 1520457638406}, {"current_trial": 56, "trialdata": {"rt": -1, "trial_type": "single-stim", "word": "worker", "stimulus": "<p id=\"stim\">WORKER</p>", "conditions": [18, 1200, "v", 18000], "internal_node_id": "0.0-38.0", "trial": 1, "time_elapsed": 458144, "serialpos": 1, "key_press": -1, "wordID": 1620, "type": "PRES_VIS", "trial_index": 56}, "uniqueid": "MTK3375:3DOCMVPBTOLAMW5QBA30IJCVQHSNNV", "dateTime": 1520457640749}, {"current_trial": 57, "trialdata": {"rt": -1, "trial_type": "single-stim", "word": "cookbook", "stimulus": "<p id=\"stim\">COOKBOOK</p>", "conditions": [18, 1200, "v", 18000], "internal_node_id": "0.0-39.0", "trial": 1, "time_elapsed": 460383, "serialpos": 2, "key_press": -1, "wordID": 372, "type": "PRES_VIS", "trial_index": 57}, "uniqueid": "MTK3375:3DOCMVPBTOLAMW5QBA30IJCVQHSNNV", "dateTime": 1520457642988}, {"current_trial": 58, "trialdata": {"rt": -1, "trial_type": "single-stim", "word": "leg", "stimulus": "<p id=\"stim\">LEG</p>", "conditions": [18, 1200, "v", 18000], "internal_node_id": "0.0-40.0", "trial": 1, "time_elapsed": 462624, "serialpos": 3, "key_press": -1, "wordID": 808, "type": "PRES_VIS", "trial_index": 58}, "uniqueid": "MTK3375:3DOCMVPBTOLAMW5QBA30IJCVQHSNNV", "dateTime": 1520457645229}, {"current_trial": 59, "trialdata": {"rt": -1, "trial_type": "single-stim", "word": "france", "stimulus": "<p id=\"stim\">FRANCE</p>", "conditions": [18, 1200, "v", 18000], "internal_node_id": "0.0-41.0", "trial": 1, "time_elapsed": 464748, "serialpos": 4, "key_press": -1, "wordID": 600, "type": "PRES_VIS", "trial_index": 59}, "uniqueid": "MTK3375:3DOCMVPBTOLAMW5QBA30IJCVQHSNNV", "dateTime": 1520457647353}, {"current_trial": 60, "trialdata": {"rt": -1, "trial_type": "single-stim", "word": "luggage", "stimulus": "<p id=\"stim\">LUGGAGE</p>", "conditions": [18, 1200, "v", 18000], "internal_node_id": "0.0-42.0", "trial": 1, "time_elapsed": 467127, "serialpos": 5, "key_press": -1, "wordID": 846, "type": "PRES_VIS", "trial_index": 60}, "uniqueid": "MTK3375:3DOCMVPBTOLAMW5QBA30IJCVQHSNNV", "dateTime": 1520457649733}, {"current_trial": 61, "trialdata": {"rt": -1, "trial_type": "single-stim", "word": "seafood", "stimulus": "<p id=\"stim\">SEAFOOD</p>", "conditions": [18, 1200, "v", 18000], "internal_node_id": "0.0-43.0", "trial": 1, "time_elapsed": 469348, "serialpos": 6, "key_press": -1, "wordID": 1259, "type": "PRES_VIS", "trial_index": 61}, "uniqueid": "MTK3375:3DOCMVPBTOLAMW5QBA30IJCVQHSNNV", "dateTime": 1520457651954}, {"current_trial": 62, "trialdata": {"rt": -1, "trial_type": "single-stim", "word": "powder", "stimulus": "<p id=\"stim\">POWDER</p>", "conditions": [18, 1200, "v", 18000], "internal_node_id": "0.0-44.0", "trial": 1, "time_elapsed": 471519, "serialpos": 7, "key_press": -1, "wordID": 1116, "type": "PRES_VIS", "trial_index": 62}, "uniqueid": "MTK3375:3DOCMVPBTOLAMW5QBA30IJCVQHSNNV", "dateTime": 1520457654124}, {"current_trial": 63, "trialdata": {"rt": -1, "trial_type": "single-stim", "word": "london", "stimulus": "<p id=\"stim\">LONDON</p>", "conditions": [18, 1200, "v", 18000], "internal_node_id": "0.0-45.0", "trial": 1, "time_elapsed": 473543, "serialpos": 8, "key_press": -1, "wordID": 842, "type": "PRES_VIS", "trial_index": 63}, "uniqueid": "MTK3375:3DOCMVPBTOLAMW5QBA30IJCVQHSNNV", "dateTime": 1520457656148}, {"current_trial": 64, "trialdata": {"rt": -1, "trial_type": "single-stim", "word": "captive", "stimulus": "<p id=\"stim\">CAPTIVE</p>", "conditions": [18, 1200, "v", 18000], "internal_node_id": "0.0-46.0", "trial": 1, "time_elapsed": 475758, "serialpos": 9, "key_press": -1, "wordID": 239, "type": "PRES_VIS", "trial_index": 64}, "uniqueid": "MTK3375:3DOCMVPBTOLAMW5QBA30IJCVQHSNNV", "dateTime": 1520457658364}, {"current_trial": 65, "trialdata": {"rt": -1, "trial_type": "single-stim", "word": "survey", "stimulus": "<p id=\"stim\">SURVEY</p>", "conditions": [18, 1200, "v", 18000], "internal_node_id": "0.0-47.0", "trial": 1, "time_elapsed": 477775, "serialpos": 10, "key_press": -1, "wordID": 1413, "type": "PRES_VIS", "trial_index": 65}, "uniqueid": "MTK3375:3DOCMVPBTOLAMW5QBA30IJCVQHSNNV", "dateTime": 1520457660381}, {"current_trial": 66, "trialdata": {"rt": -1, "trial_type": "single-stim", "word": "pluto", "stimulus": "<p id=\"stim\">PLUTO</p>", "conditions": [18, 1200, "v", 18000], "internal_node_id": "0.0-48.0", "trial": 1, "time_elapsed": 480037, "serialpos": 11, "key_press": -1, "wordID": 1091, "type": "PRES_VIS", "trial_index": 66}, "uniqueid": "MTK3375:3DOCMVPBTOLAMW5QBA30IJCVQHSNNV", "dateTime": 1520457662642}, {"current_trial": 67, "trialdata": {"rt": -1, "trial_type": "single-stim", "word": "saddle", "stimulus": "<p id=\"stim\">SADDLE</p>", "conditions": [18, 1200, "v", 18000], "internal_node_id": "0.0-49.0", "trial": 1, "time_elapsed": 482291, "serialpos": 12, "key_press": -1, "wordID": 1220, "type": "PRES_VIS", "trial_index": 67}, "uniqueid": "MTK3375:3DOCMVPBTOLAMW5QBA30IJCVQHSNNV", "dateTime": 1520457664896}, {"current_trial": 68, "trialdata": {"rt": -1, "trial_type": "single-stim", "word": "salmon", "stimulus": "<p id=\"stim\">SALMON</p>", "conditions": [18, 1200, "v", 18000], "internal_node_id": "0.0-50.0", "trial": 1, "time_elapsed": 484634, "serialpos": 13, "key_press": -1, "wordID": 1226, "type": "PRES_VIS", "trial_index": 68}, "uniqueid": "MTK3375:3DOCMVPBTOLAMW5QBA30IJCVQHSNNV", "dateTime": 1520457667239}, {"current_trial": 69, "trialdata": {"rt": -1, "trial_type": "single-stim", "word": "lodge", "stimulus": "<p id=\"stim\">LODGE</p>", "conditions": [18, 1200, "v", 18000], "internal_node_id": "0.0-51.0", "trial": 1, "time_elapsed": 486819, "serialpos": 14, "key_press": -1, "wordID": 838, "type": "PRES_VIS", "trial_index": 69}, "uniqueid": "MTK3375:3DOCMVPBTOLAMW5QBA30IJCVQHSNNV", "dateTime": 1520457669424}, {"current_trial": 70, "trialdata": {"rt": -1, "trial_type": "single-stim", "word": "slide", "stimulus": "<p id=\"stim\">SLIDE</p>", "conditions": [18, 1200, "v", 18000], "internal_node_id": "0.0-52.0", "trial": 1, "time_elapsed": 489084, "serialpos": 15, "key_press": -1, "wordID": 1325, "type": "PRES_VIS", "trial_index": 70}, "uniqueid": "MTK3375:3DOCMVPBTOLAMW5QBA30IJCVQHSNNV", "dateTime": 1520457671689}, {"current_trial": 71, "trialdata": {"rt": -1, "trial_type": "single-stim", "word": "yarn", "stimulus": "<p id=\"stim\">YARN</p>", "conditions": [18, 1200, "v", 18000], "internal_node_id": "0.0-53.0", "trial": 1, "time_elapsed": 491113, "serialpos": 16, "key_press": -1, "wordID": 1630, "type": "PRES_VIS", "trial_index": 71}, "uniqueid": "MTK3375:3DOCMVPBTOLAMW5QBA30IJCVQHSNNV", "dateTime": 1520457673718}, {"current_trial": 72, "trialdata": {"rt": -1, "trial_type": "single-stim", "word": "peanut", "stimulus": "<p id=\"stim\">PEANUT</p>", "conditions": [18, 1200, "v", 18000], "internal_node_id": "0.0-54.0", "trial": 1, "time_elapsed": 493285, "serialpos": 17, "key_press": -1, "wordID": 1031, "type": "PRES_VIS", "trial_index": 72}, "uniqueid": "MTK3375:3DOCMVPBTOLAMW5QBA30IJCVQHSNNV", "dateTime": 1520457675890}, {"current_trial": 73, "trialdata": {"rt": -1, "trial_type": "single-stim", "stimulus": "", "internal_node_id": "0.0-55.0-0.0", "time_elapsed": 495824, "key_press": -1, "type": "PRE_RECALL_DELAY", "trial_index": 73}, "uniqueid": "MTK3375:3DOCMVPBTOLAMW5QBA30IJCVQHSNNV", "dateTime": 1520457678429}, {"current_trial": 74, "trialdata": {"rt": -1000, "trial_type": "single-audio", "stimulus": "/static/audio/400Hz.wav", "internal_node_id": "0.0-56.0", "time_elapsed": 496329, "key_press": -1, "type": "PRE_RECALL_ALERT", "trial_index": 74}, "uniqueid": "MTK3375:3DOCMVPBTOLAMW5QBA30IJCVQHSNNV", "dateTime": 1520457678934}, {"current_trial": 75, "trialdata": {"rt": [9139, 12441, 16349, 21235, 25011, 28873, 34407, 38260, 41386, 46161], "recwords": ["worker", "leg", "france", "seafood", "london", "survey", "pluto", "slide", "yarn", "peanut"], "key_times": [3767, 5196, 6557, 7298, 7737, 7930, 9139, 10814, 11300, 11729, 12441, 13551, 13748, 14077, 14866, 15203, 15394, 16349, 18194, 18405, 18692, 19337, 19873, 20005, 20451, 21235, 21878, 22104, 23048, 23505, 24048, 24316, 25011, 25879, 26508, 26850, 27155, 27445, 28065, 28873, 29833, 31097, 33268, 33494, 33910, 34407, 35371, 36004, 36280, 36647, 36784, 38260, 39240, 39613, 40022, 40629, 41386, 42812, 43446, 43680, 44625, 44943, 45368, 46161], "trial_type": "free-recall", "conditions": [18, 1200, "v", 18000], "internal_node_id": "0.0-57.0-0.0", "key_presses": [87, 79, 82, 75, 69, 82, 13, 76, 69, 71, 13, 70, 82, 65, 78, 67, 69, 13, 83, 69, 65, 70, 79, 79, 68, 13, 76, 79, 78, 68, 79, 78, 13, 83, 85, 82, 86, 69, 89, 13, 80, 76, 85, 84, 79, 13, 83, 76, 73, 68, 69, 13, 89, 65, 82, 78, 13, 80, 69, 65, 78, 85, 84, 13], "trial": 1, "time_elapsed": 556339, "type": "FREE_RECALL", "trial_index": 75}, "uniqueid": "MTK3375:3DOCMVPBTOLAMW5QBA30IJCVQHSNNV", "dateTime": 1520457738948}, {"current_trial": 76, "trialdata": {"rt": 1735, "trial_type": "text", "internal_node_id": "0.0-58.0", "time_elapsed": 560082, "key_press": 13, "type": "INSTRUCTIONS", "trial_index": 76}, "uniqueid": "MTK3375:3DOCMVPBTOLAMW5QBA30IJCVQHSNNV", "dateTime": 1520457742687}, {"current_trial": 77, "trialdata": {"rt": [7990, 11725, 21296], "trial_type": "math-distractor", "key_times": [5313, 5771, 6943, 7240, 7990, 11390, 11725, 20833, 21017, 21296], "responses": ["18", "8", "26"], "num2": [9, 1, 9, 8], "num3": [7, 4, 9, 6], "conditions": [24, 1600, "v", 24000], "internal_node_id": "0.0-59.0", "key_presses": [97, 105, 8, 104, 13, 104, 13, 98, 102, 13], "trial": 2, "time_elapsed": 585088, "type": "DISTRACTOR", "trial_index": 77, "num1": [2, 3, 8, 6]}, "uniqueid": "MTK3375:3DOCMVPBTOLAMW5QBA30IJCVQHSNNV", "dateTime": 1520457767693}, {"current_trial": 78, "trialdata": {"rt": -1, "trial_type": "single-stim", "stimulus": "<p id=\"stim\">10</p>", "internal_node_id": "0.0-60.0-0.0", "time_elapsed": 588282, "key_press": -1, "trial_index": 78}, "uniqueid": "MTK3375:3DOCMVPBTOLAMW5QBA30IJCVQHSNNV", "dateTime": 1520457770887}, {"current_trial": 79, "trialdata": {"rt": -1, "trial_type": "single-stim", "stimulus": "<p id=\"stim\">9</p>", "internal_node_id": "0.0-60.0-1.0", "time_elapsed": 589284, "key_press": -1, "trial_index": 79}, "uniqueid": "MTK3375:3DOCMVPBTOLAMW5QBA30IJCVQHSNNV", "dateTime": 1520457771890}, {"current_trial": 80, "trialdata": {"rt": -1, "trial_type": "single-stim", "stimulus": "<p id=\"stim\">8</p>", "internal_node_id": "0.0-60.0-2.0", "time_elapsed": 590286, "key_press": -1, "trial_index": 80}, "uniqueid": "MTK3375:3DOCMVPBTOLAMW5QBA30IJCVQHSNNV", "dateTime": 1520457772892}, {"current_trial": 81, "trialdata": {"rt": -1, "trial_type": "single-stim", "stimulus": "<p id=\"stim\">7</p>", "internal_node_id": "0.0-60.0-3.0", "time_elapsed": 591289, "key_press": -1, "trial_index": 81}, "uniqueid": "MTK3375:3DOCMVPBTOLAMW5QBA30IJCVQHSNNV", "dateTime": 1520457773896}, {"current_trial": 82, "trialdata": {"rt": -1, "trial_type": "single-stim", "stimulus": "<p id=\"stim\">6</p>", "internal_node_id": "0.0-60.0-4.0", "time_elapsed": 592292, "key_press": -1, "trial_index": 82}, "uniqueid": "MTK3375:3DOCMVPBTOLAMW5QBA30IJCVQHSNNV", "dateTime": 1520457774897}, {"current_trial": 83, "trialdata": {"rt": -1, "trial_type": "single-stim", "stimulus": "<p id=\"stim\">5</p>", "internal_node_id": "0.0-60.0-5.0", "time_elapsed": 593294, "key_press": -1, "trial_index": 83}, "uniqueid": "MTK3375:3DOCMVPBTOLAMW5QBA30IJCVQHSNNV", "dateTime": 1520457775899}, {"current_trial": 84, "trialdata": {"rt": -1, "trial_type": "single-stim", "stimulus": "<p id=\"stim\">4</p>", "internal_node_id": "0.0-60.0-6.0", "time_elapsed": 594296, "key_press": -1, "trial_index": 84}, "uniqueid": "MTK3375:3DOCMVPBTOLAMW5QBA30IJCVQHSNNV", "dateTime": 1520457776901}, {"current_trial": 85, "trialdata": {"rt": -1, "trial_type": "single-stim", "stimulus": "<p id=\"stim\">3</p>", "internal_node_id": "0.0-60.0-7.0", "time_elapsed": 595299, "key_press": -1, "trial_index": 85}, "uniqueid": "MTK3375:3DOCMVPBTOLAMW5QBA30IJCVQHSNNV", "dateTime": 1520457777904}, {"current_trial": 86, "trialdata": {"rt": -1, "trial_type": "single-stim", "stimulus": "<p id=\"stim\">2</p>", "internal_node_id": "0.0-60.0-8.0", "time_elapsed": 596303, "key_press": -1, "trial_index": 86}, "uniqueid": "MTK3375:3DOCMVPBTOLAMW5QBA30IJCVQHSNNV", "dateTime": 1520457778908}, {"current_trial": 87, "trialdata": {"rt": -1, "trial_type": "single-stim", "stimulus": "<p id=\"stim\">1</p>", "internal_node_id": "0.0-60.0-9.0", "time_elapsed": 597304, "key_press": -1, "trial_index": 87}, "uniqueid": "MTK3375:3DOCMVPBTOLAMW5QBA30IJCVQHSNNV", "dateTime": 1520457779909}, {"current_trial": 88, "trialdata": {"rt": -1, "trial_type": "single-stim", "stimulus": "<p id=\"stim\">+</p>", "internal_node_id": "0.0-61.0-0.0", "time_elapsed": 598807, "key_press": -1, "type": "FIXATION", "trial_index": 88}, "uniqueid": "MTK3375:3DOCMVPBTOLAMW5QBA30IJCVQHSNNV", "dateTime": 1520457781412}, {"current_trial": 89, "trialdata": {"rt": -1, "trial_type": "single-stim", "word": "freckle", "stimulus": "<p id=\"stim\">FRECKLE</p>", "conditions": [24, 1600, "v", 24000], "internal_node_id": "0.0-62.0", "trial": 2, "time_elapsed": 600410, "serialpos": 0, "key_press": -1, "wordID": 601, "type": "PRES_VIS", "trial_index": 89}, "uniqueid": "MTK3375:3DOCMVPBTOLAMW5QBA30IJCVQHSNNV", "dateTime": 1520457783015}, {"current_trial": 90, "trialdata": {"rt": -1, "trial_type": "single-stim", "word": "elbow", "stimulus": "<p id=\"stim\">ELBOW</p>", "conditions": [24, 1600, "v", 24000], "internal_node_id": "0.0-63.0", "trial": 2, "time_elapsed": 602851, "serialpos": 1, "key_press": -1, "wordID": 519, "type": "PRES_VIS", "trial_index": 90}, "uniqueid": "MTK3375:3DOCMVPBTOLAMW5QBA30IJCVQHSNNV", "dateTime": 1520457785456}, {"current_trial": 91, "trialdata": {"rt": -1, "trial_type": "single-stim", "word": "cricket", "stimulus": "<p id=\"stim\">CRICKET</p>", "conditions": [24, 1600, "v", 24000], "internal_node_id": "0.0-64.0", "trial": 2, "time_elapsed": 605256, "serialpos": 2, "key_press": -1, "wordID": 407, "type": "PRES_VIS", "trial_index": 91}, "uniqueid": "MTK3375:3DOCMVPBTOLAMW5QBA30IJCVQHSNNV", "dateTime": 1520457787861}, {"current_trial": 92, "trialdata": {"rt": -1, "trial_type": "single-stim", "word": "rabbit", "stimulus": "<p id=\"stim\">RABBIT</p>", "conditions": [24, 1600, "v", 24000], "internal_node_id": "0.0-65.0", "trial": 2, "time_elapsed": 607865, "serialpos": 3, "key_press": -1, "wordID": 1151, "type": "PRES_VIS", "trial_index": 92}, "uniqueid": "MTK3375:3DOCMVPBTOLAMW5QBA30IJCVQHSNNV", "dateTime": 1520457790470}, {"current_trial": 93, "trialdata": {"rt": -1, "trial_type": "single-stim", "word": "possum", "stimulus": "<p id=\"stim\">POSSUM</p>", "conditions": [24, 1600, "v", 24000], "internal_node_id": "0.0-66.0", "trial": 2, "time_elapsed": 610280, "serialpos": 4, "key_press": -1, "wordID": 1111, "type": "PRES_VIS", "trial_index": 93}, "uniqueid": "MTK3375:3DOCMVPBTOLAMW5QBA30IJCVQHSNNV", "dateTime": 1520457792886}, {"current_trial": 94, "trialdata": {"rt": -1, "trial_type": "single-stim", "word": "milk", "stimulus": "<p id=\"stim\">MILK</p>", "conditions": [24, 1600, "v", 24000], "internal_node_id": "0.0-67.0", "trial": 2, "time_elapsed": 612766, "serialpos": 5, "key_press": -1, "wordID": 894, "type": "PRES_VIS", "trial_index": 94}, "uniqueid": "MTK3375:3DOCMVPBTOLAMW5QBA30IJCVQHSNNV", "dateTime": 1520457795371}, {"current_trial": 95, "trialdata": {"rt": -1, "trial_type": "single-stim", "word": "viking", "stimulus": "<p id=\"stim\">VIKING</p>", "conditions": [24, 1600, "v", 24000], "internal_node_id": "0.0-68.0", "trial": 2, "time_elapsed": 615371, "serialpos": 6, "key_press": -1, "wordID": 1564, "type": "PRES_VIS", "trial_index": 95}, "uniqueid": "MTK3375:3DOCMVPBTOLAMW5QBA30IJCVQHSNNV", "dateTime": 1520457797976}, {"current_trial": 96, "trialdata": {"rt": -1, "trial_type": "single-stim", "word": "country", "stimulus": "<p id=\"stim\">COUNTRY</p>", "conditions": [24, 1600, "v", 24000], "internal_node_id": "0.0-69.0", "trial": 2, "time_elapsed": 618087, "serialpos": 7, "key_press": -1, "wordID": 387, "type": "PRES_VIS", "trial_index": 96}, "uniqueid": "MTK3375:3DOCMVPBTOLAMW5QBA30IJCVQHSNNV", "dateTime": 1520457800697}, {"current_trial": 97, "trialdata": {"rt": -1, "trial_type": "single-stim", "word": "county", "stimulus": "<p id=\"stim\">COUNTY</p>", "conditions": [24, 1600, "v", 24000], "internal_node_id": "0.0-70.0", "trial": 2, "time_elapsed": 620526, "serialpos": 8, "key_press": -1, "wordID": 388, "type": "PRES_VIS", "trial_index": 97}, "uniqueid": "MTK3375:3DOCMVPBTOLAMW5QBA30IJCVQHSNNV", "dateTime": 1520457803131}, {"current_trial": 98, "trialdata": {"rt": -1, "trial_type": "single-stim", "word": "softball", "stimulus": "<p id=\"stim\">SOFTBALL</p>", "conditions": [24, 1600, "v", 24000], "internal_node_id": "0.0-71.0", "trial": 2, "time_elapsed": 623205, "serialpos": 9, "key_press": -1, "wordID": 1342, "type": "PRES_VIS", "trial_index": 98}, "uniqueid": "MTK3375:3DOCMVPBTOLAMW5QBA30IJCVQHSNNV", "dateTime": 1520457805811}, {"current_trial": 99, "trialdata": {"rt": -1, "trial_type": "single-stim", "word": "crater", "stimulus": "<p id=\"stim\">CRATER</p>", "conditions": [24, 1600, "v", 24000], "internal_node_id": "0.0-72.0", "trial": 2, "time_elapsed": 625624, "serialpos": 10, "key_press": -1, "wordID": 399, "type": "PRES_VIS", "trial_index": 99}, "uniqueid": "MTK3375:3DOCMVPBTOLAMW5QBA30IJCVQHSNNV", "dateTime": 1520457808230}, {"current_trial": 100, "trialdata": {"rt": -1, "trial_type": "single-stim", "word": "pimple", "stimulus": "<p id=\"stim\">PIMPLE</p>", "conditions": [24, 1600, "v", 24000], "internal_node_id": "0.0-73.0", "trial": 2, "time_elapsed": 628079, "serialpos": 11, "key_press": -1, "wordID": 1070, "type": "PRES_VIS", "trial_index": 100}, "uniqueid": "MTK3375:3DOCMVPBTOLAMW5QBA30IJCVQHSNNV", "dateTime": 1520457810685}, {"current_trial": 101, "trialdata": {"rt": -1, "trial_type": "single-stim", "word": "statue", "stimulus": "<p id=\"stim\">STATUE</p>", "conditions": [24, 1600, "v", 24000], "internal_node_id": "0.0-74.0", "trial": 2, "time_elapsed": 630701, "serialpos": 12, "key_press": -1, "wordID": 1373, "type": "PRES_VIS", "trial_index": 101}, "uniqueid": "MTK3375:3DOCMVPBTOLAMW5QBA30IJCVQHSNNV", "dateTime": 1520457813307}, {"current_trial": 102, "trialdata": {"rt": -1, "trial_type": "single-stim", "word": "radish", "stimulus": "<p id=\"stim\">RADISH</p>", "conditions": [24, 1600, "v", 24000], "internal_node_id": "0.0-75.0", "trial": 2, "time_elapsed": 633406, "serialpos": 13, "key_press": -1, "wordID": 1157, "type": "PRES_VIS", "trial_index": 102}, "uniqueid": "MTK3375:3DOCMVPBTOLAMW5QBA30IJCVQHSNNV", "dateTime": 1520457816011}, {"current_trial": 103, "trialdata": {"rt": -1, "trial_type": "single-stim", "word": "turnip", "stimulus": "<p id=\"stim\">TURNIP</p>", "conditions": [24, 1600, "v", 24000], "internal_node_id": "0.0-76.0", "trial": 2, "time_elapsed": 635835, "serialpos": 14, "key_press": -1, "wordID": 1520, "type": "PRES_VIS", "trial_index": 103}, "uniqueid": "MTK3375:3DOCMVPBTOLAMW5QBA30IJCVQHSNNV", "dateTime": 1520457818440}, {"current_trial": 104, "trialdata": {"rt": -1, "trial_type": "single-stim", "word": "tuba", "stimulus": "<p id=\"stim\">TUBA</p>", "conditions": [24, 1600, "v", 24000], "internal_node_id": "0.0-77.0", "trial": 2, "time_elapsed": 638527, "serialpos": 15, "key_press": -1, "wordID": 1514, "type": "PRES_VIS", "trial_index": 104}, "uniqueid": "MTK3375:3DOCMVPBTOLAMW5QBA30IJCVQHSNNV", "dateTime": 1520457821132}, {"current_trial": 105, "trialdata": {"rt": -1, "trial_type": "single-stim", "word": "playground", "stimulus": "<p id=\"stim\">PLAYGROUND</p>", "conditions": [24, 1600, "v", 24000], "internal_node_id": "0.0-78.0", "trial": 2, "time_elapsed": 641250, "serialpos": 16, "key_press": -1, "wordID": 1086, "type": "PRES_VIS", "trial_index": 105}, "uniqueid": "MTK3375:3DOCMVPBTOLAMW5QBA30IJCVQHSNNV", "dateTime": 1520457823856}, {"current_trial": 106, "trialdata": {"rt": -1, "trial_type": "single-stim", "word": "hatchet", "stimulus": "<p id=\"stim\">HATCHET</p>", "conditions": [24, 1600, "v", 24000], "internal_node_id": "0.0-79.0", "trial": 2, "time_elapsed": 643735, "serialpos": 17, "key_press": -1, "wordID": 690, "type": "PRES_VIS", "trial_index": 106}, "uniqueid": "MTK3375:3DOCMVPBTOLAMW5QBA30IJCVQHSNNV", "dateTime": 1520457826340}, {"current_trial": 107, "trialdata": {"rt": -1, "trial_type": "single-stim", "word": "shoulder", "stimulus": "<p id=\"stim\">SHOULDER</p>", "conditions": [24, 1600, "v", 24000], "internal_node_id": "0.0-80.0", "trial": 2, "time_elapsed": 646292, "serialpos": 18, "key_press": -1, "wordID": 1293, "type": "PRES_VIS", "trial_index": 107}, "uniqueid": "MTK3375:3DOCMVPBTOLAMW5QBA30IJCVQHSNNV", "dateTime": 1520457828898}, {"current_trial": 108, "trialdata": {"rt": -1, "trial_type": "single-stim", "word": "bug", "stimulus": "<p id=\"stim\">BUG</p>", "conditions": [24, 1600, "v", 24000], "internal_node_id": "0.0-81.0", "trial": 2, "time_elapsed": 648839, "serialpos": 19, "key_press": -1, "wordID": 186, "type": "PRES_VIS", "trial_index": 108}, "uniqueid": "MTK3375:3DOCMVPBTOLAMW5QBA30IJCVQHSNNV", "dateTime": 1520457831445}, {"current_trial": 109, "trialdata": {"rt": -1, "trial_type": "single-stim", "word": "maple", "stimulus": "<p id=\"stim\">MAPLE</p>", "conditions": [24, 1600, "v", 24000], "internal_node_id": "0.0-82.0", "trial": 2, "time_elapsed": 651600, "serialpos": 20, "key_press": -1, "wordID": 865, "type": "PRES_VIS", "trial_index": 109}, "uniqueid": "MTK3375:3DOCMVPBTOLAMW5QBA30IJCVQHSNNV", "dateTime": 1520457834205}, {"current_trial": 110, "trialdata": {"rt": -1, "trial_type": "single-stim", "word": "sculpture", "stimulus": "<p id=\"stim\">SCULPTURE</p>", "conditions": [24, 1600, "v", 24000], "internal_node_id": "0.0-83.0", "trial": 2, "time_elapsed": 654116, "serialpos": 21, "key_press": -1, "wordID": 1257, "type": "PRES_VIS", "trial_index": 110}, "uniqueid": "MTK3375:3DOCMVPBTOLAMW5QBA30IJCVQHSNNV", "dateTime": 1520457836721}, {"current_trial": 111, "trialdata": {"rt": -1, "trial_type": "single-stim", "word": "dresser", "stimulus": "<p id=\"stim\">DRESSER</p>", "conditions": [24, 1600, "v", 24000], "internal_node_id": "0.0-84.0", "trial": 2, "time_elapsed": 656804, "serialpos": 22, "key_press": -1, "wordID": 495, "type": "PRES_VIS", "trial_index": 111}, "uniqueid": "MTK3375:3DOCMVPBTOLAMW5QBA30IJCVQHSNNV", "dateTime": 1520457839409}, {"current_trial": 112, "trialdata": {"rt": -1, "trial_type": "single-stim", "word": "kleenex", "stimulus": "<p id=\"stim\">KLEENEX</p>", "conditions": [24, 1600, "v", 24000], "internal_node_id": "0.0-85.0", "trial": 2, "time_elapsed": 659589, "serialpos": 23, "key_press": -1, "wordID": 781, "type": "PRES_VIS", "trial_index": 112}, "uniqueid": "MTK3375:3DOCMVPBTOLAMW5QBA30IJCVQHSNNV", "dateTime": 1520457842194}, {"current_trial": 113, "trialdata": {"rt": -1, "trial_type": "single-stim", "stimulus": "", "internal_node_id": "0.0-86.0-0.0", "time_elapsed": 661845, "key_press": -1, "type": "PRE_RECALL_DELAY", "trial_index": 113}, "uniqueid": "MTK3375:3DOCMVPBTOLAMW5QBA30IJCVQHSNNV", "dateTime": 1520457844450}, {"current_trial": 114, "trialdata": {"rt": -1000, "trial_type": "single-audio", "stimulus": "/static/audio/400Hz.wav", "internal_node_id": "0.0-87.0", "time_elapsed": 662348, "key_press": -1, "type": "PRE_RECALL_ALERT", "trial_index": 114}, "uniqueid": "MTK3375:3DOCMVPBTOLAMW5QBA30IJCVQHSNNV", "dateTime": 1520457844953}, {"current_trial": 115, "trialdata": {"rt": [9116, 13185, 16592, 21701, 27535, 32433, 39528, 43046, 53746, 57775], "recwords": ["elbow", "rabbit", "milk", "viking", "country", "softball", "pimple", "tuba", "shoudler", "maple"], "key_times": [4184, 6515, 7066, 7443, 7935, 9116, 10383, 10726, 11409, 11548, 12079, 12435, 13185, 14450, 14691, 14898, 15714, 16592, 18271, 18927, 19432, 19704, 19911, 20209, 21701, 22718, 23245, 25623, 25749, 26132, 26345, 26601, 27535, 28998, 29549, 30054, 30366, 30957, 31291, 31998, 32149, 32433, 35073, 35615, 36096, 36573, 36752, 37208, 39528, 40725, 41022, 41461, 41844, 43046, 44009, 44745, 47565, 48113, 51318, 51905, 52352, 52526, 53746, 54464, 54905, 55482, 55714, 56144, 57775, 58714, 58979, 59189, 59543, 59682, 59888], "trial_type": "free-recall", "conditions": [24, 1600, "v", 24000], "internal_node_id": "0.0-88.0-0.0", "key_presses": [69, 76, 66, 79, 87, 13, 82, 65, 66, 66, 73, 84, 13, 77, 73, 76, 75, 13, 86, 73, 75, 73, 78, 71, 13, 67, 79, 85, 78, 84, 82, 89, 13, 83, 79, 70, 84, 66, 65, 76, 76, 13, 80, 73, 77, 80, 76, 69, 13, 84, 85, 66, 65, 13, 83, 72, 79, 85, 68, 76, 69, 82, 13, 77, 65, 80, 76, 69, 13, 68, 82, 69, 83, 83, 69], "trial": 2, "time_elapsed": 722353, "type": "FREE_RECALL", "trial_index": 115}, "uniqueid": "MTK3375:3DOCMVPBTOLAMW5QBA30IJCVQHSNNV", "dateTime": 1520457904964}, {"current_trial": 116, "trialdata": {"rt": 1943, "trial_type": "text", "internal_node_id": "0.0-89.0", "time_elapsed": 726305, "key_press": 32, "type": "INSTRUCTIONS", "trial_index": 116}, "uniqueid": "MTK3375:3DOCMVPBTOLAMW5QBA30IJCVQHSNNV", "dateTime": 1520457908910}, {"current_trial": 117, "trialdata": {"rt": [7710, 11570], "trial_type": "math-distractor", "key_times": [7035, 7208, 7710, 11283, 11570], "responses": ["12", "6"], "num2": [3, 1, 6], "num3": [4, 2, 9], "conditions": [12, 1600, "v", 12000], "internal_node_id": "0.0-90.0", "key_presses": [97, 98, 13, 102, 13], "trial": 3, "time_elapsed": 740313, "type": "DISTRACTOR", "trial_index": 117, "num1": [5, 3, 4]}, "uniqueid": "MTK3375:3DOCMVPBTOLAMW5QBA30IJCVQHSNNV", "dateTime": 1520457922919}, {"current_trial": 118, "trialdata": {"rt": -1, "trial_type": "single-stim", "stimulus": "<p id=\"stim\">10</p>", "internal_node_id": "0.0-91.0-0.0", "time_elapsed": 743416, "key_press": -1, "trial_index": 118}, "uniqueid": "MTK3375:3DOCMVPBTOLAMW5QBA30IJCVQHSNNV", "dateTime": 1520457926021}, {"current_trial": 119, "trialdata": {"rt": -1, "trial_type": "single-stim", "stimulus": "<p id=\"stim\">9</p>", "internal_node_id": "0.0-91.0-1.0", "time_elapsed": 744419, "key_press": -1, "trial_index": 119}, "uniqueid": "MTK3375:3DOCMVPBTOLAMW5QBA30IJCVQHSNNV", "dateTime": 1520457927024}, {"current_trial": 120, "trialdata": {"rt": -1, "trial_type": "single-stim", "stimulus": "<p id=\"stim\">8</p>", "internal_node_id": "0.0-91.0-2.0", "time_elapsed": 745420, "key_press": -1, "trial_index": 120}, "uniqueid": "MTK3375:3DOCMVPBTOLAMW5QBA30IJCVQHSNNV", "dateTime": 1520457928026}, {"current_trial": 121, "trialdata": {"rt": -1, "trial_type": "single-stim", "stimulus": "<p id=\"stim\">7</p>", "internal_node_id": "0.0-91.0-3.0", "time_elapsed": 746423, "key_press": -1, "trial_index": 121}, "uniqueid": "MTK3375:3DOCMVPBTOLAMW5QBA30IJCVQHSNNV", "dateTime": 1520457929028}, {"current_trial": 122, "trialdata": {"rt": -1, "trial_type": "single-stim", "stimulus": "<p id=\"stim\">6</p>", "internal_node_id": "0.0-91.0-4.0", "time_elapsed": 747425, "key_press": -1, "trial_index": 122}, "uniqueid": "MTK3375:3DOCMVPBTOLAMW5QBA30IJCVQHSNNV", "dateTime": 1520457930030}, {"current_trial": 123, "trialdata": {"rt": -1, "trial_type": "single-stim", "stimulus": "<p id=\"stim\">5</p>", "internal_node_id": "0.0-91.0-5.0", "time_elapsed": 748427, "key_press": -1, "trial_index": 123}, "uniqueid": "MTK3375:3DOCMVPBTOLAMW5QBA30IJCVQHSNNV", "dateTime": 1520457931032}, {"current_trial": 124, "trialdata": {"rt": -1, "trial_type": "single-stim", "stimulus": "<p id=\"stim\">4</p>", "internal_node_id": "0.0-91.0-6.0", "time_elapsed": 749430, "key_press": -1, "trial_index": 124}, "uniqueid": "MTK3375:3DOCMVPBTOLAMW5QBA30IJCVQHSNNV", "dateTime": 1520457932035}, {"current_trial": 125, "trialdata": {"rt": -1, "trial_type": "single-stim", "stimulus": "<p id=\"stim\">3</p>", "internal_node_id": "0.0-91.0-7.0", "time_elapsed": 750432, "key_press": -1, "trial_index": 125}, "uniqueid": "MTK3375:3DOCMVPBTOLAMW5QBA30IJCVQHSNNV", "dateTime": 1520457933037}, {"current_trial": 126, "trialdata": {"rt": -1, "trial_type": "single-stim", "stimulus": "<p id=\"stim\">2</p>", "internal_node_id": "0.0-91.0-8.0", "time_elapsed": 751547, "key_press": -1, "trial_index": 126}, "uniqueid": "MTK3375:3DOCMVPBTOLAMW5QBA30IJCVQHSNNV", "dateTime": 1520457934152}, {"current_trial": 127, "trialdata": {"rt": -1, "trial_type": "single-stim", "stimulus": "<p id=\"stim\">1</p>", "internal_node_id": "0.0-91.0-9.0", "time_elapsed": 752549, "key_press": -1, "trial_index": 127}, "uniqueid": "MTK3375:3DOCMVPBTOLAMW5QBA30IJCVQHSNNV", "dateTime": 1520457935154}, {"current_trial": 128, "trialdata": {"rt": -1, "trial_type": "single-stim", "stimulus": "<p id=\"stim\">+</p>", "internal_node_id": "0.0-92.0-0.0", "time_elapsed": 754052, "key_press": -1, "type": "FIXATION", "trial_index": 128}, "uniqueid": "MTK3375:3DOCMVPBTOLAMW5QBA30IJCVQHSNNV", "dateTime": 1520457936657}, {"current_trial": 129, "trialdata": {"rt": -1, "trial_type": "single-stim", "word": "popcorn", "stimulus": "<p id=\"stim\">POPCORN</p>", "conditions": [12, 1600, "v", 12000], "internal_node_id": "0.0-93.0", "trial": 3, "time_elapsed": 755655, "serialpos": 0, "key_press": -1, "wordID": 1103, "type": "PRES_VIS", "trial_index": 129}, "uniqueid": "MTK3375:3DOCMVPBTOLAMW5QBA30IJCVQHSNNV", "dateTime": 1520457938260}, {"current_trial": 130, "trialdata": {"rt": -1, "trial_type": "single-stim", "word": "convict", "stimulus": "<p id=\"stim\">CONVICT</p>", "conditions": [12, 1600, "v", 12000], "internal_node_id": "0.0-94.0", "trial": 3, "time_elapsed": 758118, "serialpos": 1, "key_press": -1, "wordID": 370, "type": "PRES_VIS", "trial_index": 130}, "uniqueid": "MTK3375:3DOCMVPBTOLAMW5QBA30IJCVQHSNNV", "dateTime": 1520457940724}, {"current_trial": 131, "trialdata": {"rt": -1, "trial_type": "single-stim", "word": "wife", "stimulus": "<p id=\"stim\">WIFE</p>", "conditions": [12, 1600, "v", 12000], "internal_node_id": "0.0-95.0", "trial": 3, "time_elapsed": 760728, "serialpos": 2, "key_press": -1, "wordID": 1608, "type": "PRES_VIS", "trial_index": 131}, "uniqueid": "MTK3375:3DOCMVPBTOLAMW5QBA30IJCVQHSNNV", "dateTime": 1520457943333}, {"current_trial": 132, "trialdata": {"rt": -1, "trial_type": "single-stim", "word": "napkin", "stimulus": "<p id=\"stim\">NAPKIN</p>", "conditions": [12, 1600, "v", 12000], "internal_node_id": "0.0-96.0", "trial": 3, "time_elapsed": 763723, "serialpos": 3, "key_press": -1, "wordID": 936, "type": "PRES_VIS", "trial_index": 132}, "uniqueid": "MTK3375:3DOCMVPBTOLAMW5QBA30IJCVQHSNNV", "dateTime": 1520457946328}, {"current_trial": 133, "trialdata": {"rt": -1, "trial_type": "single-stim", "word": "victim", "stimulus": "<p id=\"stim\">VICTIM</p>", "conditions": [12, 1600, "v", 12000], "internal_node_id": "0.0-97.0", "trial": 3, "time_elapsed": 766468, "serialpos": 4, "key_press": -1, "wordID": 1561, "type": "PRES_VIS", "trial_index": 133}, "uniqueid": "MTK3375:3DOCMVPBTOLAMW5QBA30IJCVQHSNNV", "dateTime": 1520457949073}, {"current_trial": 134, "trialdata": {"rt": -1, "trial_type": "single-stim", "word": "child", "stimulus": "<p id=\"stim\">CHILD</p>", "conditions": [12, 1600, "v", 12000], "internal_node_id": "0.0-98.0", "trial": 3, "time_elapsed": 769108, "serialpos": 5, "key_press": -1, "wordID": 298, "type": "PRES_VIS", "trial_index": 134}, "uniqueid": "MTK3375:3DOCMVPBTOLAMW5QBA30IJCVQHSNNV", "dateTime": 1520457951715}, {"current_trial": 135, "trialdata": {"rt": -1, "trial_type": "single-stim", "word": "infant", "stimulus": "<p id=\"stim\">INFANT</p>", "conditions": [12, 1600, "v", 12000], "internal_node_id": "0.0-99.0", "trial": 3, "time_elapsed": 771689, "serialpos": 6, "key_press": -1, "wordID": 736, "type": "PRES_VIS", "trial_index": 135}, "uniqueid": "MTK3375:3DOCMVPBTOLAMW5QBA30IJCVQHSNNV", "dateTime": 1520457954297}, {"current_trial": 136, "trialdata": {"rt": -1, "trial_type": "single-stim", "word": "marsh", "stimulus": "<p id=\"stim\">MARSH</p>", "conditions": [12, 1600, "v", 12000], "internal_node_id": "0.0-100.0", "trial": 3, "time_elapsed": 774372, "serialpos": 7, "key_press": -1, "wordID": 873, "type": "PRES_VIS", "trial_index": 136}, "uniqueid": "MTK3375:3DOCMVPBTOLAMW5QBA30IJCVQHSNNV", "dateTime": 1520457956977}, {"current_trial": 137, "trialdata": {"rt": -1, "trial_type": "single-stim", "word": "antler", "stimulus": "<p id=\"stim\">ANTLER</p>", "conditions": [12, 1600, "v", 12000], "internal_node_id": "0.0-101.0", "trial": 3, "time_elapsed": 777035, "serialpos": 8, "key_press": -1, "wordID": 28, "type": "PRES_VIS", "trial_index": 137}, "uniqueid": "MTK3375:3DOCMVPBTOLAMW5QBA30IJCVQHSNNV", "dateTime": 1520457959640}, {"current_trial": 138, "trialdata": {"rt": -1, "trial_type": "single-stim", "word": "mister", "stimulus": "<p id=\"stim\">MISTER</p>", "conditions": [12, 1600, "v", 12000], "internal_node_id": "0.0-102.0", "trial": 3, "time_elapsed": 779821, "serialpos": 9, "key_press": -1, "wordID": 900, "type": "PRES_VIS", "trial_index": 138}, "uniqueid": "MTK3375:3DOCMVPBTOLAMW5QBA30IJCVQHSNNV", "dateTime": 1520457962426}, {"current_trial": 139, "trialdata": {"rt": -1, "trial_type": "single-stim", "word": "lagoon", "stimulus": "<p id=\"stim\">LAGOON</p>", "conditions": [12, 1600, "v", 12000], "internal_node_id": "0.0-103.0", "trial": 3, "time_elapsed": 782365, "serialpos": 10, "key_press": -1, "wordID": 794, "type": "PRES_VIS", "trial_index": 139}, "uniqueid": "MTK3375:3DOCMVPBTOLAMW5QBA30IJCVQHSNNV", "dateTime": 1520457964970}, {"current_trial": 140, "trialdata": {"rt": -1, "trial_type": "single-stim", "word": "sunset", "stimulus": "<p id=\"stim\">SUNSET</p>", "conditions": [12, 1600, "v", 12000], "internal_node_id": "0.0-104.0", "trial": 3, "time_elapsed": 785074, "serialpos": 11, "key_press": -1, "wordID": 1407, "type": "PRES_VIS", "trial_index": 140}, "uniqueid": "MTK3375:3DOCMVPBTOLAMW5QBA30IJCVQHSNNV", "dateTime": 1520457967679}, {"current_trial": 141, "trialdata": {"rt": -1, "trial_type": "single-stim", "stimulus": "", "internal_node_id": "0.0-105.0-0.0", "time_elapsed": 787626, "key_press": -1, "type": "PRE_RECALL_DELAY", "trial_index": 141}, "uniqueid": "MTK3375:3DOCMVPBTOLAMW5QBA30IJCVQHSNNV", "dateTime": 1520457970231}, {"current_trial": 142, "trialdata": {"rt": -1000, "trial_type": "single-audio", "stimulus": "/static/audio/400Hz.wav", "internal_node_id": "0.0-106.0", "time_elapsed": 788130, "key_press": -1, "type": "PRE_RECALL_ALERT", "trial_index": 142}, "uniqueid": "MTK3375:3DOCMVPBTOLAMW5QBA30IJCVQHSNNV", "dateTime": 1520457970735}, {"current_trial": 143, "trialdata": {"rt": [7991, 12050, 19738, 23524, 31731, 37882, 42025, 47984], "recwords": ["popcorn", "nite", "napkin", "child", "antler", "lagoon", "sunset", "child"], "key_times": [2968, 3172, 3353, 4139, 4642, 5116, 5736, 7991, 9840, 10116, 10535, 10815, 12050, 12839, 13259, 14108, 16603, 16840, 18905, 19738, 20718, 21523, 21881, 22091, 22620, 23524, 26483, 27191, 28273, 29340, 29857, 30034, 31731, 34225, 34827, 36292, 36824, 36975, 37271, 37882, 38647, 39510, 39805, 40573, 40790, 41393, 42025, 45861, 46320, 46673, 46884, 47343, 47984, 59244, 59554], "trial_type": "free-recall", "conditions": [12, 1600, "v", 12000], "internal_node_id": "0.0-107.0-0.0", "key_presses": [80, 79, 80, 67, 79, 82, 78, 32, 78, 73, 84, 69, 13, 78, 65, 80, 75, 73, 78, 13, 67, 72, 73, 76, 68, 13, 65, 78, 84, 76, 69, 82, 13, 76, 65, 71, 79, 79, 78, 13, 83, 85, 78, 83, 69, 84, 13, 67, 72, 73, 76, 68, 13, 78, 73], "trial": 3, "time_elapsed": 848137, "type": "FREE_RECALL", "trial_index": 143}, "uniqueid": "MTK3375:3DOCMVPBTOLAMW5QBA30IJCVQHSNNV", "dateTime": 1520458030747}, {"current_trial": 144, "trialdata": {"rt": 2421, "trial_type": "text", "internal_node_id": "0.0-108.0", "time_elapsed": 852564, "key_press": 13, "type": "INSTRUCTIONS", "trial_index": 144}, "uniqueid": "MTK3375:3DOCMVPBTOLAMW5QBA30IJCVQHSNNV", "dateTime": 1520458035170}, {"current_trial": 145, "trialdata": {"rt": [5982, 10206, 14886, 16853, 18478, 22142], "trial_type": "math-distractor", "key_times": [4865, 5237, 5982, 9750, 9909, 10206, 14363, 14556, 14886, 16417, 16591, 16853, 18232, 18478, 21494, 21640, 22142], "responses": ["16", "11", "15", "15", "9", "11"], "num2": [5, 5, 3, 5, 3, 1, 8], "num3": [4, 4, 3, 5, 3, 4, 5], "conditions": [12, 1600, "v", 24000], "internal_node_id": "0.0-109.0", "key_presses": [97, 102, 13, 97, 97, 13, 97, 101, 13, 97, 101, 13, 105, 13, 97, 97, 13], "trial": 4, "time_elapsed": 878570, "type": "DISTRACTOR", "trial_index": 145, "num1": [7, 2, 9, 5, 3, 6, 2]}, "uniqueid": "MTK3375:3DOCMVPBTOLAMW5QBA30IJCVQHSNNV", "dateTime": 1520458061175}, {"current_trial": 146, "trialdata": {"rt": -1, "trial_type": "single-stim", "stimulus": "<p id=\"stim\">10</p>", "internal_node_id": "0.0-110.0-0.0", "time_elapsed": 881573, "key_press": -1, "trial_index": 146}, "uniqueid": "MTK3375:3DOCMVPBTOLAMW5QBA30IJCVQHSNNV", "dateTime": 1520458064178}, {"current_trial": 147, "trialdata": {"rt": -1, "trial_type": "single-stim", "stimulus": "<p id=\"stim\">9</p>", "internal_node_id": "0.0-110.0-1.0", "time_elapsed": 882575, "key_press": -1, "trial_index": 147}, "uniqueid": "MTK3375:3DOCMVPBTOLAMW5QBA30IJCVQHSNNV", "dateTime": 1520458065180}, {"current_trial": 148, "trialdata": {"rt": -1, "trial_type": "single-stim", "stimulus": "<p id=\"stim\">8</p>", "internal_node_id": "0.0-110.0-2.0", "time_elapsed": 883577, "key_press": -1, "trial_index": 148}, "uniqueid": "MTK3375:3DOCMVPBTOLAMW5QBA30IJCVQHSNNV", "dateTime": 1520458066183}, {"current_trial": 149, "trialdata": {"rt": -1, "trial_type": "single-stim", "stimulus": "<p id=\"stim\">7</p>", "internal_node_id": "0.0-110.0-3.0", "time_elapsed": 884580, "key_press": -1, "trial_index": 149}, "uniqueid": "MTK3375:3DOCMVPBTOLAMW5QBA30IJCVQHSNNV", "dateTime": 1520458067185}, {"current_trial": 150, "trialdata": {"rt": -1, "trial_type": "single-stim", "stimulus": "<p id=\"stim\">6</p>", "internal_node_id": "0.0-110.0-4.0", "time_elapsed": 885582, "key_press": -1, "trial_index": 150}, "uniqueid": "MTK3375:3DOCMVPBTOLAMW5QBA30IJCVQHSNNV", "dateTime": 1520458068187}, {"current_trial": 151, "trialdata": {"rt": -1, "trial_type": "single-stim", "stimulus": "<p id=\"stim\">5</p>", "internal_node_id": "0.0-110.0-5.0", "time_elapsed": 886584, "key_press": -1, "trial_index": 151}, "uniqueid": "MTK3375:3DOCMVPBTOLAMW5QBA30IJCVQHSNNV", "dateTime": 1520458069189}, {"current_trial": 152, "trialdata": {"rt": -1, "trial_type": "single-stim", "stimulus": "<p id=\"stim\">4</p>", "internal_node_id": "0.0-110.0-6.0", "time_elapsed": 887587, "key_press": -1, "trial_index": 152}, "uniqueid": "MTK3375:3DOCMVPBTOLAMW5QBA30IJCVQHSNNV", "dateTime": 1520458070192}, {"current_trial": 153, "trialdata": {"rt": -1, "trial_type": "single-stim", "stimulus": "<p id=\"stim\">3</p>", "internal_node_id": "0.0-110.0-7.0", "time_elapsed": 888590, "key_press": -1, "trial_index": 153}, "uniqueid": "MTK3375:3DOCMVPBTOLAMW5QBA30IJCVQHSNNV", "dateTime": 1520458071196}, {"current_trial": 154, "trialdata": {"rt": -1, "trial_type": "single-stim", "stimulus": "<p id=\"stim\">2</p>", "internal_node_id": "0.0-110.0-8.0", "time_elapsed": 889593, "key_press": -1, "trial_index": 154}, "uniqueid": "MTK3375:3DOCMVPBTOLAMW5QBA30IJCVQHSNNV", "dateTime": 1520458072198}, {"current_trial": 155, "trialdata": {"rt": -1, "trial_type": "single-stim", "stimulus": "<p id=\"stim\">1</p>", "internal_node_id": "0.0-110.0-9.0", "time_elapsed": 890595, "key_press": -1, "trial_index": 155}, "uniqueid": "MTK3375:3DOCMVPBTOLAMW5QBA30IJCVQHSNNV", "dateTime": 1520458073200}, {"current_trial": 156, "trialdata": {"rt": -1, "trial_type": "single-stim", "stimulus": "<p id=\"stim\">+</p>", "internal_node_id": "0.0-111.0-0.0", "time_elapsed": 892098, "key_press": -1, "type": "FIXATION", "trial_index": 156}, "uniqueid": "MTK3375:3DOCMVPBTOLAMW5QBA30IJCVQHSNNV", "dateTime": 1520458074703}, {"current_trial": 157, "trialdata": {"rt": -1, "trial_type": "single-stim", "word": "spider", "stimulus": "<p id=\"stim\">SPIDER</p>", "conditions": [12, 1600, "v", 24000], "internal_node_id": "0.0-112.0", "trial": 4, "time_elapsed": 893701, "serialpos": 0, "key_press": -1, "wordID": 1350, "type": "PRES_VIS", "trial_index": 157}, "uniqueid": "MTK3375:3DOCMVPBTOLAMW5QBA30IJCVQHSNNV", "dateTime": 1520458076306}, {"current_trial": 158, "trialdata": {"rt": -1, "trial_type": "single-stim", "word": "teacher", "stimulus": "<p id=\"stim\">TEACHER</p>", "conditions": [12, 1600, "v", 24000], "internal_node_id": "0.0-113.0", "trial": 4, "time_elapsed": 896400, "serialpos": 1, "key_press": -1, "wordID": 1439, "type": "PRES_VIS", "trial_index": 158}, "uniqueid": "MTK3375:3DOCMVPBTOLAMW5QBA30IJCVQHSNNV", "dateTime": 1520458079005}, {"current_trial": 159, "trialdata": {"rt": -1, "trial_type": "single-stim", "word": "whistle", "stimulus": "<p id=\"stim\">WHISTLE</p>", "conditions": [12, 1600, "v", 24000], "internal_node_id": "0.0-114.0", "trial": 4, "time_elapsed": 899193, "serialpos": 2, "key_press": -1, "wordID": 1605, "type": "PRES_VIS", "trial_index": 159}, "uniqueid": "MTK3375:3DOCMVPBTOLAMW5QBA30IJCVQHSNNV", "dateTime": 1520458081799}, {"current_trial": 160, "trialdata": {"rt": -1, "trial_type": "single-stim", "word": "cloud", "stimulus": "<p id=\"stim\">CLOUD</p>", "conditions": [12, 1600, "v", 24000], "internal_node_id": "0.0-115.0", "trial": 4, "time_elapsed": 901922, "serialpos": 3, "key_press": -1, "wordID": 327, "type": "PRES_VIS", "trial_index": 160}, "uniqueid": "MTK3375:3DOCMVPBTOLAMW5QBA30IJCVQHSNNV", "dateTime": 1520458084528}, {"current_trial": 161, "trialdata": {"rt": -1, "trial_type": "single-stim", "word": "cross", "stimulus": "<p id=\"stim\">CROSS</p>", "conditions": [12, 1600, "v", 24000], "internal_node_id": "0.0-116.0", "trial": 4, "time_elapsed": 904355, "serialpos": 4, "key_press": -1, "wordID": 412, "type": "PRES_VIS", "trial_index": 161}, "uniqueid": "MTK3375:3DOCMVPBTOLAMW5QBA30IJCVQHSNNV", "dateTime": 1520458086960}, {"current_trial": 162, "trialdata": {"rt": -1, "trial_type": "single-stim", "word": "briefcase", "stimulus": "<p id=\"stim\">BRIEFCASE</p>", "conditions": [12, 1600, "v", 24000], "internal_node_id": "0.0-117.0", "trial": 4, "time_elapsed": 907156, "serialpos": 5, "key_press": -1, "wordID": 174, "type": "PRES_VIS", "trial_index": 162}, "uniqueid": "MTK3375:3DOCMVPBTOLAMW5QBA30IJCVQHSNNV", "dateTime": 1520458089762}, {"current_trial": 163, "trialdata": {"rt": -1, "trial_type": "single-stim", "word": "knapsack", "stimulus": "<p id=\"stim\">KNAPSACK</p>", "conditions": [12, 1600, "v", 24000], "internal_node_id": "0.0-118.0", "trial": 4, "time_elapsed": 909915, "serialpos": 6, "key_press": -1, "wordID": 782, "type": "PRES_VIS", "trial_index": 163}, "uniqueid": "MTK3375:3DOCMVPBTOLAMW5QBA30IJCVQHSNNV", "dateTime": 1520458092520}, {"current_trial": 164, "trialdata": {"rt": -1, "trial_type": "single-stim", "word": "student", "stimulus": "<p id=\"stim\">STUDENT</p>", "conditions": [12, 1600, "v", 24000], "internal_node_id": "0.0-119.0", "trial": 4, "time_elapsed": 912327, "serialpos": 7, "key_press": -1, "wordID": 1394, "type": "PRES_VIS", "trial_index": 164}, "uniqueid": "MTK3375:3DOCMVPBTOLAMW5QBA30IJCVQHSNNV", "dateTime": 1520458094932}, {"current_trial": 165, "trialdata": {"rt": -1, "trial_type": "single-stim", "word": "cyclone", "stimulus": "<p id=\"stim\">CYCLONE</p>", "conditions": [12, 1600, "v", 24000], "internal_node_id": "0.0-120.0", "trial": 4, "time_elapsed": 914978, "serialpos": 8, "key_press": -1, "wordID": 430, "type": "PRES_VIS", "trial_index": 165}, "uniqueid": "MTK3375:3DOCMVPBTOLAMW5QBA30IJCVQHSNNV", "dateTime": 1520458097583}, {"current_trial": 166, "trialdata": {"rt": -1, "trial_type": "single-stim", "word": "shelter", "stimulus": "<p id=\"stim\">SHELTER</p>", "conditions": [12, 1600, "v", 24000], "internal_node_id": "0.0-121.0", "trial": 4, "time_elapsed": 917403, "serialpos": 9, "key_press": -1, "wordID": 1281, "type": "PRES_VIS", "trial_index": 166}, "uniqueid": "MTK3375:3DOCMVPBTOLAMW5QBA30IJCVQHSNNV", "dateTime": 1520458100008}, {"current_trial": 167, "trialdata": {"rt": -1, "trial_type": "single-stim", "word": "lightning", "stimulus": "<p id=\"stim\">LIGHTNING</p>", "conditions": [12, 1600, "v", 24000], "internal_node_id": "0.0-122.0", "trial": 4, "time_elapsed": 919879, "serialpos": 10, "key_press": -1, "wordID": 819, "type": "PRES_VIS", "trial_index": 167}, "uniqueid": "MTK3375:3DOCMVPBTOLAMW5QBA30IJCVQHSNNV", "dateTime": 1520458102484}, {"current_trial": 168, "trialdata": {"rt": -1, "trial_type": "single-stim", "word": "pigeon", "stimulus": "<p id=\"stim\">PIGEON</p>", "conditions": [12, 1600, "v", 24000], "internal_node_id": "0.0-123.0", "trial": 4, "time_elapsed": 922392, "serialpos": 11, "key_press": -1, "wordID": 1064, "type": "PRES_VIS", "trial_index": 168}, "uniqueid": "MTK3375:3DOCMVPBTOLAMW5QBA30IJCVQHSNNV", "dateTime": 1520458104997}, {"current_trial": 169, "trialdata": {"rt": -1, "trial_type": "single-stim", "stimulus": "", "internal_node_id": "0.0-124.0-0.0", "time_elapsed": 925013, "key_press": -1, "type": "PRE_RECALL_DELAY", "trial_index": 169}, "uniqueid": "MTK3375:3DOCMVPBTOLAMW5QBA30IJCVQHSNNV", "dateTime": 1520458107618}, {"current_trial": 170, "trialdata": {"rt": -1000, "trial_type": "single-audio", "stimulus": "/static/audio/400Hz.wav", "internal_node_id": "0.0-125.0", "time_elapsed": 925518, "key_press": -1, "type": "PRE_RECALL_ALERT", "trial_index": 170}, "uniqueid": "MTK3375:3DOCMVPBTOLAMW5QBA30IJCVQHSNNV", "dateTime": 1520458108123}, {"current_trial": 171, "trialdata": {"rt": [37912, 41233, 48036], "recwords": ["spder", "cloud", "knaps"], "key_times": [32127, 33415, 36737, 36957, 37108, 37912, 38588, 39241, 39340, 39635, 40020, 41233, 42814, 43434, 44489, 45314, 45726, 46443, 46893, 48036], "trial_type": "free-recall", "conditions": [12, 1600, "v", 24000], "internal_node_id": "0.0-126.0-0.0", "key_presses": [83, 80, 68, 69, 82, 13, 67, 76, 79, 85, 68, 13, 75, 65, 8, 78, 65, 80, 83, 13], "trial": 4, "time_elapsed": 985523, "type": "FREE_RECALL", "trial_index": 171}, "uniqueid": "MTK3375:3DOCMVPBTOLAMW5QBA30IJCVQHSNNV", "dateTime": 1520458168136}, {"current_trial": 172, "trialdata": {"rt": 7700, "trial_type": "text", "internal_node_id": "0.0-127.0", "time_elapsed": 995233, "key_press": 13, "type": "INSTRUCTIONS", "trial_index": 172}, "uniqueid": "MTK3375:3DOCMVPBTOLAMW5QBA30IJCVQHSNNV", "dateTime": 1520458177838}, {"current_trial": 173, "trialdata": {"rt": [4760, 9726], "trial_type": "math-distractor", "key_times": [4224, 4440, 4760, 9310, 9474, 9726], "responses": ["18", "11"], "num2": [2, 1, 4], "num3": [9, 9, 3], "conditions": [24, 800, "v", 12000], "internal_node_id": "0.0-128.0", "key_presses": [97, 104, 13, 97, 97, 13], "trial": 5, "time_elapsed": 1009240, "type": "DISTRACTOR", "trial_index": 173, "num1": [7, 1, 9]}, "uniqueid": "MTK3375:3DOCMVPBTOLAMW5QBA30IJCVQHSNNV", "dateTime": 1520458191846}, {"current_trial": 174, "trialdata": {"rt": -1, "trial_type": "single-stim", "stimulus": "<p id=\"stim\">10</p>", "internal_node_id": "0.0-129.0-0.0", "time_elapsed": 1012244, "key_press": -1, "trial_index": 174}, "uniqueid": "MTK3375:3DOCMVPBTOLAMW5QBA30IJCVQHSNNV", "dateTime": 1520458194850}, {"current_trial": 175, "trialdata": {"rt": -1, "trial_type": "single-stim", "stimulus": "<p id=\"stim\">9</p>", "internal_node_id": "0.0-129.0-1.0", "time_elapsed": 1013247, "key_press": -1, "trial_index": 175}, "uniqueid": "MTK3375:3DOCMVPBTOLAMW5QBA30IJCVQHSNNV", "dateTime": 1520458195852}, {"current_trial": 176, "trialdata": {"rt": -1, "trial_type": "single-stim", "stimulus": "<p id=\"stim\">8</p>", "internal_node_id": "0.0-129.0-2.0", "time_elapsed": 1014250, "key_press": -1, "trial_index": 176}, "uniqueid": "MTK3375:3DOCMVPBTOLAMW5QBA30IJCVQHSNNV", "dateTime": 1520458196855}, {"current_trial": 177, "trialdata": {"rt": -1, "trial_type": "single-stim", "stimulus": "<p id=\"stim\">7</p>", "internal_node_id": "0.0-129.0-3.0", "time_elapsed": 1015252, "key_press": -1, "trial_index": 177}, "uniqueid": "MTK3375:3DOCMVPBTOLAMW5QBA30IJCVQHSNNV", "dateTime": 1520458197858}, {"current_trial": 178, "trialdata": {"rt": -1, "trial_type": "single-stim", "stimulus": "<p id=\"stim\">6</p>", "internal_node_id": "0.0-129.0-4.0", "time_elapsed": 1016254, "key_press": -1, "trial_index": 178}, "uniqueid": "MTK3375:3DOCMVPBTOLAMW5QBA30IJCVQHSNNV", "dateTime": 1520458198860}, {"current_trial": 179, "trialdata": {"rt": -1, "trial_type": "single-stim", "stimulus": "<p id=\"stim\">5</p>", "internal_node_id": "0.0-129.0-5.0", "time_elapsed": 1017256, "key_press": -1, "trial_index": 179}, "uniqueid": "MTK3375:3DOCMVPBTOLAMW5QBA30IJCVQHSNNV", "dateTime": 1520458199862}, {"current_trial": 180, "trialdata": {"rt": -1, "trial_type": "single-stim", "stimulus": "<p id=\"stim\">4</p>", "internal_node_id": "0.0-129.0-6.0", "time_elapsed": 1018259, "key_press": -1, "trial_index": 180}, "uniqueid": "MTK3375:3DOCMVPBTOLAMW5QBA30IJCVQHSNNV", "dateTime": 1520458200864}, {"current_trial": 181, "trialdata": {"rt": -1, "trial_type": "single-stim", "stimulus": "<p id=\"stim\">3</p>", "internal_node_id": "0.0-129.0-7.0", "time_elapsed": 1019262, "key_press": -1, "trial_index": 181}, "uniqueid": "MTK3375:3DOCMVPBTOLAMW5QBA30IJCVQHSNNV", "dateTime": 1520458201868}, {"current_trial": 182, "trialdata": {"rt": -1, "trial_type": "single-stim", "stimulus": "<p id=\"stim\">2</p>", "internal_node_id": "0.0-129.0-8.0", "time_elapsed": 1020265, "key_press": -1, "trial_index": 182}, "uniqueid": "MTK3375:3DOCMVPBTOLAMW5QBA30IJCVQHSNNV", "dateTime": 1520458202870}, {"current_trial": 183, "trialdata": {"rt": -1, "trial_type": "single-stim", "stimulus": "<p id=\"stim\">1</p>", "internal_node_id": "0.0-129.0-9.0", "time_elapsed": 1021267, "key_press": -1, "trial_index": 183}, "uniqueid": "MTK3375:3DOCMVPBTOLAMW5QBA30IJCVQHSNNV", "dateTime": 1520458203872}, {"current_trial": 184, "trialdata": {"rt": -1, "trial_type": "single-stim", "stimulus": "<p id=\"stim\">+</p>", "internal_node_id": "0.0-130.0-0.0", "time_elapsed": 1022769, "key_press": -1, "type": "FIXATION", "trial_index": 184}, "uniqueid": "MTK3375:3DOCMVPBTOLAMW5QBA30IJCVQHSNNV", "dateTime": 1520458205374}, {"current_trial": 185, "trialdata": {"rt": -1, "trial_type": "single-stim", "word": "hamper", "stimulus": "<p id=\"stim\">HAMPER</p>", "conditions": [24, 800, "v", 12000], "internal_node_id": "0.0-131.0", "trial": 5, "time_elapsed": 1023572, "serialpos": 0, "key_press": -1, "wordID": 681, "type": "PRES_VIS", "trial_index": 185}, "uniqueid": "MTK3375:3DOCMVPBTOLAMW5QBA30IJCVQHSNNV", "dateTime": 1520458206178}, {"current_trial": 186, "trialdata": {"rt": -1, "trial_type": "single-stim", "word": "monster", "stimulus": "<p id=\"stim\">MONSTER</p>", "conditions": [24, 800, "v", 12000], "internal_node_id": "0.0-132.0", "trial": 5, "time_elapsed": 1025388, "serialpos": 1, "key_press": -1, "wordID": 911, "type": "PRES_VIS", "trial_index": 186}, "uniqueid": "MTK3375:3DOCMVPBTOLAMW5QBA30IJCVQHSNNV", "dateTime": 1520458207993}, {"current_trial": 187, "trialdata": {"rt": -1, "trial_type": "single-stim", "word": "robber", "stimulus": "<p id=\"stim\">ROBBER</p>", "conditions": [24, 800, "v", 12000], "internal_node_id": "0.0-133.0", "trial": 5, "time_elapsed": 1027237, "serialpos": 2, "key_press": -1, "wordID": 1196, "type": "PRES_VIS", "trial_index": 187}, "uniqueid": "MTK3375:3DOCMVPBTOLAMW5QBA30IJCVQHSNNV", "dateTime": 1520458209842}, {"current_trial": 188, "trialdata": {"rt": -1, "trial_type": "single-stim", "word": "branch", "stimulus": "<p id=\"stim\">BRANCH</p>", "conditions": [24, 800, "v", 12000], "internal_node_id": "0.0-134.0", "trial": 5, "time_elapsed": 1029241, "serialpos": 3, "key_press": -1, "wordID": 167, "type": "PRES_VIS", "trial_index": 188}, "uniqueid": "MTK3375:3DOCMVPBTOLAMW5QBA30IJCVQHSNNV", "dateTime": 1520458211846}, {"current_trial": 189, "trialdata": {"rt": -1, "trial_type": "single-stim", "word": "banker", "stimulus": "<p id=\"stim\">BANKER</p>", "conditions": [24, 800, "v", 12000], "internal_node_id": "0.0-135.0", "trial": 5, "time_elapsed": 1031147, "serialpos": 4, "key_press": -1, "wordID": 83, "type": "PRES_VIS", "trial_index": 189}, "uniqueid": "MTK3375:3DOCMVPBTOLAMW5QBA30IJCVQHSNNV", "dateTime": 1520458213752}, {"current_trial": 190, "trialdata": {"rt": -1, "trial_type": "single-stim", "word": "bank", "stimulus": "<p id=\"stim\">BANK</p>", "conditions": [24, 800, "v", 12000], "internal_node_id": "0.0-136.0", "trial": 5, "time_elapsed": 1032934, "serialpos": 5, "key_press": -1, "wordID": 82, "type": "PRES_VIS", "trial_index": 190}, "uniqueid": "MTK3375:3DOCMVPBTOLAMW5QBA30IJCVQHSNNV", "dateTime": 1520458215539}, {"current_trial": 191, "trialdata": {"rt": -1, "trial_type": "single-stim", "word": "canyon", "stimulus": "<p id=\"stim\">CANYON</p>", "conditions": [24, 800, "v", 12000], "internal_node_id": "0.0-137.0", "trial": 5, "time_elapsed": 1034548, "serialpos": 6, "key_press": -1, "wordID": 234, "type": "PRES_VIS", "trial_index": 191}, "uniqueid": "MTK3375:3DOCMVPBTOLAMW5QBA30IJCVQHSNNV", "dateTime": 1520458217153}, {"current_trial": 192, "trialdata": {"rt": -1, "trial_type": "single-stim", "word": "wagon", "stimulus": "<p id=\"stim\">WAGON</p>", "conditions": [24, 800, "v", 12000], "internal_node_id": "0.0-138.0", "trial": 5, "time_elapsed": 1036181, "serialpos": 7, "key_press": -1, "wordID": 1577, "type": "PRES_VIS", "trial_index": 192}, "uniqueid": "MTK3375:3DOCMVPBTOLAMW5QBA30IJCVQHSNNV", "dateTime": 1520458218786}, {"current_trial": 193, "trialdata": {"rt": -1, "trial_type": "single-stim", "word": "scribble", "stimulus": "<p id=\"stim\">SCRIBBLE</p>", "conditions": [24, 800, "v", 12000], "internal_node_id": "0.0-139.0", "trial": 5, "time_elapsed": 1038043, "serialpos": 8, "key_press": -1, "wordID": 1255, "type": "PRES_VIS", "trial_index": 193}, "uniqueid": "MTK3375:3DOCMVPBTOLAMW5QBA30IJCVQHSNNV", "dateTime": 1520458220648}, {"current_trial": 194, "trialdata": {"rt": -1, "trial_type": "single-stim", "word": "valley", "stimulus": "<p id=\"stim\">VALLEY</p>", "conditions": [24, 800, "v", 12000], "internal_node_id": "0.0-140.0", "trial": 5, "time_elapsed": 1039848, "serialpos": 9, "key_press": -1, "wordID": 1544, "type": "PRES_VIS", "trial_index": 194}, "uniqueid": "MTK3375:3DOCMVPBTOLAMW5QBA30IJCVQHSNNV", "dateTime": 1520458222454}, {"current_trial": 195, "trialdata": {"rt": -1, "trial_type": "single-stim", "word": "skirt", "stimulus": "<p id=\"stim\">SKIRT</p>", "conditions": [24, 800, "v", 12000], "internal_node_id": "0.0-141.0", "trial": 5, "time_elapsed": 1041778, "serialpos": 10, "key_press": -1, "wordID": 1318, "type": "PRES_VIS", "trial_index": 195}, "uniqueid": "MTK3375:3DOCMVPBTOLAMW5QBA30IJCVQHSNNV", "dateTime": 1520458224383}, {"current_trial": 196, "trialdata": {"rt": -1, "trial_type": "single-stim", "word": "actress", "stimulus": "<p id=\"stim\">ACTRESS</p>", "conditions": [24, 800, "v", 12000], "internal_node_id": "0.0-142.0", "trial": 5, "time_elapsed": 1043610, "serialpos": 11, "key_press": -1, "wordID": 5, "type": "PRES_VIS", "trial_index": 196}, "uniqueid": "MTK3375:3DOCMVPBTOLAMW5QBA30IJCVQHSNNV", "dateTime": 1520458226215}, {"current_trial": 197, "trialdata": {"rt": -1, "trial_type": "single-stim", "word": "garden", "stimulus": "<p id=\"stim\">GARDEN</p>", "conditions": [24, 800, "v", 12000], "internal_node_id": "0.0-143.0", "trial": 5, "time_elapsed": 1045247, "serialpos": 12, "key_press": -1, "wordID": 622, "type": "PRES_VIS", "trial_index": 197}, "uniqueid": "MTK3375:3DOCMVPBTOLAMW5QBA30IJCVQHSNNV", "dateTime": 1520458227852}, {"current_trial": 198, "trialdata": {"rt": -1, "trial_type": "single-stim", "word": "picnic", "stimulus": "<p id=\"stim\">PICNIC</p>", "conditions": [24, 800, "v", 12000], "internal_node_id": "0.0-144.0", "trial": 5, "time_elapsed": 1047086, "serialpos": 13, "key_press": -1, "wordID": 1059, "type": "PRES_VIS", "trial_index": 198}, "uniqueid": "MTK3375:3DOCMVPBTOLAMW5QBA30IJCVQHSNNV", "dateTime": 1520458229691}, {"current_trial": 199, "trialdata": {"rt": -1, "trial_type": "single-stim", "word": "lunch", "stimulus": "<p id=\"stim\">LUNCH</p>", "conditions": [24, 800, "v", 12000], "internal_node_id": "0.0-145.0", "trial": 5, "time_elapsed": 1049063, "serialpos": 14, "key_press": -1, "wordID": 848, "type": "PRES_VIS", "trial_index": 199}, "uniqueid": "MTK3375:3DOCMVPBTOLAMW5QBA30IJCVQHSNNV", "dateTime": 1520458231669}, {"current_trial": 200, "trialdata": {"rt": -1, "trial_type": "single-stim", "word": "handbag", "stimulus": "<p id=\"stim\">HANDBAG</p>", "conditions": [24, 800, "v", 12000], "internal_node_id": "0.0-146.0", "trial": 5, "time_elapsed": 1050865, "serialpos": 15, "key_press": -1, "wordID": 683, "type": "PRES_VIS", "trial_index": 200}, "uniqueid": "MTK3375:3DOCMVPBTOLAMW5QBA30IJCVQHSNNV", "dateTime": 1520458233470}, {"current_trial": 201, "trialdata": {"rt": -1, "trial_type": "single-stim", "word": "necklace", "stimulus": "<p id=\"stim\">NECKLACE</p>", "conditions": [24, 800, "v", 12000], "internal_node_id": "0.0-147.0", "trial": 5, "time_elapsed": 1052586, "serialpos": 16, "key_press": -1, "wordID": 939, "type": "PRES_VIS", "trial_index": 201}, "uniqueid": "MTK3375:3DOCMVPBTOLAMW5QBA30IJCVQHSNNV", "dateTime": 1520458235192}, {"current_trial": 202, "trialdata": {"rt": -1, "trial_type": "single-stim", "word": "island", "stimulus": "<p id=\"stim\">ISLAND</p>", "conditions": [24, 800, "v", 12000], "internal_node_id": "0.0-148.0", "trial": 5, "time_elapsed": 1054479, "serialpos": 17, "key_press": -1, "wordID": 744, "type": "PRES_VIS", "trial_index": 202}, "uniqueid": "MTK3375:3DOCMVPBTOLAMW5QBA30IJCVQHSNNV", "dateTime": 1520458237084}, {"current_trial": 203, "trialdata": {"rt": -1, "trial_type": "single-stim", "word": "flower", "stimulus": "<p id=\"stim\">FLOWER</p>", "conditions": [24, 800, "v", 12000], "internal_node_id": "0.0-149.0", "trial": 5, "time_elapsed": 1056360, "serialpos": 18, "key_press": -1, "wordID": 583, "type": "PRES_VIS", "trial_index": 203}, "uniqueid": "MTK3375:3DOCMVPBTOLAMW5QBA30IJCVQHSNNV", "dateTime": 1520458238965}, {"current_trial": 204, "trialdata": {"rt": -1, "trial_type": "single-stim", "word": "trout", "stimulus": "<p id=\"stim\">TROUT</p>", "conditions": [24, 800, "v", 12000], "internal_node_id": "0.0-150.0", "trial": 5, "time_elapsed": 1058326, "serialpos": 19, "key_press": -1, "wordID": 1510, "type": "PRES_VIS", "trial_index": 204}, "uniqueid": "MTK3375:3DOCMVPBTOLAMW5QBA30IJCVQHSNNV", "dateTime": 1520458240931}, {"current_trial": 205, "trialdata": {"rt": -1, "trial_type": "single-stim", "word": "transplant", "stimulus": "<p id=\"stim\">TRANSPLANT</p>", "conditions": [24, 800, "v", 12000], "internal_node_id": "0.0-151.0", "trial": 5, "time_elapsed": 1060102, "serialpos": 20, "key_press": -1, "wordID": 1495, "type": "PRES_VIS", "trial_index": 205}, "uniqueid": "MTK3375:3DOCMVPBTOLAMW5QBA30IJCVQHSNNV", "dateTime": 1520458242707}, {"current_trial": 206, "trialdata": {"rt": -1, "trial_type": "single-stim", "word": "army", "stimulus": "<p id=\"stim\">ARMY</p>", "conditions": [24, 800, "v", 12000], "internal_node_id": "0.0-152.0", "trial": 5, "time_elapsed": 1061931, "serialpos": 21, "key_press": -1, "wordID": 38, "type": "PRES_VIS", "trial_index": 206}, "uniqueid": "MTK3375:3DOCMVPBTOLAMW5QBA30IJCVQHSNNV", "dateTime": 1520458244536}, {"current_trial": 207, "trialdata": {"rt": -1, "trial_type": "single-stim", "word": "razor", "stimulus": "<p id=\"stim\">RAZOR</p>", "conditions": [24, 800, "v", 12000], "internal_node_id": "0.0-153.0", "trial": 5, "time_elapsed": 1063746, "serialpos": 22, "key_press": -1, "wordID": 1170, "type": "PRES_VIS", "trial_index": 207}, "uniqueid": "MTK3375:3DOCMVPBTOLAMW5QBA30IJCVQHSNNV", "dateTime": 1520458246351}, {"current_trial": 208, "trialdata": {"rt": -1, "trial_type": "single-stim", "word": "stallion", "stimulus": "<p id=\"stim\">STALLION</p>", "conditions": [24, 800, "v", 12000], "internal_node_id": "0.0-154.0", "trial": 5, "time_elapsed": 1065434, "serialpos": 23, "key_press": -1, "wordID": 1368, "type": "PRES_VIS", "trial_index": 208}, "uniqueid": "MTK3375:3DOCMVPBTOLAMW5QBA30IJCVQHSNNV", "dateTime": 1520458248039}, {"current_trial": 209, "trialdata": {"rt": -1, "trial_type": "single-stim", "stimulus": "", "internal_node_id": "0.0-155.0-0.0", "time_elapsed": 1067784, "key_press": -1, "type": "PRE_RECALL_DELAY", "trial_index": 209}, "uniqueid": "MTK3375:3DOCMVPBTOLAMW5QBA30IJCVQHSNNV", "dateTime": 1520458250390}, {"current_trial": 210, "trialdata": {"rt": -1000, "trial_type": "single-audio", "stimulus": "/static/audio/400Hz.wav", "internal_node_id": "0.0-156.0", "time_elapsed": 1068296, "key_press": -1, "type": "PRE_RECALL_ALERT", "trial_index": 210}, "uniqueid": "MTK3375:3DOCMVPBTOLAMW5QBA30IJCVQHSNNV", "dateTime": 1520458250901}, {"current_trial": 211, "trialdata": {"rt": [8849, 13888, 16873, 20738, 26055, 32011, 35108, 42479, 45285], "recwords": ["monster", "branch", "bank", "wagon", "valley", "actress", "lunch", "island", "army"], "key_times": [5471, 6012, 6521, 7160, 7650, 7942, 8116, 8849, 11063, 11434, 11914, 12553, 12877, 13211, 13888, 14905, 15285, 15918, 16362, 16873, 18393, 18570, 19196, 19622, 19903, 20738, 22432, 22719, 23578, 23715, 24120, 24522, 26055, 27257, 27595, 29587, 29901, 30154, 30535, 30666, 32011, 32477, 32837, 33520, 33832, 34342, 35108, 36138, 36661, 37625, 38961, 39650, 40528, 41109, 41486, 42479, 43299, 43686, 44230, 44576, 45285], "trial_type": "free-recall", "conditions": [24, 800, "v", 12000], "internal_node_id": "0.0-157.0-0.0", "key_presses": [77, 79, 78, 83, 84, 69, 82, 13, 66, 82, 65, 78, 67, 72, 13, 66, 65, 78, 75, 13, 87, 65, 71, 79, 78, 13, 86, 65, 76, 76, 69, 89, 13, 65, 67, 84, 82, 69, 83, 83, 13, 76, 85, 78, 67, 72, 13, 73, 83, 76, 65, 77, 8, 78, 68, 13, 65, 82, 77, 89, 13], "trial": 5, "time_elapsed": 1128301, "type": "FREE_RECALL", "trial_index": 211}, "uniqueid": "MTK3375:3DOCMVPBTOLAMW5QBA30IJCVQHSNNV", "dateTime": 1520458310913}, {"current_trial": 212, "trialdata": {"rt": 7365, "trial_type": "text", "internal_node_id": "0.0-158.0", "time_elapsed": 1137675, "key_press": 13, "type": "INSTRUCTIONS", "trial_index": 212}, "uniqueid": "MTK3375:3DOCMVPBTOLAMW5QBA30IJCVQHSNNV", "dateTime": 1520458320280}, {"current_trial": 213, "trialdata": {"rt": [7454, 9908], "trial_type": "math-distractor", "key_times": [6517, 6773, 7454, 9143, 9554, 9908], "responses": ["16", "17"], "num2": [1, 2, 6], "num3": [9, 7, 4], "conditions": [12, 800, "v", 12000], "internal_node_id": "0.0-159.0", "key_presses": [97, 102, 13, 97, 103, 13], "trial": 6, "time_elapsed": 1151682, "type": "DISTRACTOR", "trial_index": 213, "num1": [6, 8, 3]}, "uniqueid": "MTK3375:3DOCMVPBTOLAMW5QBA30IJCVQHSNNV", "dateTime": 1520458334287}, {"current_trial": 214, "trialdata": {"rt": -1, "trial_type": "single-stim", "stimulus": "<p id=\"stim\">10</p>", "internal_node_id": "0.0-160.0-0.0", "time_elapsed": 1154686, "key_press": -1, "trial_index": 214}, "uniqueid": "MTK3375:3DOCMVPBTOLAMW5QBA30IJCVQHSNNV", "dateTime": 1520458337291}, {"current_trial": 215, "trialdata": {"rt": -1, "trial_type": "single-stim", "stimulus": "<p id=\"stim\">9</p>", "internal_node_id": "0.0-160.0-1.0", "time_elapsed": 1155687, "key_press": -1, "trial_index": 215}, "uniqueid": "MTK3375:3DOCMVPBTOLAMW5QBA30IJCVQHSNNV", "dateTime": 1520458338293}, {"current_trial": 216, "trialdata": {"rt": -1, "trial_type": "single-stim", "stimulus": "<p id=\"stim\">8</p>", "internal_node_id": "0.0-160.0-2.0", "time_elapsed": 1156690, "key_press": -1, "trial_index": 216}, "uniqueid": "MTK3375:3DOCMVPBTOLAMW5QBA30IJCVQHSNNV", "dateTime": 1520458339295}, {"current_trial": 217, "trialdata": {"rt": -1, "trial_type": "single-stim", "stimulus": "<p id=\"stim\">7</p>", "internal_node_id": "0.0-160.0-3.0", "time_elapsed": 1157693, "key_press": -1, "trial_index": 217}, "uniqueid": "MTK3375:3DOCMVPBTOLAMW5QBA30IJCVQHSNNV", "dateTime": 1520458340298}, {"current_trial": 218, "trialdata": {"rt": -1, "trial_type": "single-stim", "stimulus": "<p id=\"stim\">6</p>", "internal_node_id": "0.0-160.0-4.0", "time_elapsed": 1158696, "key_press": -1, "trial_index": 218}, "uniqueid": "MTK3375:3DOCMVPBTOLAMW5QBA30IJCVQHSNNV", "dateTime": 1520458341301}, {"current_trial": 219, "trialdata": {"rt": -1, "trial_type": "single-stim", "stimulus": "<p id=\"stim\">5</p>", "internal_node_id": "0.0-160.0-5.0", "time_elapsed": 1159698, "key_press": -1, "trial_index": 219}, "uniqueid": "MTK3375:3DOCMVPBTOLAMW5QBA30IJCVQHSNNV", "dateTime": 1520458342303}, {"current_trial": 220, "trialdata": {"rt": -1, "trial_type": "single-stim", "stimulus": "<p id=\"stim\">4</p>", "internal_node_id": "0.0-160.0-6.0", "time_elapsed": 1160700, "key_press": -1, "trial_index": 220}, "uniqueid": "MTK3375:3DOCMVPBTOLAMW5QBA30IJCVQHSNNV", "dateTime": 1520458343305}, {"current_trial": 221, "trialdata": {"rt": -1, "trial_type": "single-stim", "stimulus": "<p id=\"stim\">3</p>", "internal_node_id": "0.0-160.0-7.0", "time_elapsed": 1161703, "key_press": -1, "trial_index": 221}, "uniqueid": "MTK3375:3DOCMVPBTOLAMW5QBA30IJCVQHSNNV", "dateTime": 1520458344308}, {"current_trial": 222, "trialdata": {"rt": -1, "trial_type": "single-stim", "stimulus": "<p id=\"stim\">2</p>", "internal_node_id": "0.0-160.0-8.0", "time_elapsed": 1162706, "key_press": -1, "trial_index": 222}, "uniqueid": "MTK3375:3DOCMVPBTOLAMW5QBA30IJCVQHSNNV", "dateTime": 1520458345311}, {"current_trial": 223, "trialdata": {"rt": -1, "trial_type": "single-stim", "stimulus": "<p id=\"stim\">1</p>", "internal_node_id": "0.0-160.0-9.0", "time_elapsed": 1163708, "key_press": -1, "trial_index": 223}, "uniqueid": "MTK3375:3DOCMVPBTOLAMW5QBA30IJCVQHSNNV", "dateTime": 1520458346314}, {"current_trial": 224, "trialdata": {"rt": -1, "trial_type": "single-stim", "stimulus": "<p id=\"stim\">+</p>", "internal_node_id": "0.0-161.0-0.0", "time_elapsed": 1165211, "key_press": -1, "type": "FIXATION", "trial_index": 224}, "uniqueid": "MTK3375:3DOCMVPBTOLAMW5QBA30IJCVQHSNNV", "dateTime": 1520458347817}, {"current_trial": 225, "trialdata": {"rt": -1, "trial_type": "single-stim", "word": "salad", "stimulus": "<p id=\"stim\">SALAD</p>", "conditions": [12, 800, "v", 12000], "internal_node_id": "0.0-162.0", "trial": 6, "time_elapsed": 1166014, "serialpos": 0, "key_press": -1, "wordID": 1223, "type": "PRES_VIS", "trial_index": 225}, "uniqueid": "MTK3375:3DOCMVPBTOLAMW5QBA30IJCVQHSNNV", "dateTime": 1520458348619}, {"current_trial": 226, "trialdata": {"rt": -1, "trial_type": "single-stim", "word": "igloo", "stimulus": "<p id=\"stim\">IGLOO</p>", "conditions": [12, 800, "v", 12000], "internal_node_id": "0.0-163.0", "trial": 6, "time_elapsed": 1167775, "serialpos": 1, "key_press": -1, "wordID": 733, "type": "PRES_VIS", "trial_index": 226}, "uniqueid": "MTK3375:3DOCMVPBTOLAMW5QBA30IJCVQHSNNV", "dateTime": 1520458350380}, {"current_trial": 227, "trialdata": {"rt": -1, "trial_type": "single-stim", "word": "piston", "stimulus": "<p id=\"stim\">PISTON</p>", "conditions": [12, 800, "v", 12000], "internal_node_id": "0.0-164.0", "trial": 6, "time_elapsed": 1169392, "serialpos": 2, "key_press": -1, "wordID": 1075, "type": "PRES_VIS", "trial_index": 227}, "uniqueid": "MTK3375:3DOCMVPBTOLAMW5QBA30IJCVQHSNNV", "dateTime": 1520458351997}, {"current_trial": 228, "trialdata": {"rt": -1, "trial_type": "single-stim", "word": "snack", "stimulus": "<p id=\"stim\">SNACK</p>", "conditions": [12, 800, "v", 12000], "internal_node_id": "0.0-165.0", "trial": 6, "time_elapsed": 1171162, "serialpos": 3, "key_press": -1, "wordID": 1330, "type": "PRES_VIS", "trial_index": 228}, "uniqueid": "MTK3375:3DOCMVPBTOLAMW5QBA30IJCVQHSNNV", "dateTime": 1520458353767}, {"current_trial": 229, "trialdata": {"rt": -1, "trial_type": "single-stim", "word": "penguin", "stimulus": "<p id=\"stim\">PENGUIN</p>", "conditions": [12, 800, "v", 12000], "internal_node_id": "0.0-166.0", "trial": 6, "time_elapsed": 1172791, "serialpos": 4, "key_press": -1, "wordID": 1043, "type": "PRES_VIS", "trial_index": 229}, "uniqueid": "MTK3375:3DOCMVPBTOLAMW5QBA30IJCVQHSNNV", "dateTime": 1520458355396}, {"current_trial": 230, "trialdata": {"rt": -1, "trial_type": "single-stim", "word": "mammal", "stimulus": "<p id=\"stim\">MAMMAL</p>", "conditions": [12, 800, "v", 12000], "internal_node_id": "0.0-167.0", "trial": 6, "time_elapsed": 1174463, "serialpos": 5, "key_press": -1, "wordID": 860, "type": "PRES_VIS", "trial_index": 230}, "uniqueid": "MTK3375:3DOCMVPBTOLAMW5QBA30IJCVQHSNNV", "dateTime": 1520458357069}, {"current_trial": 231, "trialdata": {"rt": -1, "trial_type": "single-stim", "word": "banquet", "stimulus": "<p id=\"stim\">BANQUET</p>", "conditions": [12, 800, "v", 12000], "internal_node_id": "0.0-168.0", "trial": 6, "time_elapsed": 1176139, "serialpos": 6, "key_press": -1, "wordID": 85, "type": "PRES_VIS", "trial_index": 231}, "uniqueid": "MTK3375:3DOCMVPBTOLAMW5QBA30IJCVQHSNNV", "dateTime": 1520458358744}, {"current_trial": 232, "trialdata": {"rt": -1, "trial_type": "single-stim", "word": "snake", "stimulus": "<p id=\"stim\">SNAKE</p>", "conditions": [12, 800, "v", 12000], "internal_node_id": "0.0-169.0", "trial": 6, "time_elapsed": 1177779, "serialpos": 7, "key_press": -1, "wordID": 1332, "type": "PRES_VIS", "trial_index": 232}, "uniqueid": "MTK3375:3DOCMVPBTOLAMW5QBA30IJCVQHSNNV", "dateTime": 1520458360385}, {"current_trial": 233, "trialdata": {"rt": -1, "trial_type": "single-stim", "word": "pizza", "stimulus": "<p id=\"stim\">PIZZA</p>", "conditions": [12, 800, "v", 12000], "internal_node_id": "0.0-170.0", "trial": 6, "time_elapsed": 1179546, "serialpos": 8, "key_press": -1, "wordID": 1078, "type": "PRES_VIS", "trial_index": 233}, "uniqueid": "MTK3375:3DOCMVPBTOLAMW5QBA30IJCVQHSNNV", "dateTime": 1520458362151}, {"current_trial": 234, "trialdata": {"rt": -1, "trial_type": "single-stim", "word": "balloon", "stimulus": "<p id=\"stim\">BALLOON</p>", "conditions": [12, 800, "v", 12000], "internal_node_id": "0.0-171.0", "trial": 6, "time_elapsed": 1181229, "serialpos": 9, "key_press": -1, "wordID": 74, "type": "PRES_VIS", "trial_index": 234}, "uniqueid": "MTK3375:3DOCMVPBTOLAMW5QBA30IJCVQHSNNV", "dateTime": 1520458363835}, {"current_trial": 235, "trialdata": {"rt": -1, "trial_type": "single-stim", "word": "raft", "stimulus": "<p id=\"stim\">RAFT</p>", "conditions": [12, 800, "v", 12000], "internal_node_id": "0.0-172.0", "trial": 6, "time_elapsed": 1183010, "serialpos": 10, "key_press": -1, "wordID": 1158, "type": "PRES_VIS", "trial_index": 235}, "uniqueid": "MTK3375:3DOCMVPBTOLAMW5QBA30IJCVQHSNNV", "dateTime": 1520458365615}, {"current_trial": 236, "trialdata": {"rt": -1, "trial_type": "single-stim", "word": "tunnel", "stimulus": "<p id=\"stim\">TUNNEL</p>", "conditions": [12, 800, "v", 12000], "internal_node_id": "0.0-173.0", "trial": 6, "time_elapsed": 1184832, "serialpos": 11, "key_press": -1, "wordID": 1518, "type": "PRES_VIS", "trial_index": 236}, "uniqueid": "MTK3375:3DOCMVPBTOLAMW5QBA30IJCVQHSNNV", "dateTime": 1520458367438}, {"current_trial": 237, "trialdata": {"rt": -1, "trial_type": "single-stim", "stimulus": "", "internal_node_id": "0.0-174.0-0.0", "time_elapsed": 1186981, "key_press": -1, "type": "PRE_RECALL_DELAY", "trial_index": 237}, "uniqueid": "MTK3375:3DOCMVPBTOLAMW5QBA30IJCVQHSNNV", "dateTime": 1520458369586}, {"current_trial": 238, "trialdata": {"rt": -1000, "trial_type": "single-audio", "stimulus": "/static/audio/400Hz.wav", "internal_node_id": "0.0-175.0", "time_elapsed": 1187491, "key_press": -1, "type": "PRE_RECALL_ALERT", "trial_index": 238}, "uniqueid": "MTK3375:3DOCMVPBTOLAMW5QBA30IJCVQHSNNV", "dateTime": 1520458370096}, {"current_trial": 239, "trialdata": {"rt": [7501, 13970, 19913, 26000, 31730], "recwords": ["salad", "snack", "snake", "tunnel", "raft"], "key_times": [4075, 4297, 4952, 5556, 5851, 7501, 8518, 9348, 10112, 10612, 11022, 11357, 11907, 13970, 15390, 16035, 16520, 17131, 17513, 19913, 23074, 23479, 23836, 23978, 24517, 25384, 26000, 29946, 30257, 30844, 31155, 31730], "trial_type": "free-recall", "conditions": [12, 800, "v", 12000], "internal_node_id": "0.0-176.0-0.0", "key_presses": [83, 65, 76, 65, 68, 32, 83, 66, 8, 78, 65, 67, 75, 13, 83, 78, 65, 75, 69, 13, 84, 85, 78, 78, 69, 76, 13, 82, 65, 70, 84, 13], "trial": 6, "time_elapsed": 1247496, "type": "FREE_RECALL", "trial_index": 239}, "uniqueid": "MTK3375:3DOCMVPBTOLAMW5QBA30IJCVQHSNNV", "dateTime": 1520458430112}, {"current_trial": 240, "trialdata": {"rt": 10065, "trial_type": "text", "internal_node_id": "0.0-177.0", "time_elapsed": 1259574, "key_press": 13, "type": "INSTRUCTIONS", "trial_index": 240}, "uniqueid": "MTK3375:3DOCMVPBTOLAMW5QBA30IJCVQHSNNV", "dateTime": 1520458442179}, {"current_trial": 241, "trialdata": {"rt": [3406, 5599, 7865, 11444], "trial_type": "math-distractor", "key_times": [3089, 3406, 5357, 5599, 7500, 7654, 7865, 11183, 11444], "responses": ["9", "9", "10", "6"], "num2": [4, 4, 2, 3, 8], "num3": [1, 1, 8, 2, 8], "conditions": [12, 800, "v", 12000], "internal_node_id": "0.0-178.0", "key_presses": [105, 13, 105, 13, 97, 96, 13, 102, 13], "trial": 7, "time_elapsed": 1273581, "type": "DISTRACTOR", "trial_index": 241, "num1": [4, 4, 1, 1, 1]}, "uniqueid": "MTK3375:3DOCMVPBTOLAMW5QBA30IJCVQHSNNV", "dateTime": 1520458456186}, {"current_trial": 242, "trialdata": {"rt": -1, "trial_type": "single-stim", "stimulus": "<p id=\"stim\">10</p>", "internal_node_id": "0.0-179.0-0.0", "time_elapsed": 1276584, "key_press": -1, "trial_index": 242}, "uniqueid": "MTK3375:3DOCMVPBTOLAMW5QBA30IJCVQHSNNV", "dateTime": 1520458459190}, {"current_trial": 243, "trialdata": {"rt": -1, "trial_type": "single-stim", "stimulus": "<p id=\"stim\">9</p>", "internal_node_id": "0.0-179.0-1.0", "time_elapsed": 1277586, "key_press": -1, "trial_index": 243}, "uniqueid": "MTK3375:3DOCMVPBTOLAMW5QBA30IJCVQHSNNV", "dateTime": 1520458460192}, {"current_trial": 244, "trialdata": {"rt": -1, "trial_type": "single-stim", "stimulus": "<p id=\"stim\">8</p>", "internal_node_id": "0.0-179.0-2.0", "time_elapsed": 1278588, "key_press": -1, "trial_index": 244}, "uniqueid": "MTK3375:3DOCMVPBTOLAMW5QBA30IJCVQHSNNV", "dateTime": 1520458461194}, {"current_trial": 245, "trialdata": {"rt": -1, "trial_type": "single-stim", "stimulus": "<p id=\"stim\">7</p>", "internal_node_id": "0.0-179.0-3.0", "time_elapsed": 1279591, "key_press": -1, "trial_index": 245}, "uniqueid": "MTK3375:3DOCMVPBTOLAMW5QBA30IJCVQHSNNV", "dateTime": 1520458462196}, {"current_trial": 246, "trialdata": {"rt": -1, "trial_type": "single-stim", "stimulus": "<p id=\"stim\">6</p>", "internal_node_id": "0.0-179.0-4.0", "time_elapsed": 1280593, "key_press": -1, "trial_index": 246}, "uniqueid": "MTK3375:3DOCMVPBTOLAMW5QBA30IJCVQHSNNV", "dateTime": 1520458463198}, {"current_trial": 247, "trialdata": {"rt": -1, "trial_type": "single-stim", "stimulus": "<p id=\"stim\">5</p>", "internal_node_id": "0.0-179.0-5.0", "time_elapsed": 1281597, "key_press": -1, "trial_index": 247}, "uniqueid": "MTK3375:3DOCMVPBTOLAMW5QBA30IJCVQHSNNV", "dateTime": 1520458464202}, {"current_trial": 248, "trialdata": {"rt": -1, "trial_type": "single-stim", "stimulus": "<p id=\"stim\">4</p>", "internal_node_id": "0.0-179.0-6.0", "time_elapsed": 1282600, "key_press": -1, "trial_index": 248}, "uniqueid": "MTK3375:3DOCMVPBTOLAMW5QBA30IJCVQHSNNV", "dateTime": 1520458465205}, {"current_trial": 249, "trialdata": {"rt": -1, "trial_type": "single-stim", "stimulus": "<p id=\"stim\">3</p>", "internal_node_id": "0.0-179.0-7.0", "time_elapsed": 1283602, "key_press": -1, "trial_index": 249}, "uniqueid": "MTK3375:3DOCMVPBTOLAMW5QBA30IJCVQHSNNV", "dateTime": 1520458466208}, {"current_trial": 250, "trialdata": {"rt": -1, "trial_type": "single-stim", "stimulus": "<p id=\"stim\">2</p>", "internal_node_id": "0.0-179.0-8.0", "time_elapsed": 1284606, "key_press": -1, "trial_index": 250}, "uniqueid": "MTK3375:3DOCMVPBTOLAMW5QBA30IJCVQHSNNV", "dateTime": 1520458467211}, {"current_trial": 251, "trialdata": {"rt": -1, "trial_type": "single-stim", "stimulus": "<p id=\"stim\">1</p>", "internal_node_id": "0.0-179.0-9.0", "time_elapsed": 1285608, "key_press": -1, "trial_index": 251}, "uniqueid": "MTK3375:3DOCMVPBTOLAMW5QBA30IJCVQHSNNV", "dateTime": 1520458468213}, {"current_trial": 252, "trialdata": {"rt": -1, "trial_type": "single-stim", "stimulus": "<p id=\"stim\">+</p>", "internal_node_id": "0.0-180.0-0.0", "time_elapsed": 1287111, "key_press": -1, "type": "FIXATION", "trial_index": 252}, "uniqueid": "MTK3375:3DOCMVPBTOLAMW5QBA30IJCVQHSNNV", "dateTime": 1520458469717}, {"current_trial": 253, "trialdata": {"rt": -1, "trial_type": "single-stim", "word": "servant", "stimulus": "<p id=\"stim\">SERVANT</p>", "conditions": [12, 800, "v", 12000], "internal_node_id": "0.0-181.0", "trial": 7, "time_elapsed": 1287914, "serialpos": 0, "key_press": -1, "wordID": 1270, "type": "PRES_VIS", "trial_index": 253}, "uniqueid": "MTK3375:3DOCMVPBTOLAMW5QBA30IJCVQHSNNV", "dateTime": 1520458470519}, {"current_trial": 254, "trialdata": {"rt": -1, "trial_type": "single-stim", "word": "tortoise", "stimulus": "<p id=\"stim\">TORTOISE</p>", "conditions": [12, 800, "v", 12000], "internal_node_id": "0.0-182.0", "trial": 7, "time_elapsed": 1289651, "serialpos": 1, "key_press": -1, "wordID": 1485, "type": "PRES_VIS", "trial_index": 254}, "uniqueid": "MTK3375:3DOCMVPBTOLAMW5QBA30IJCVQHSNNV", "dateTime": 1520458472256}, {"current_trial": 255, "trialdata": {"rt": -1, "trial_type": "single-stim", "word": "crib", "stimulus": "<p id=\"stim\">CRIB</p>", "conditions": [12, 800, "v", 12000], "internal_node_id": "0.0-183.0", "trial": 7, "time_elapsed": 1291299, "serialpos": 2, "key_press": -1, "wordID": 406, "type": "PRES_VIS", "trial_index": 255}, "uniqueid": "MTK3375:3DOCMVPBTOLAMW5QBA30IJCVQHSNNV", "dateTime": 1520458473904}, {"current_trial": 256, "trialdata": {"rt": -1, "trial_type": "single-stim", "word": "cashier", "stimulus": "<p id=\"stim\">CASHIER</p>", "conditions": [12, 800, "v", 12000], "internal_node_id": "0.0-184.0", "trial": 7, "time_elapsed": 1293162, "serialpos": 3, "key_press": -1, "wordID": 253, "type": "PRES_VIS", "trial_index": 256}, "uniqueid": "MTK3375:3DOCMVPBTOLAMW5QBA30IJCVQHSNNV", "dateTime": 1520458475768}, {"current_trial": 257, "trialdata": {"rt": -1, "trial_type": "single-stim", "word": "waiter", "stimulus": "<p id=\"stim\">WAITER</p>", "conditions": [12, 800, "v", 12000], "internal_node_id": "0.0-185.0", "trial": 7, "time_elapsed": 1294793, "serialpos": 4, "key_press": -1, "wordID": 1579, "type": "PRES_VIS", "trial_index": 257}, "uniqueid": "MTK3375:3DOCMVPBTOLAMW5QBA30IJCVQHSNNV", "dateTime": 1520458477399}, {"current_trial": 258, "trialdata": {"rt": -1, "trial_type": "single-stim", "word": "sidewalk", "stimulus": "<p id=\"stim\">SIDEWALK</p>", "conditions": [12, 800, "v", 12000], "internal_node_id": "0.0-186.0", "trial": 7, "time_elapsed": 1296598, "serialpos": 5, "key_press": -1, "wordID": 1302, "type": "PRES_VIS", "trial_index": 258}, "uniqueid": "MTK3375:3DOCMVPBTOLAMW5QBA30IJCVQHSNNV", "dateTime": 1520458479203}, {"current_trial": 259, "trialdata": {"rt": -1, "trial_type": "single-stim", "word": "tile", "stimulus": "<p id=\"stim\">TILE</p>", "conditions": [12, 800, "v", 12000], "internal_node_id": "0.0-187.0", "trial": 7, "time_elapsed": 1298255, "serialpos": 6, "key_press": -1, "wordID": 1467, "type": "PRES_VIS", "trial_index": 259}, "uniqueid": "MTK3375:3DOCMVPBTOLAMW5QBA30IJCVQHSNNV", "dateTime": 1520458480860}, {"current_trial": 260, "trialdata": {"rt": -1, "trial_type": "single-stim", "word": "silk", "stimulus": "<p id=\"stim\">SILK</p>", "conditions": [12, 800, "v", 12000], "internal_node_id": "0.0-188.0", "trial": 7, "time_elapsed": 1300167, "serialpos": 7, "key_press": -1, "wordID": 1306, "type": "PRES_VIS", "trial_index": 260}, "uniqueid": "MTK3375:3DOCMVPBTOLAMW5QBA30IJCVQHSNNV", "dateTime": 1520458482773}, {"current_trial": 261, "trialdata": {"rt": -1, "trial_type": "single-stim", "word": "server", "stimulus"