{"assignmentId": "34HJIJKLP6318T4TVWAVTR08L3Z4VY", "workerId": "MTK3373", "questiondata": {"origin": "United States", "strat-rehearsal": "0", "marital": "Divorced", "education": "Some college", "ethnicity": "Not Hispanic", "color_depth": 24, "distracted": "No", "wrote-notes": "No", "strat-other": "I mostly grouped words together like river/lagoon/stone/ or waiter/waitress and so on", "screen_width": 1440, "avail_screen_width": 1440, "avail_screen_height": 860, "strat-image": "90", "language": "English", "gender": "Female", "age": "52", "gender_other": "", "race": ["White"], "strat-categorize": "100", "pixel_depth": 24, "strat-spatial": "70", "strat-story": "16", "race_other": "", "screen_height": 900}, "bonus": 0, "hitId": "3K3IX1W4S6Y1IEPKSJ6LBI166LPAPL", "counterbalance": 2597, "useragent": "Mozilla/5.0 (Windows NT 10.0; Win64; x64) AppleWebKit/537.36 (KHTML, like Gecko) Chrome/64.0.3282.186 Safari/537.36", "eventdata": [{"eventtype": "initialized", "interval": 0, "value": null, "timestamp": 1520456852619}, {"eventtype": "window_resize", "interval": 0, "value": [1440, 853], "timestamp": 1520456852619}, {"eventtype": "focus", "interval": 9919, "value": "off", "timestamp": 1520456862538}, {"eventtype": "focus", "interval": 22953, "value": "on", "timestamp": 1520456885491}, {"eventtype": "focus", "interval": 514271, "value": "off", "timestamp": 1520457399762}, {"eventtype": "focus", "interval": 1576, "value": "on", "timestamp": 1520457401338}, {"eventtype": "focus", "interval": 133183, "value": "off", "timestamp": 1520457534521}, {"eventtype": "focus", "interval": 19103, "value": "on", "timestamp": 1520457553624}, {"eventtype": "focus", "interval": 144094, "value": "off", "timestamp": 1520457697718}, {"eventtype": "focus", "interval": 23518, "value": "on", "timestamp": 1520457721236}, {"eventtype": "focus", "interval": 272478, "value": "off", "timestamp": 1520457993714}, {"eventtype": "focus", "interval": 271, "value": "on", "timestamp": 1520457993985}, {"eventtype": "focus", "interval": 271011, "value": "off", "timestamp": 1520458264996}, {"eventtype": "focus", "interval": 2526, "value": "on", "timestamp": 1520458267522}, {"eventtype": "focus", "interval": 164182, "value": "off", "timestamp": 1520458431704}, {"eventtype": "focus", "interval": 20778, "value": "on", "timestamp": 1520458452482}, {"eventtype": "focus", "interval": 151100, "value": "off", "timestamp": 1520458603582}, {"eventtype": "focus", "interval": 2898, "value": "on", "timestamp": 1520458606480}, {"eventtype": "focus", "interval": 141223, "value": "off", "timestamp": 1520458747703}, {"eventtype": "focus", "interval": 3207, "value": "on", "timestamp": 1520458750910}, {"eventtype": "focus", "interval": 1552143, "value": "off", "timestamp": 1520460303053}, {"eventtype": "focus", "interval": 9969, "value": "on", "timestamp": 1520460313022}], "data": [{"current_trial": 0, "trialdata": {"rt": 26336, "trial_type": "text", "internal_node_id": "0.0-0.0", "time_elapsed": 26340, "key_press": 84, "type": "INSTRUCTIONS", "trial_index": 0}, "uniqueid": "MTK3373:34HJIJKLP6318T4TVWAVTR08L3Z4VY", "dateTime": 1520456901782}, {"current_trial": 1, "trialdata": {"rt": 37620, "trial_type": "text", "internal_node_id": "0.0-1.0", "time_elapsed": 63968, "key_press": 78, "type": "INSTRUCTIONS", "trial_index": 1}, "uniqueid": "MTK3373:34HJIJKLP6318T4TVWAVTR08L3Z4VY", "dateTime": 1520456939408}, {"current_trial": 2, "trialdata": {"rt": [22252], "trial_type": "audio-test", "responses": ["ocean"], "internal_node_id": "0.0-2.0", "time_elapsed": 86253, "type": "AUDIO_TEST", "trial_index": 2}, "uniqueid": "MTK3373:34HJIJKLP6318T4TVWAVTR08L3Z4VY", "dateTime": 1520456961693}, {"current_trial": 3, "trialdata": {"rt": [8666], "trial_type": "audio-test", "responses": ["crystal"], "internal_node_id": "0.0-3.0", "time_elapsed": 94924, "type": "AUDIO_TEST", "trial_index": 3}, "uniqueid": "MTK3373:34HJIJKLP6318T4TVWAVTR08L3Z4VY", "dateTime": 1520456970364}, {"current_trial": 4, "trialdata": {"rt": [6267], "trial_type": "audio-test", "responses": ["spice"], "internal_node_id": "0.0-4.0", "time_elapsed": 101196, "type": "AUDIO_TEST", "trial_index": 4}, "uniqueid": "MTK3373:34HJIJKLP6318T4TVWAVTR08L3Z4VY", "dateTime": 1520456976636}, {"current_trial": 5, "trialdata": {"rt": 38324, "trial_type": "survey-text", "responses": "{\"Q0\":\"2:30 am\",\"Q1\":\"9:00 am\",\"Q2\":\"5\"}", "internal_node_id": "0.0-5.0", "time_elapsed": 140274, "type": "SLEEP_SURVEY", "trial_index": 5}, "uniqueid": "MTK3373:34HJIJKLP6318T4TVWAVTR08L3Z4VY", "dateTime": 1520457015714}, {"current_trial": 6, "trialdata": {"rt": 110059, "trial_type": "text", "internal_node_id": "0.0-6.0", "time_elapsed": 251336, "key_press": 66, "type": "INSTRUCTIONS", "trial_index": 6}, "uniqueid": "MTK3373:34HJIJKLP6318T4TVWAVTR08L3Z4VY", "dateTime": 1520457126776}, {"current_trial": 7, "trialdata": {"rt": 29804, "trial_type": "text", "internal_node_id": "0.0-7.0", "time_elapsed": 281641, "key_press": 66, "type": "INSTRUCTIONS", "trial_index": 7}, "uniqueid": "MTK3373:34HJIJKLP6318T4TVWAVTR08L3Z4VY", "dateTime": 1520457157081}, {"current_trial": 8, "trialdata": {"rt": 19879, "trial_type": "text", "internal_node_id": "0.0-8.0", "time_elapsed": 302022, "key_press": 66, "type": "INSTRUCTIONS", "trial_index": 8}, "uniqueid": "MTK3373:34HJIJKLP6318T4TVWAVTR08L3Z4VY", "dateTime": 1520457177462}, {"current_trial": 9, "trialdata": {"rt": [], "trial_type": "math-distractor", "key_times": [5026, 5251, 5253, 6387, 6595, 7570, 14483], "responses": [], "num2": [1], "num3": [9], "conditions": [18, 1200, "a", 18000], "internal_node_id": "0.0-9.0", "key_presses": [97, 97, 98, 8, 8, 98, 32], "trial": 0, "time_elapsed": 321028, "type": "DISTRACTOR", "trial_index": 9, "num1": [2]}, "uniqueid": "MTK3373:34HJIJKLP6318T4TVWAVTR08L3Z4VY", "dateTime": 1520457196468}, {"current_trial": 10, "trialdata": {"rt": -1, "trial_type": "single-stim", "stimulus": "<p id=\"stim\">10</p>", "internal_node_id": "0.0-10.0-0.0", "time_elapsed": 324030, "key_press": -1, "trial_index": 10}, "uniqueid": "MTK3373:34HJIJKLP6318T4TVWAVTR08L3Z4VY", "dateTime": 1520457199470}, {"current_trial": 11, "trialdata": {"rt": -1, "trial_type": "single-stim", "stimulus": "<p id=\"stim\">9</p>", "internal_node_id": "0.0-10.0-1.0", "time_elapsed": 325032, "key_press": -1, "trial_index": 11}, "uniqueid": "MTK3373:34HJIJKLP6318T4TVWAVTR08L3Z4VY", "dateTime": 1520457200473}, {"current_trial": 12, "trialdata": {"rt": -1, "trial_type": "single-stim", "stimulus": "<p id=\"stim\">8</p>", "internal_node_id": "0.0-10.0-2.0", "time_elapsed": 326034, "key_press": -1, "trial_index": 12}, "uniqueid": "MTK3373:34HJIJKLP6318T4TVWAVTR08L3Z4VY", "dateTime": 1520457201474}, {"current_trial": 13, "trialdata": {"rt": -1, "trial_type": "single-stim", "stimulus": "<p id=\"stim\">7</p>", "internal_node_id": "0.0-10.0-3.0", "time_elapsed": 327039, "key_press": -1, "trial_index": 13}, "uniqueid": "MTK3373:34HJIJKLP6318T4TVWAVTR08L3Z4VY", "dateTime": 1520457202479}, {"current_trial": 14, "trialdata": {"rt": -1, "trial_type": "single-stim", "stimulus": "<p id=\"stim\">6</p>", "internal_node_id": "0.0-10.0-4.0", "time_elapsed": 328040, "key_press": -1, "trial_index": 14}, "uniqueid": "MTK3373:34HJIJKLP6318T4TVWAVTR08L3Z4VY", "dateTime": 1520457203480}, {"current_trial": 15, "trialdata": {"rt": -1, "trial_type": "single-stim", "stimulus": "<p id=\"stim\">5</p>", "internal_node_id": "0.0-10.0-5.0", "time_elapsed": 329043, "key_press": -1, "trial_index": 15}, "uniqueid": "MTK3373:34HJIJKLP6318T4TVWAVTR08L3Z4VY", "dateTime": 1520457204483}, {"current_trial": 16, "trialdata": {"rt": -1, "trial_type": "single-stim", "stimulus": "<p id=\"stim\">4</p>", "internal_node_id": "0.0-10.0-6.0", "time_elapsed": 330045, "key_press": -1, "trial_index": 16}, "uniqueid": "MTK3373:34HJIJKLP6318T4TVWAVTR08L3Z4VY", "dateTime": 1520457205485}, {"current_trial": 17, "trialdata": {"rt": -1, "trial_type": "single-stim", "stimulus": "<p id=\"stim\">3</p>", "internal_node_id": "0.0-10.0-7.0", "time_elapsed": 331048, "key_press": -1, "trial_index": 17}, "uniqueid": "MTK3373:34HJIJKLP6318T4TVWAVTR08L3Z4VY", "dateTime": 1520457206488}, {"current_trial": 18, "trialdata": {"rt": -1, "trial_type": "single-stim", "stimulus": "<p id=\"stim\">2</p>", "internal_node_id": "0.0-10.0-8.0", "time_elapsed": 332051, "key_press": -1, "trial_index": 18}, "uniqueid": "MTK3373:34HJIJKLP6318T4TVWAVTR08L3Z4VY", "dateTime": 1520457207491}, {"current_trial": 19, "trialdata": {"rt": -1, "trial_type": "single-stim", "stimulus": "<p id=\"stim\">1</p>", "internal_node_id": "0.0-10.0-9.0", "time_elapsed": 333053, "key_press": -1, "trial_index": 19}, "uniqueid": "MTK3373:34HJIJKLP6318T4TVWAVTR08L3Z4VY", "dateTime": 1520457208493}, {"current_trial": 20, "trialdata": {"rt": -1, "trial_type": "single-stim", "stimulus": "<p id=\"stim\">+</p>", "internal_node_id": "0.0-11.0-0.0", "time_elapsed": 334557, "key_press": -1, "type": "FIXATION", "trial_index": 20}, "uniqueid": "MTK3373:34HJIJKLP6318T4TVWAVTR08L3Z4VY", "dateTime": 1520457209997}, {"current_trial": 21, "trialdata": {"rt": -1000, "trial_type": "single-audio", "word": "pistol", "stimulus": "/static/audio/wordpool/PISTOL.wav", "conditions": [18, 1200, "a", 18000], "internal_node_id": "0.0-12.0", "trial": 0, "time_elapsed": 336909, "serialpos": 0, "key_press": -1, "wordID": 1074, "type": "PRES_AUD", "trial_index": 21}, "uniqueid": "MTK3373:34HJIJKLP6318T4TVWAVTR08L3Z4VY", "dateTime": 1520457212349}, {"current_trial": 22, "trialdata": {"rt": -1000, "trial_type": "single-audio", "word": "scotch", "stimulus": "/static/audio/wordpool/SCOTCH.wav", "conditions": [18, 1200, "a", 18000], "internal_node_id": "0.0-13.0", "trial": 0, "time_elapsed": 339033, "serialpos": 1, "key_press": -1, "wordID": 1250, "type": "PRES_AUD", "trial_index": 22}, "uniqueid": "MTK3373:34HJIJKLP6318T4TVWAVTR08L3Z4VY", "dateTime": 1520457214474}, {"current_trial": 23, "trialdata": {"rt": -1000, "trial_type": "single-audio", "word": "college", "stimulus": "/static/audio/wordpool/COLLEGE.wav", "conditions": [18, 1200, "a", 18000], "internal_node_id": "0.0-14.0", "trial": 0, "time_elapsed": 341266, "serialpos": 2, "key_press": -1, "wordID": 345, "type": "PRES_AUD", "trial_index": 23}, "uniqueid": "MTK3373:34HJIJKLP6318T4TVWAVTR08L3Z4VY", "dateTime": 1520457216706}, {"current_trial": 24, "trialdata": {"rt": -1000, "trial_type": "single-audio", "word": "bug", "stimulus": "/static/audio/wordpool/BUG.wav", "conditions": [18, 1200, "a", 18000], "internal_node_id": "0.0-15.0", "trial": 0, "time_elapsed": 343475, "serialpos": 3, "key_press": -1, "wordID": 186, "type": "PRES_AUD", "trial_index": 24}, "uniqueid": "MTK3373:34HJIJKLP6318T4TVWAVTR08L3Z4VY", "dateTime": 1520457218915}, {"current_trial": 25, "trialdata": {"rt": -1000, "trial_type": "single-audio", "word": "snail", "stimulus": "/static/audio/wordpool/SNAIL.wav", "conditions": [18, 1200, "a", 18000], "internal_node_id": "0.0-16.0", "trial": 0, "time_elapsed": 345629, "serialpos": 4, "key_press": -1, "wordID": 1331, "type": "PRES_AUD", "trial_index": 25}, "uniqueid": "MTK3373:34HJIJKLP6318T4TVWAVTR08L3Z4VY", "dateTime": 1520457221069}, {"current_trial": 26, "trialdata": {"rt": -1000, "trial_type": "single-audio", "word": "dorm", "stimulus": "/static/audio/wordpool/DORM.wav", "conditions": [18, 1200, "a", 18000], "internal_node_id": "0.0-17.0", "trial": 0, "time_elapsed": 347923, "serialpos": 5, "key_press": -1, "wordID": 487, "type": "PRES_AUD", "trial_index": 26}, "uniqueid": "MTK3373:34HJIJKLP6318T4TVWAVTR08L3Z4VY", "dateTime": 1520457223364}, {"current_trial": 27, "trialdata": {"rt": -1000, "trial_type": "single-audio", "word": "cafe", "stimulus": "/static/audio/wordpool/CAFE.wav", "conditions": [18, 1200, "a", 18000], "internal_node_id": "0.0-18.0", "trial": 0, "time_elapsed": 350110, "serialpos": 6, "key_press": -1, "wordID": 215, "type": "PRES_AUD", "trial_index": 27}, "uniqueid": "MTK3373:34HJIJKLP6318T4TVWAVTR08L3Z4VY", "dateTime": 1520457225550}, {"current_trial": 28, "trialdata": {"rt": -1000, "trial_type": "single-audio", "word": "window", "stimulus": "/static/audio/wordpool/WINDOW.wav", "conditions": [18, 1200, "a", 18000], "internal_node_id": "0.0-19.0", "trial": 0, "time_elapsed": 352287, "serialpos": 7, "key_press": -1, "wordID": 1610, "type": "PRES_AUD", "trial_index": 28}, "uniqueid": "MTK3373:34HJIJKLP6318T4TVWAVTR08L3Z4VY", "dateTime": 1520457227727}, {"current_trial": 29, "trialdata": {"rt": -1000, "trial_type": "single-audio", "word": "elbow", "stimulus": "/static/audio/wordpool/ELBOW.wav", "conditions": [18, 1200, "a", 18000], "internal_node_id": "0.0-20.0", "trial": 0, "time_elapsed": 354491, "serialpos": 8, "key_press": -1, "wordID": 519, "type": "PRES_AUD", "trial_index": 29}, "uniqueid": "MTK3373:34HJIJKLP6318T4TVWAVTR08L3Z4VY", "dateTime": 1520457229931}, {"current_trial": 30, "trialdata": {"rt": -1000, "trial_type": "single-audio", "word": "robin", "stimulus": "/static/audio/wordpool/ROBIN.wav", "conditions": [18, 1200, "a", 18000], "internal_node_id": "0.0-21.0", "trial": 0, "time_elapsed": 356598, "serialpos": 9, "key_press": -1, "wordID": 1198, "type": "PRES_AUD", "trial_index": 30}, "uniqueid": "MTK3373:34HJIJKLP6318T4TVWAVTR08L3Z4VY", "dateTime": 1520457232038}, {"current_trial": 31, "trialdata": {"rt": -1000, "trial_type": "single-audio", "word": "silk", "stimulus": "/static/audio/wordpool/SILK.wav", "conditions": [18, 1200, "a", 18000], "internal_node_id": "0.0-22.0", "trial": 0, "time_elapsed": 358940, "serialpos": 10, "key_press": -1, "wordID": 1306, "type": "PRES_AUD", "trial_index": 31}, "uniqueid": "MTK3373:34HJIJKLP6318T4TVWAVTR08L3Z4VY", "dateTime": 1520457234380}, {"current_trial": 32, "trialdata": {"rt": -1000, "trial_type": "single-audio", "word": "shovel", "stimulus": "/static/audio/wordpool/SHOVEL.wav", "conditions": [18, 1200, "a", 18000], "internal_node_id": "0.0-23.0", "trial": 0, "time_elapsed": 361263, "serialpos": 11, "key_press": -1, "wordID": 1294, "type": "PRES_AUD", "trial_index": 32}, "uniqueid": "MTK3373:34HJIJKLP6318T4TVWAVTR08L3Z4VY", "dateTime": 1520457236704}, {"current_trial": 33, "trialdata": {"rt": -1000, "trial_type": "single-audio", "word": "sandwich", "stimulus": "/static/audio/wordpool/SANDWICH.wav", "conditions": [18, 1200, "a", 18000], "internal_node_id": "0.0-24.0", "trial": 0, "time_elapsed": 363600, "serialpos": 12, "key_press": -1, "wordID": 1231, "type": "PRES_AUD", "trial_index": 33}, "uniqueid": "MTK3373:34HJIJKLP6318T4TVWAVTR08L3Z4VY", "dateTime": 1520457239040}, {"current_trial": 34, "trialdata": {"rt": -1000, "trial_type": "single-audio", "word": "skirt", "stimulus": "/static/audio/wordpool/SKIRT.wav", "conditions": [18, 1200, "a", 18000], "internal_node_id": "0.0-25.0", "trial": 0, "time_elapsed": 365646, "serialpos": 13, "key_press": -1, "wordID": 1318, "type": "PRES_AUD", "trial_index": 34}, "uniqueid": "MTK3373:34HJIJKLP6318T4TVWAVTR08L3Z4VY", "dateTime": 1520457241086}, {"current_trial": 35, "trialdata": {"rt": -1000, "trial_type": "single-audio", "word": "compass", "stimulus": "/static/audio/wordpool/COMPASS.wav", "conditions": [18, 1200, "a", 18000], "internal_node_id": "0.0-26.0", "trial": 0, "time_elapsed": 367694, "serialpos": 14, "key_press": -1, "wordID": 357, "type": "PRES_AUD", "trial_index": 35}, "uniqueid": "MTK3373:34HJIJKLP6318T4TVWAVTR08L3Z4VY", "dateTime": 1520457243134}, {"current_trial": 36, "trialdata": {"rt": -1000, "trial_type": "single-audio", "word": "bank", "stimulus": "/static/audio/wordpool/BANK.wav", "conditions": [18, 1200, "a", 18000], "internal_node_id": "0.0-27.0", "trial": 0, "time_elapsed": 369797, "serialpos": 15, "key_press": -1, "wordID": 82, "type": "PRES_AUD", "trial_index": 36}, "uniqueid": "MTK3373:34HJIJKLP6318T4TVWAVTR08L3Z4VY", "dateTime": 1520457245237}, {"current_trial": 37, "trialdata": {"rt": -1000, "trial_type": "single-audio", "word": "expert", "stimulus": "/static/audio/wordpool/EXPERT.wav", "conditions": [18, 1200, "a", 18000], "internal_node_id": "0.0-28.0", "trial": 0, "time_elapsed": 371954, "serialpos": 16, "key_press": -1, "wordID": 542, "type": "PRES_AUD", "trial_index": 37}, "uniqueid": "MTK3373:34HJIJKLP6318T4TVWAVTR08L3Z4VY", "dateTime": 1520457247394}, {"current_trial": 38, "trialdata": {"rt": -1000, "trial_type": "single-audio", "word": "parrot", "stimulus": "/static/audio/wordpool/PARROT.wav", "conditions": [18, 1200, "a", 18000], "internal_node_id": "0.0-29.0", "trial": 0, "time_elapsed": 374245, "serialpos": 17, "key_press": -1, "wordID": 1014, "type": "PRES_AUD", "trial_index": 38}, "uniqueid": "MTK3373:34HJIJKLP6318T4TVWAVTR08L3Z4VY", "dateTime": 1520457249686}, {"current_trial": 39, "trialdata": {"rt": -1, "trial_type": "single-stim", "stimulus": "", "internal_node_id": "0.0-30.0-0.0", "time_elapsed": 375552, "key_press": -1, "type": "PRE_RECALL_DELAY", "trial_index": 39}, "uniqueid": "MTK3373:34HJIJKLP6318T4TVWAVTR08L3Z4VY", "dateTime": 1520457250994}, {"current_trial": 40, "trialdata": {"rt": -1000, "trial_type": "single-audio", "stimulus": "/static/audio/400Hz.wav", "internal_node_id": "0.0-31.0", "time_elapsed": 376063, "key_press": -1, "type": "PRE_RECALL_ALERT", "trial_index": 40}, "uniqueid": "MTK3373:34HJIJKLP6318T4TVWAVTR08L3Z4VY", "dateTime": 1520457251503}, {"current_trial": 41, "trialdata": {"rt": [5920, 11953, 16544, 19504, 23055, 26191, 29359, 32015, 36350, 39502, 43103, 47901, 53678, 58030], "recwords": ["parrot", "window", "pistol", "cafe", "robin", "silk", "shovel", "skirt", "sandwich", "snail", "dorm", "scotch", "bank", "bug"], "key_times": [2915, 3024, 3441, 3633, 3906, 4049, 5920, 9713, 9937, 10178, 10464, 10704, 11152, 11953, 14610, 14897, 15121, 15440, 15616, 15872, 16544, 17952, 18208, 18784, 18928, 19504, 21522, 21711, 22016, 22208, 22432, 23055, 24978, 25191, 25393, 25664, 26191, 27504, 27696, 27903, 28288, 28527, 28928, 29359, 30591, 30847, 31072, 31279, 31536, 32015, 33360, 33598, 33759, 34031, 34352, 34622, 34928, 35136, 36350, 38048, 38270, 38430, 38799, 39055, 39502, 40911, 41102, 41759, 41998, 43103, 45168, 45583, 45886, 46206, 47055, 47231, 47901, 51439, 52079, 52416, 52718, 53678, 56735, 57039, 57327, 58030], "trial_type": "free-recall", "conditions": [18, 1200, "a", 18000], "internal_node_id": "0.0-32.0-0.0", "key_presses": [80, 65, 82, 82, 79, 84, 13, 87, 73, 78, 68, 79, 87, 32, 80, 73, 83, 84, 79, 76, 13, 67, 65, 70, 69, 13, 82, 79, 66, 73, 78, 13, 83, 73, 76, 75, 13, 83, 72, 79, 86, 69, 76, 13, 83, 75, 73, 82, 84, 13, 83, 65, 78, 68, 87, 73, 67, 72, 13, 83, 78, 65, 73, 76, 13, 68, 79, 82, 77, 13, 83, 67, 79, 84, 67, 72, 13, 66, 65, 78, 75, 13, 66, 85, 71, 13], "trial": 0, "time_elapsed": 436069, "type": "FREE_RECALL", "trial_index": 41}, "uniqueid": "MTK3373:34HJIJKLP6318T4TVWAVTR08L3Z4VY", "dateTime": 1520457311515}, {"current_trial": 42, "trialdata": {"rt": 6049, "trial_type": "text", "internal_node_id": "0.0-33.0", "time_elapsed": 444127, "key_press": 13, "type": "INSTRUCTIONS", "trial_index": 42}, "uniqueid": "MTK3373:34HJIJKLP6318T4TVWAVTR08L3Z4VY", "dateTime": 1520457319567}, {"current_trial": 43, "trialdata": {"rt": [7948], "trial_type": "math-distractor", "key_times": [4653, 4987, 7948, 15467, 15627, 17869], "responses": ["16"], "num2": [9, 7], "num3": [6, 6], "conditions": [18, 1200, "a", 18000], "internal_node_id": "0.0-34.0", "key_presses": [97, 102, 13, 98, 98, 32], "trial": 1, "time_elapsed": 464133, "type": "DISTRACTOR", "trial_index": 43, "num1": [1, 9]}, "uniqueid": "MTK3373:34HJIJKLP6318T4TVWAVTR08L3Z4VY", "dateTime": 1520457339574}, {"current_trial": 44, "trialdata": {"rt": -1, "trial_type": "single-stim", "stimulus": "<p id=\"stim\">10</p>", "internal_node_id": "0.0-35.0-0.0", "time_elapsed": 467135, "key_press": -1, "trial_index": 44}, "uniqueid": "MTK3373:34HJIJKLP6318T4TVWAVTR08L3Z4VY", "dateTime": 1520457342576}, {"current_trial": 45, "trialdata": {"rt": -1, "trial_type": "single-stim", "stimulus": "<p id=\"stim\">9</p>", "internal_node_id": "0.0-35.0-1.0", "time_elapsed": 468138, "key_press": -1, "trial_index": 45}, "uniqueid": "MTK3373:34HJIJKLP6318T4TVWAVTR08L3Z4VY", "dateTime": 1520457343578}, {"current_trial": 46, "trialdata": {"rt": -1, "trial_type": "single-stim", "stimulus": "<p id=\"stim\">8</p>", "internal_node_id": "0.0-35.0-2.0", "time_elapsed": 469141, "key_press": -1, "trial_index": 46}, "uniqueid": "MTK3373:34HJIJKLP6318T4TVWAVTR08L3Z4VY", "dateTime": 1520457344581}, {"current_trial": 47, "trialdata": {"rt": -1, "trial_type": "single-stim", "stimulus": "<p id=\"stim\">7</p>", "internal_node_id": "0.0-35.0-3.0", "time_elapsed": 470143, "key_press": -1, "trial_index": 47}, "uniqueid": "MTK3373:34HJIJKLP6318T4TVWAVTR08L3Z4VY", "dateTime": 1520457345584}, {"current_trial": 48, "trialdata": {"rt": -1, "trial_type": "single-stim", "stimulus": "<p id=\"stim\">6</p>", "internal_node_id": "0.0-35.0-4.0", "time_elapsed": 471145, "key_press": -1, "trial_index": 48}, "uniqueid": "MTK3373:34HJIJKLP6318T4TVWAVTR08L3Z4VY", "dateTime": 1520457346586}, {"current_trial": 49, "trialdata": {"rt": -1, "trial_type": "single-stim", "stimulus": "<p id=\"stim\">5</p>", "internal_node_id": "0.0-35.0-5.0", "time_elapsed": 472147, "key_press": -1, "trial_index": 49}, "uniqueid": "MTK3373:34HJIJKLP6318T4TVWAVTR08L3Z4VY", "dateTime": 1520457347588}, {"current_trial": 50, "trialdata": {"rt": -1, "trial_type": "single-stim", "stimulus": "<p id=\"stim\">4</p>", "internal_node_id": "0.0-35.0-6.0", "time_elapsed": 473150, "key_press": -1, "trial_index": 50}, "uniqueid": "MTK3373:34HJIJKLP6318T4TVWAVTR08L3Z4VY", "dateTime": 1520457348591}, {"current_trial": 51, "trialdata": {"rt": -1, "trial_type": "single-stim", "stimulus": "<p id=\"stim\">3</p>", "internal_node_id": "0.0-35.0-7.0", "time_elapsed": 474153, "key_press": -1, "trial_index": 51}, "uniqueid": "MTK3373:34HJIJKLP6318T4TVWAVTR08L3Z4VY", "dateTime": 1520457349593}, {"current_trial": 52, "trialdata": {"rt": -1, "trial_type": "single-stim", "stimulus": "<p id=\"stim\">2</p>", "internal_node_id": "0.0-35.0-8.0", "time_elapsed": 475154, "key_press": -1, "trial_index": 52}, "uniqueid": "MTK3373:34HJIJKLP6318T4TVWAVTR08L3Z4VY", "dateTime": 1520457350594}, {"current_trial": 53, "trialdata": {"rt": -1, "trial_type": "single-stim", "stimulus": "<p id=\"stim\">1</p>", "internal_node_id": "0.0-35.0-9.0", "time_elapsed": 476157, "key_press": -1, "trial_index": 53}, "uniqueid": "MTK3373:34HJIJKLP6318T4TVWAVTR08L3Z4VY", "dateTime": 1520457351597}, {"current_trial": 54, "trialdata": {"rt": -1, "trial_type": "single-stim", "stimulus": "<p id=\"stim\">+</p>", "internal_node_id": "0.0-36.0-0.0", "time_elapsed": 477659, "key_press": -1, "type": "FIXATION", "trial_index": 54}, "uniqueid": "MTK3373:34HJIJKLP6318T4TVWAVTR08L3Z4VY", "dateTime": 1520457353099}, {"current_trial": 55, "trialdata": {"rt": -1000, "trial_type": "single-audio", "word": "parent", "stimulus": "/static/audio/wordpool/PARENT.wav", "conditions": [18, 1200, "a", 18000], "internal_node_id": "0.0-37.0", "trial": 1, "time_elapsed": 479686, "serialpos": 0, "key_press": -1, "wordID": 1012, "type": "PRES_AUD", "trial_index": 55}, "uniqueid": "MTK3373:34HJIJKLP6318T4TVWAVTR08L3Z4VY", "dateTime": 1520457355127}, {"current_trial": 56, "trialdata": {"rt": -1000, "trial_type": "single-audio", "word": "venus", "stimulus": "/static/audio/wordpool/VENUS.wav", "conditions": [18, 1200, "a", 18000], "internal_node_id": "0.0-38.0", "trial": 1, "time_elapsed": 481982, "serialpos": 1, "key_press": -1, "wordID": 1556, "type": "PRES_AUD", "trial_index": 56}, "uniqueid": "MTK3373:34HJIJKLP6318T4TVWAVTR08L3Z4VY", "dateTime": 1520457357422}, {"current_trial": 57, "trialdata": {"rt": -1000, "trial_type": "single-audio", "word": "rust", "stimulus": "/static/audio/wordpool/RUST.wav", "conditions": [18, 1200, "a", 18000], "internal_node_id": "0.0-39.0", "trial": 1, "time_elapsed": 484167, "serialpos": 2, "key_press": -1, "wordID": 1218, "type": "PRES_AUD", "trial_index": 57}, "uniqueid": "MTK3373:34HJIJKLP6318T4TVWAVTR08L3Z4VY", "dateTime": 1520457359609}, {"current_trial": 58, "trialdata": {"rt": -1000, "trial_type": "single-audio", "word": "washer", "stimulus": "/static/audio/wordpool/WASHER.wav", "conditions": [18, 1200, "a", 18000], "internal_node_id": "0.0-40.0", "trial": 1, "time_elapsed": 486548, "serialpos": 3, "key_press": -1, "wordID": 1591, "type": "PRES_AUD", "trial_index": 58}, "uniqueid": "MTK3373:34HJIJKLP6318T4TVWAVTR08L3Z4VY", "dateTime": 1520457361988}, {"current_trial": 59, "trialdata": {"rt": -1000, "trial_type": "single-audio", "word": "racket", "stimulus": "/static/audio/wordpool/RACKET.wav", "conditions": [18, 1200, "a", 18000], "internal_node_id": "0.0-41.0", "trial": 1, "time_elapsed": 488702, "serialpos": 4, "key_press": -1, "wordID": 1154, "type": "PRES_AUD", "trial_index": 59}, "uniqueid": "MTK3373:34HJIJKLP6318T4TVWAVTR08L3Z4VY", "dateTime": 1520457364142}, {"current_trial": 60, "trialdata": {"rt": -1000, "trial_type": "single-audio", "word": "chemist", "stimulus": "/static/audio/wordpool/CHEMIST.wav", "conditions": [18, 1200, "a", 18000], "internal_node_id": "0.0-42.0", "trial": 1, "time_elapsed": 490891, "serialpos": 5, "key_press": -1, "wordID": 291, "type": "PRES_AUD", "trial_index": 60}, "uniqueid": "MTK3373:34HJIJKLP6318T4TVWAVTR08L3Z4VY", "dateTime": 1520457366331}, {"current_trial": 61, "trialdata": {"rt": -1000, "trial_type": "single-audio", "word": "judge", "stimulus": "/static/audio/wordpool/JUDGE.wav", "conditions": [18, 1200, "a", 18000], "internal_node_id": "0.0-43.0", "trial": 1, "time_elapsed": 493184, "serialpos": 6, "key_press": -1, "wordID": 760, "type": "PRES_AUD", "trial_index": 61}, "uniqueid": "MTK3373:34HJIJKLP6318T4TVWAVTR08L3Z4VY", "dateTime": 1520457368624}, {"current_trial": 62, "trialdata": {"rt": -1000, "trial_type": "single-audio", "word": "hamper", "stimulus": "/static/audio/wordpool/HAMPER.wav", "conditions": [18, 1200, "a", 18000], "internal_node_id": "0.0-44.0", "trial": 1, "time_elapsed": 495348, "serialpos": 7, "key_press": -1, "wordID": 681, "type": "PRES_AUD", "trial_index": 62}, "uniqueid": "MTK3373:34HJIJKLP6318T4TVWAVTR08L3Z4VY", "dateTime": 1520457370788}, {"current_trial": 63, "trialdata": {"rt": -1000, "trial_type": "single-audio", "word": "leader", "stimulus": "/static/audio/wordpool/LEADER.wav", "conditions": [18, 1200, "a", 18000], "internal_node_id": "0.0-45.0", "trial": 1, "time_elapsed": 497640, "serialpos": 8, "key_press": -1, "wordID": 806, "type": "PRES_AUD", "trial_index": 63}, "uniqueid": "MTK3373:34HJIJKLP6318T4TVWAVTR08L3Z4VY", "dateTime": 1520457373081}, {"current_trial": 64, "trialdata": {"rt": -1000, "trial_type": "single-audio", "word": "popcorn", "stimulus": "/static/audio/wordpool/POPCORN.wav", "conditions": [18, 1200, "a", 18000], "internal_node_id": "0.0-46.0", "trial": 1, "time_elapsed": 499949, "serialpos": 9, "key_press": -1, "wordID": 1103, "type": "PRES_AUD", "trial_index": 64}, "uniqueid": "MTK3373:34HJIJKLP6318T4TVWAVTR08L3Z4VY", "dateTime": 1520457375390}, {"current_trial": 65, "trialdata": {"rt": -1000, "trial_type": "single-audio", "word": "cigar", "stimulus": "/static/audio/wordpool/CIGAR.wav", "conditions": [18, 1200, "a", 18000], "internal_node_id": "0.0-47.0", "trial": 1, "time_elapsed": 502119, "serialpos": 10, "key_press": -1, "wordID": 307, "type": "PRES_AUD", "trial_index": 65}, "uniqueid": "MTK3373:34HJIJKLP6318T4TVWAVTR08L3Z4VY", "dateTime": 1520457377559}, {"current_trial": 66, "trialdata": {"rt": -1000, "trial_type": "single-audio", "word": "bathtub", "stimulus": "/static/audio/wordpool/BATHTUB.wav", "conditions": [18, 1200, "a", 18000], "internal_node_id": "0.0-48.0", "trial": 1, "time_elapsed": 504499, "serialpos": 11, "key_press": -1, "wordID": 99, "type": "PRES_AUD", "trial_index": 66}, "uniqueid": "MTK3373:34HJIJKLP6318T4TVWAVTR08L3Z4VY", "dateTime": 1520457379939}, {"current_trial": 67, "trialdata": {"rt": -1000, "trial_type": "single-audio", "word": "tweezers", "stimulus": "/static/audio/wordpool/TWEEZERS.wav", "conditions": [18, 1200, "a", 18000], "internal_node_id": "0.0-49.0", "trial": 1, "time_elapsed": 506903, "serialpos": 12, "key_press": -1, "wordID": 1525, "type": "PRES_AUD", "trial_index": 67}, "uniqueid": "MTK3373:34HJIJKLP6318T4TVWAVTR08L3Z4VY", "dateTime": 1520457382343}, {"current_trial": 68, "trialdata": {"rt": -1000, "trial_type": "single-audio", "word": "sibling", "stimulus": "/static/audio/wordpool/SIBLING.wav", "conditions": [18, 1200, "a", 18000], "internal_node_id": "0.0-50.0", "trial": 1, "time_elapsed": 509043, "serialpos": 13, "key_press": -1, "wordID": 1300, "type": "PRES_AUD", "trial_index": 68}, "uniqueid": "MTK3373:34HJIJKLP6318T4TVWAVTR08L3Z4VY", "dateTime": 1520457384490}, {"current_trial": 69, "trialdata": {"rt": -1000, "trial_type": "single-audio", "word": "beast", "stimulus": "/static/audio/wordpool/BEAST.wav", "conditions": [18, 1200, "a", 18000], "internal_node_id": "0.0-51.0", "trial": 1, "time_elapsed": 511213, "serialpos": 14, "key_press": -1, "wordID": 107, "type": "PRES_AUD", "trial_index": 69}, "uniqueid": "MTK3373:34HJIJKLP6318T4TVWAVTR08L3Z4VY", "dateTime": 1520457386653}, {"current_trial": 70, "trialdata": {"rt": -1000, "trial_type": "single-audio", "word": "shorts", "stimulus": "/static/audio/wordpool/SHORTS.wav", "conditions": [18, 1200, "a", 18000], "internal_node_id": "0.0-52.0", "trial": 1, "time_elapsed": 513290, "serialpos": 15, "key_press": -1, "wordID": 1292, "type": "PRES_AUD", "trial_index": 70}, "uniqueid": "MTK3373:34HJIJKLP6318T4TVWAVTR08L3Z4VY", "dateTime": 1520457388730}, {"current_trial": 71, "trialdata": {"rt": -1000, "trial_type": "single-audio", "word": "flashlight", "stimulus": "/static/audio/wordpool/FLASHLIGHT.wav", "conditions": [18, 1200, "a", 18000], "internal_node_id": "0.0-53.0", "trial": 1, "time_elapsed": 515594, "serialpos": 16, "key_press": -1, "wordID": 574, "type": "PRES_AUD", "trial_index": 71}, "uniqueid": "MTK3373:34HJIJKLP6318T4TVWAVTR08L3Z4VY", "dateTime": 1520457391034}, {"current_trial": 72, "trialdata": {"rt": -1000, "trial_type": "single-audio", "word": "piston", "stimulus": "/static/audio/wordpool/PISTON.wav", "conditions": [18, 1200, "a", 18000], "internal_node_id": "0.0-54.0", "trial": 1, "time_elapsed": 517874, "serialpos": 17, "key_press": -1, "wordID": 1075, "type": "PRES_AUD", "trial_index": 72}, "uniqueid": "MTK3373:34HJIJKLP6318T4TVWAVTR08L3Z4VY", "dateTime": 1520457393314}, {"current_trial": 73, "trialdata": {"rt": -1, "trial_type": "single-stim", "stimulus": "", "internal_node_id": "0.0-55.0-0.0", "time_elapsed": 519134, "key_press": -1, "type": "PRE_RECALL_DELAY", "trial_index": 73}, "uniqueid": "MTK3373:34HJIJKLP6318T4TVWAVTR08L3Z4VY", "dateTime": 1520457394574}, {"current_trial": 74, "trialdata": {"rt": -1000, "trial_type": "single-audio", "stimulus": "/static/audio/400Hz.wav", "internal_node_id": "0.0-56.0", "time_elapsed": 519638, "key_press": -1, "type": "PRE_RECALL_ALERT", "trial_index": 74}, "uniqueid": "MTK3373:34HJIJKLP6318T4TVWAVTR08L3Z4VY", "dateTime": 1520457395079}, {"current_trial": 75, "trialdata": {"rt": [12033, 16641, 20736, 23456, 29824, 34447, 39247, 43407, 49070, 55806, 59214], "recwords": ["piston", "twizzors", "venus", "rust", "washer", "hamper", "leader", "bathtub", "sibling", "cigar", "hamper"], "key_times": [8689, 8960, 9168, 9601, 9778, 10001, 12033, 13729, 14241, 14513, 14881, 15057, 15233, 15505, 15825, 16641, 19169, 19505, 19746, 20001, 20224, 20736, 22128, 22416, 22656, 23007, 23456, 27779, 28096, 28335, 28640, 28864, 29250, 29824, 32496, 32736, 32976, 33280, 33504, 33744, 34447, 36496, 36783, 37055, 37311, 37519, 37712, 39247, 39984, 40158, 40496, 40703, 40912, 41919, 42207, 42415, 42719, 43407, 45711, 45999, 46862, 47327, 47663, 47952, 48206, 49070, 54031, 54287, 54703, 55070, 55311, 55806, 57647, 57920, 58128, 58383, 58608, 58848, 59214], "trial_type": "free-recall", "conditions": [18, 1200, "a", 18000], "internal_node_id": "0.0-57.0-0.0", "key_presses": [80, 73, 83, 84, 79, 78, 32, 84, 87, 73, 90, 90, 79, 82, 83, 32, 86, 69, 78, 85, 83, 13, 82, 85, 83, 84, 13, 87, 65, 83, 72, 69, 82, 13, 72, 65, 77, 80, 69, 82, 13, 76, 69, 65, 68, 69, 82, 13, 66, 65, 84, 72, 82, 8, 84, 85, 66, 13, 83, 73, 66, 76, 73, 78, 71, 13, 67, 73, 71, 65, 82, 13, 72, 65, 77, 80, 69, 82, 13], "trial": 1, "time_elapsed": 579646, "type": "FREE_RECALL", "trial_index": 75}, "uniqueid": "MTK3373:34HJIJKLP6318T4TVWAVTR08L3Z4VY", "dateTime": 1520457455097}, {"current_trial": 76, "trialdata": {"rt": 4759, "trial_type": "text", "internal_node_id": "0.0-58.0", "time_elapsed": 586418, "key_press": 32, "type": "INSTRUCTIONS", "trial_index": 76}, "uniqueid": "MTK3373:34HJIJKLP6318T4TVWAVTR08L3Z4VY", "dateTime": 1520457461858}, {"current_trial": 77, "trialdata": {"rt": [], "trial_type": "math-distractor", "key_times": [9374, 9677, 11036], "responses": [], "num2": [7], "num3": [9], "conditions": [24, 1600, "a", 12000], "internal_node_id": "0.0-59.0", "key_presses": [98, 100, 32], "trial": 2, "time_elapsed": 599423, "type": "DISTRACTOR", "trial_index": 77, "num1": [8]}, "uniqueid": "MTK3373:34HJIJKLP6318T4TVWAVTR08L3Z4VY", "dateTime": 1520457474863}, {"current_trial": 78, "trialdata": {"rt": -1, "trial_type": "single-stim", "stimulus": "<p id=\"stim\">10</p>", "internal_node_id": "0.0-60.0-0.0", "time_elapsed": 602425, "key_press": -1, "trial_index": 78}, "uniqueid": "MTK3373:34HJIJKLP6318T4TVWAVTR08L3Z4VY", "dateTime": 1520457477865}, {"current_trial": 79, "trialdata": {"rt": -1, "trial_type": "single-stim", "stimulus": "<p id=\"stim\">9</p>", "internal_node_id": "0.0-60.0-1.0", "time_elapsed": 603427, "key_press": -1, "trial_index": 79}, "uniqueid": "MTK3373:34HJIJKLP6318T4TVWAVTR08L3Z4VY", "dateTime": 1520457478867}, {"current_trial": 80, "trialdata": {"rt": -1, "trial_type": "single-stim", "stimulus": "<p id=\"stim\">8</p>", "internal_node_id": "0.0-60.0-2.0", "time_elapsed": 604429, "key_press": -1, "trial_index": 80}, "uniqueid": "MTK3373:34HJIJKLP6318T4TVWAVTR08L3Z4VY", "dateTime": 1520457479869}, {"current_trial": 81, "trialdata": {"rt": -1, "trial_type": "single-stim", "stimulus": "<p id=\"stim\">7</p>", "internal_node_id": "0.0-60.0-3.0", "time_elapsed": 605430, "key_press": -1, "trial_index": 81}, "uniqueid": "MTK3373:34HJIJKLP6318T4TVWAVTR08L3Z4VY", "dateTime": 1520457480870}, {"current_trial": 82, "trialdata": {"rt": -1, "trial_type": "single-stim", "stimulus": "<p id=\"stim\">6</p>", "internal_node_id": "0.0-60.0-4.0", "time_elapsed": 606432, "key_press": -1, "trial_index": 82}, "uniqueid": "MTK3373:34HJIJKLP6318T4TVWAVTR08L3Z4VY", "dateTime": 1520457481873}, {"current_trial": 83, "trialdata": {"rt": -1, "trial_type": "single-stim", "stimulus": "<p id=\"stim\">5</p>", "internal_node_id": "0.0-60.0-5.0", "time_elapsed": 607436, "key_press": -1, "trial_index": 83}, "uniqueid": "MTK3373:34HJIJKLP6318T4TVWAVTR08L3Z4VY", "dateTime": 1520457482876}, {"current_trial": 84, "trialdata": {"rt": -1, "trial_type": "single-stim", "stimulus": "<p id=\"stim\">4</p>", "internal_node_id": "0.0-60.0-6.0", "time_elapsed": 608438, "key_press": -1, "trial_index": 84}, "uniqueid": "MTK3373:34HJIJKLP6318T4TVWAVTR08L3Z4VY", "dateTime": 1520457483878}, {"current_trial": 85, "trialdata": {"rt": -1, "trial_type": "single-stim", "stimulus": "<p id=\"stim\">3</p>", "internal_node_id": "0.0-60.0-7.0", "time_elapsed": 609440, "key_press": -1, "trial_index": 85}, "uniqueid": "MTK3373:34HJIJKLP6318T4TVWAVTR08L3Z4VY", "dateTime": 1520457484880}, {"current_trial": 86, "trialdata": {"rt": -1, "trial_type": "single-stim", "stimulus": "<p id=\"stim\">2</p>", "internal_node_id": "0.0-60.0-8.0", "time_elapsed": 610443, "key_press": -1, "trial_index": 86}, "uniqueid": "MTK3373:34HJIJKLP6318T4TVWAVTR08L3Z4VY", "dateTime": 1520457485883}, {"current_trial": 87, "trialdata": {"rt": -1, "trial_type": "single-stim", "stimulus": "<p id=\"stim\">1</p>", "internal_node_id": "0.0-60.0-9.0", "time_elapsed": 611448, "key_press": -1, "trial_index": 87}, "uniqueid": "MTK3373:34HJIJKLP6318T4TVWAVTR08L3Z4VY", "dateTime": 1520457486888}, {"current_trial": 88, "trialdata": {"rt": -1, "trial_type": "single-stim", "stimulus": "<p id=\"stim\">+</p>", "internal_node_id": "0.0-61.0-0.0", "time_elapsed": 612949, "key_press": -1, "type": "FIXATION", "trial_index": 88}, "uniqueid": "MTK3373:34HJIJKLP6318T4TVWAVTR08L3Z4VY", "dateTime": 1520457488389}, {"current_trial": 89, "trialdata": {"rt": -1000, "trial_type": "single-audio", "word": "poison", "stimulus": "/static/audio/wordpool/POISON.wav", "conditions": [24, 1600, "a", 12000], "internal_node_id": "0.0-62.0", "trial": 2, "time_elapsed": 615698, "serialpos": 0, "key_press": -1, "wordID": 1095, "type": "PRES_AUD", "trial_index": 89}, "uniqueid": "MTK3373:34HJIJKLP6318T4TVWAVTR08L3Z4VY", "dateTime": 1520457491138}, {"current_trial": 90, "trialdata": {"rt": -1000, "trial_type": "single-audio", "word": "rug", "stimulus": "/static/audio/wordpool/RUG.wav", "conditions": [24, 1600, "a", 12000], "internal_node_id": "0.0-63.0", "trial": 2, "time_elapsed": 618191, "serialpos": 1, "key_press": -1, "wordID": 1214, "type": "PRES_AUD", "trial_index": 90}, "uniqueid": "MTK3373:34HJIJKLP6318T4TVWAVTR08L3Z4VY", "dateTime": 1520457493631}, {"current_trial": 91, "trialdata": {"rt": -1000, "trial_type": "single-audio", "word": "turnip", "stimulus": "/static/audio/wordpool/TURNIP.wav", "conditions": [24, 1600, "a", 12000], "internal_node_id": "0.0-64.0", "trial": 2, "time_elapsed": 620839, "serialpos": 2, "key_press": -1, "wordID": 1520, "type": "PRES_AUD", "trial_index": 91}, "uniqueid": "MTK3373:34HJIJKLP6318T4TVWAVTR08L3Z4VY", "dateTime": 1520457496279}, {"current_trial": 92, "trialdata": {"rt": -1000, "trial_type": "single-audio", "word": "princess", "stimulus": "/static/audio/wordpool/PRINCESS.wav", "conditions": [24, 1600, "a", 12000], "internal_node_id": "0.0-65.0", "trial": 2, "time_elapsed": 623293, "serialpos": 3, "key_press": -1, "wordID": 1124, "type": "PRES_AUD", "trial_index": 92}, "uniqueid": "MTK3373:34HJIJKLP6318T4TVWAVTR08L3Z4VY", "dateTime": 1520457498733}, {"current_trial": 93, "trialdata": {"rt": -1000, "trial_type": "single-audio", "word": "gravel", "stimulus": "/static/audio/wordpool/GRAVEL.wav", "conditions": [24, 1600, "a", 12000], "internal_node_id": "0.0-66.0", "trial": 2, "time_elapsed": 625913, "serialpos": 4, "key_press": -1, "wordID": 658, "type": "PRES_AUD", "trial_index": 93}, "uniqueid": "MTK3373:34HJIJKLP6318T4TVWAVTR08L3Z4VY", "dateTime": 1520457501353}, {"current_trial": 94, "trialdata": {"rt": -1000, "trial_type": "single-audio", "word": "honey", "stimulus": "/static/audio/wordpool/HONEY.wav", "conditions": [24, 1600, "a", 12000], "internal_node_id": "0.0-67.0", "trial": 2, "time_elapsed": 628590, "serialpos": 5, "key_press": -1, "wordID": 712, "type": "PRES_AUD", "trial_index": 94}, "uniqueid": "MTK3373:34HJIJKLP6318T4TVWAVTR08L3Z4VY", "dateTime": 1520457504030}, {"current_trial": 95, "trialdata": {"rt": -1000, "trial_type": "single-audio", "word": "cabbage", "stimulus": "/static/audio/wordpool/CABBAGE.wav", "conditions": [24, 1600, "a", 12000], "internal_node_id": "0.0-68.0", "trial": 2, "time_elapsed": 631179, "serialpos": 6, "key_press": -1, "wordID": 209, "type": "PRES_AUD", "trial_index": 95}, "uniqueid": "MTK3373:34HJIJKLP6318T4TVWAVTR08L3Z4VY", "dateTime": 1520457506620}, {"current_trial": 96, "trialdata": {"rt": -1000, "trial_type": "single-audio", "word": "citrus", "stimulus": "/static/audio/wordpool/CITRUS.wav", "conditions": [24, 1600, "a", 12000], "internal_node_id": "0.0-69.0", "trial": 2, "time_elapsed": 633603, "serialpos": 7, "key_press": -1, "wordID": 312, "type": "PRES_AUD", "trial_index": 96}, "uniqueid": "MTK3373:34HJIJKLP6318T4TVWAVTR08L3Z4VY", "dateTime": 1520457509043}, {"current_trial": 97, "trialdata": {"rt": -1000, "trial_type": "single-audio", "word": "fruit", "stimulus": "/static/audio/wordpool/FRUIT.wav", "conditions": [24, 1600, "a", 12000], "internal_node_id": "0.0-70.0", "trial": 2, "time_elapsed": 636066, "serialpos": 8, "key_press": -1, "wordID": 609, "type": "PRES_AUD", "trial_index": 97}, "uniqueid": "MTK3373:34HJIJKLP6318T4TVWAVTR08L3Z4VY", "dateTime": 1520457511506}, {"current_trial": 98, "trialdata": {"rt": -1000, "trial_type": "single-audio", "word": "maple", "stimulus": "/static/audio/wordpool/MAPLE.wav", "conditions": [24, 1600, "a", 12000], "internal_node_id": "0.0-71.0", "trial": 2, "time_elapsed": 638712, "serialpos": 9, "key_press": -1, "wordID": 865, "type": "PRES_AUD", "trial_index": 98}, "uniqueid": "MTK3373:34HJIJKLP6318T4TVWAVTR08L3Z4VY", "dateTime": 1520457514153}, {"current_trial": 99, "trialdata": {"rt": -1000, "trial_type": "single-audio", "word": "hatchet", "stimulus": "/static/audio/wordpool/HATCHET.wav", "conditions": [24, 1600, "a", 12000], "internal_node_id": "0.0-72.0", "trial": 2, "time_elapsed": 641433, "serialpos": 10, "key_press": -1, "wordID": 690, "type": "PRES_AUD", "trial_index": 99}, "uniqueid": "MTK3373:34HJIJKLP6318T4TVWAVTR08L3Z4VY", "dateTime": 1520457516873}, {"current_trial": 100, "trialdata": {"rt": -1000, "trial_type": "single-audio", "word": "rod", "stimulus": "/static/audio/wordpool/ROD.wav", "conditions": [24, 1600, "a", 12000], "internal_node_id": "0.0-73.0", "trial": 2, "time_elapsed": 644082, "serialpos": 11, "key_press": -1, "wordID": 1202, "type": "PRES_AUD", "trial_index": 100}, "uniqueid": "MTK3373:34HJIJKLP6318T4TVWAVTR08L3Z4VY", "dateTime": 1520457519522}, {"current_trial": 101, "trialdata": {"rt": -1000, "trial_type": "single-audio", "word": "spoon", "stimulus": "/static/audio/wordpool/SPOON.wav", "conditions": [24, 1600, "a", 12000], "internal_node_id": "0.0-74.0", "trial": 2, "time_elapsed": 646852, "serialpos": 12, "key_press": -1, "wordID": 1356, "type": "PRES_AUD", "trial_index": 101}, "uniqueid": "MTK3373:34HJIJKLP6318T4TVWAVTR08L3Z4VY", "dateTime": 1520457522292}, {"current_trial": 102, "trialdata": {"rt": -1000, "trial_type": "single-audio", "word": "comet", "stimulus": "/static/audio/wordpool/COMET.wav", "conditions": [24, 1600, "a", 12000], "internal_node_id": "0.0-75.0", "trial": 2, "time_elapsed": 649540, "serialpos": 13, "key_press": -1, "wordID": 352, "type": "PRES_AUD", "trial_index": 102}, "uniqueid": "MTK3373:34HJIJKLP6318T4TVWAVTR08L3Z4VY", "dateTime": 1520457524980}, {"current_trial": 103, "trialdata": {"rt": -1000, "trial_type": "single-audio", "word": "survey", "stimulus": "/static/audio/wordpool/SURVEY.wav", "conditions": [24, 1600, "a", 12000], "internal_node_id": "0.0-76.0", "trial": 2, "time_elapsed": 652148, "serialpos": 14, "key_press": -1, "wordID": 1413, "type": "PRES_AUD", "trial_index": 103}, "uniqueid": "MTK3373:34HJIJKLP6318T4TVWAVTR08L3Z4VY", "dateTime": 1520457527588}, {"current_trial": 104, "trialdata": {"rt": -1000, "trial_type": "single-audio", "word": "poet", "stimulus": "/static/audio/wordpool/POET.wav", "conditions": [24, 1600, "a", 12000], "internal_node_id": "0.0-77.0", "trial": 2, "time_elapsed": 654555, "serialpos": 15, "key_press": -1, "wordID": 1094, "type": "PRES_AUD", "trial_index": 104}, "uniqueid": "MTK3373:34HJIJKLP6318T4TVWAVTR08L3Z4VY", "dateTime": 1520457529995}, {"current_trial": 105, "trialdata": {"rt": -1000, "trial_type": "single-audio", "word": "army", "stimulus": "/static/audio/wordpool/ARMY.wav", "conditions": [24, 1600, "a", 12000], "internal_node_id": "0.0-78.0", "trial": 2, "time_elapsed": 657284, "serialpos": 16, "key_press": -1, "wordID": 38, "type": "PRES_AUD", "trial_index": 105}, "uniqueid": "MTK3373:34HJIJKLP6318T4TVWAVTR08L3Z4VY", "dateTime": 1520457532724}, {"current_trial": 106, "trialdata": {"rt": -1000, "trial_type": "single-audio", "word": "report", "stimulus": "/static/audio/wordpool/REPORT.wav", "conditions": [24, 1600, "a", 12000], "internal_node_id": "0.0-79.0", "trial": 2, "time_elapsed": 659929, "serialpos": 17, "key_press": -1, "wordID": 1183, "type": "PRES_AUD", "trial_index": 106}, "uniqueid": "MTK3373:34HJIJKLP6318T4TVWAVTR08L3Z4VY", "dateTime": 1520457535369}, {"current_trial": 107, "trialdata": {"rt": -1000, "trial_type": "single-audio", "word": "hornet", "stimulus": "/static/audio/wordpool/HORNET.wav", "conditions": [24, 1600, "a", 12000], "internal_node_id": "0.0-80.0", "trial": 2, "time_elapsed": 662601, "serialpos": 18, "key_press": -1, "wordID": 717, "type": "PRES_AUD", "trial_index": 107}, "uniqueid": "MTK3373:34HJIJKLP6318T4TVWAVTR08L3Z4VY", "dateTime": 1520457538041}, {"current_trial": 108, "trialdata": {"rt": -1000, "trial_type": "single-audio", "word": "dancer", "stimulus": "/static/audio/wordpool/DANCER.wav", "conditions": [24, 1600, "a", 12000], "internal_node_id": "0.0-81.0", "trial": 2, "time_elapsed": 665268, "serialpos": 19, "key_press": -1, "wordID": 436, "type": "PRES_AUD", "trial_index": 108}, "uniqueid": "MTK3373:34HJIJKLP6318T4TVWAVTR08L3Z4VY", "dateTime": 1520457540709}, {"current_trial": 109, "trialdata": {"rt": -1000, "trial_type": "single-audio", "word": "critic", "stimulus": "/static/audio/wordpool/CRITIC.wav", "conditions": [24, 1600, "a", 12000], "internal_node_id": "0.0-82.0", "trial": 2, "time_elapsed": 667726, "serialpos": 20, "key_press": -1, "wordID": 409, "type": "PRES_AUD", "trial_index": 109}, "uniqueid": "MTK3373:34HJIJKLP6318T4TVWAVTR08L3Z4VY", "dateTime": 1520457543167}, {"current_trial": 110, "trialdata": {"rt": -1000, "trial_type": "single-audio", "word": "headband", "stimulus": "/static/audio/wordpool/HEADBAND.wav", "conditions": [24, 1600, "a", 12000], "internal_node_id": "0.0-83.0", "trial": 2, "time_elapsed": 670325, "serialpos": 21, "key_press": -1, "wordID": 695, "type": "PRES_AUD", "trial_index": 110}, "uniqueid": "MTK3373:34HJIJKLP6318T4TVWAVTR08L3Z4VY", "dateTime": 1520457545765}, {"current_trial": 111, "trialdata": {"rt": -1000, "trial_type": "single-audio", "word": "shirt", "stimulus": "/static/audio/wordpool/SHIRT.wav", "conditions": [24, 1600, "a", 12000], "internal_node_id": "0.0-84.0", "trial": 2, "time_elapsed": 673005, "serialpos": 22, "key_press": -1, "wordID": 1286, "type": "PRES_AUD", "trial_index": 111}, "uniqueid": "MTK3373:34HJIJKLP6318T4TVWAVTR08L3Z4VY", "dateTime": 1520457548445}, {"current_trial": 112, "trialdata": {"rt": -1000, "trial_type": "single-audio", "word": "market", "stimulus": "/static/audio/wordpool/MARKET.wav", "conditions": [24, 1600, "a", 12000], "internal_node_id": "0.0-85.0", "trial": 2, "time_elapsed": 675726, "serialpos": 23, "key_press": -1, "wordID": 870, "type": "PRES_AUD", "trial_index": 112}, "uniqueid": "MTK3373:34HJIJKLP6318T4TVWAVTR08L3Z4VY", "dateTime": 1520457551167}, {"current_trial": 113, "trialdata": {"rt": -1, "trial_type": "single-stim", "stimulus": "", "internal_node_id": "0.0-86.0-0.0", "time_elapsed": 677005, "key_press": -1, "type": "PRE_RECALL_DELAY", "trial_index": 113}, "uniqueid": "MTK3373:34HJIJKLP6318T4TVWAVTR08L3Z4VY", "dateTime": 1520457552445}, {"current_trial": 114, "trialdata": {"rt": -1000, "trial_type": "single-audio", "stimulus": "/static/audio/400Hz.wav", "internal_node_id": "0.0-87.0", "time_elapsed": 677508, "key_press": -1, "type": "PRE_RECALL_ALERT", "trial_index": 114}, "uniqueid": "MTK3373:34HJIJKLP6318T4TVWAVTR08L3Z4VY", "dateTime": 1520457552948}, {"current_trial": 115, "trialdata": {"rt": [6225, 8369, 10625, 13969, 18177, 20336, 24528, 27520, 30383, 35791, 38975, 43167, 50671, 54336, 58639], "recwords": ["market", "shirt", "honey", "fruit", "poet", "army", "posion", "rug", "turnip", "gravel", "cabbage", "citrus", "survey", "report", "dancer"], "key_times": [3491, 3762, 4129, 4417, 4641, 4881, 6225, 6929, 7186, 7409, 7632, 7890, 8369, 8897, 9185, 9442, 9664, 9952, 10625, 12497, 12817, 13041, 13313, 13457, 13969, 16945, 17217, 17423, 17681, 18177, 18656, 18976, 19201, 19585, 20336, 22385, 22689, 23345, 23537, 23745, 23952, 24528, 26576, 26785, 27121, 27520, 28497, 28769, 29025, 29312, 29540, 29840, 30383, 30383, 34034, 34287, 34575, 34848, 35073, 35360, 35791, 37105, 37375, 37568, 37728, 37887, 38208, 38351, 38975, 40737, 41008, 41280, 41920, 42161, 42641, 43167, 47344, 47614, 47888, 48224, 48447, 48622, 50671, 52672, 52912, 53296, 53536, 53775, 54016, 54336, 56336, 56623, 56784, 57024, 57217, 57456, 58639], "trial_type": "free-recall", "conditions": [24, 1600, "a", 12000], "internal_node_id": "0.0-88.0-0.0", "key_presses": [77, 65, 82, 75, 69, 84, 32, 83, 72, 73, 82, 84, 13, 72, 79, 78, 69, 89, 13, 70, 82, 85, 73, 84, 13, 80, 79, 69, 84, 13, 65, 82, 77, 89, 13, 80, 79, 83, 73, 79, 78, 13, 82, 85, 71, 13, 84, 85, 82, 78, 73, 80, 16, 13, 71, 82, 65, 86, 69, 76, 13, 67, 65, 66, 66, 65, 71, 69, 13, 67, 73, 84, 82, 85, 83, 13, 83, 85, 82, 86, 69, 89, 32, 82, 69, 80, 79, 82, 84, 32, 68, 65, 78, 67, 69, 82, 32], "trial": 2, "time_elapsed": 737512, "type": "FREE_RECALL", "trial_index": 115}, "uniqueid": "MTK3373:34HJIJKLP6318T4TVWAVTR08L3Z4VY", "dateTime": 1520457612964}, {"current_trial": 116, "trialdata": {"rt": 976, "trial_type": "text", "internal_node_id": "0.0-89.0", "time_elapsed": 740502, "key_press": 32, "type": "INSTRUCTIONS", "trial_index": 116}, "uniqueid": "MTK3373:34HJIJKLP6318T4TVWAVTR08L3Z4VY", "dateTime": 1520457615942}, {"current_trial": 117, "trialdata": {"rt": [4235, 15466], "trial_type": "math-distractor", "key_times": [3406, 4235, 6811, 7052, 8235, 8715, 9564, 11835, 15466, 17549, 17786, 18923], "responses": ["9", "10  "], "num2": [2, 3, 4], "num3": [3, 2, 2], "conditions": [24, 1600, "a", 24000], "internal_node_id": "0.0-90.0", "key_presses": [105, 13, 97, 97, 8, 96, 32, 32, 13, 97, 98, 32], "trial": 3, "time_elapsed": 766539, "type": "DISTRACTOR", "trial_index": 117, "num1": [4, 5, 6]}, "uniqueid": "MTK3373:34HJIJKLP6318T4TVWAVTR08L3Z4VY", "dateTime": 1520457641979}, {"current_trial": 118, "trialdata": {"rt": -1, "trial_type": "single-stim", "stimulus": "<p id=\"stim\">10</p>", "internal_node_id": "0.0-91.0-0.0", "time_elapsed": 769543, "key_press": -1, "trial_index": 118}, "uniqueid": "MTK3373:34HJIJKLP6318T4TVWAVTR08L3Z4VY", "dateTime": 1520457644984}, {"current_trial": 119, "trialdata": {"rt": -1, "trial_type": "single-stim", "stimulus": "<p id=\"stim\">9</p>", "internal_node_id": "0.0-91.0-1.0", "time_elapsed": 770546, "key_press": -1, "trial_index": 119}, "uniqueid": "MTK3373:34HJIJKLP6318T4TVWAVTR08L3Z4VY", "dateTime": 1520457645986}, {"current_trial": 120, "trialdata": {"rt": -1, "trial_type": "single-stim", "stimulus": "<p id=\"stim\">8</p>", "internal_node_id": "0.0-91.0-2.0", "time_elapsed": 771547, "key_press": -1, "trial_index": 120}, "uniqueid": "MTK3373:34HJIJKLP6318T4TVWAVTR08L3Z4VY", "dateTime": 1520457646987}, {"current_trial": 121, "trialdata": {"rt": -1, "trial_type": "single-stim", "stimulus": "<p id=\"stim\">7</p>", "internal_node_id": "0.0-91.0-3.0", "time_elapsed": 772550, "key_press": -1, "trial_index": 121}, "uniqueid": "MTK3373:34HJIJKLP6318T4TVWAVTR08L3Z4VY", "dateTime": 1520457647990}, {"current_trial": 122, "trialdata": {"rt": -1, "trial_type": "single-stim", "stimulus": "<p id=\"stim\">6</p>", "internal_node_id": "0.0-91.0-4.0", "time_elapsed": 773553, "key_press": -1, "trial_index": 122}, "uniqueid": "MTK3373:34HJIJKLP6318T4TVWAVTR08L3Z4VY", "dateTime": 1520457648993}, {"current_trial": 123, "trialdata": {"rt": -1, "trial_type": "single-stim", "stimulus": "<p id=\"stim\">5</p>", "internal_node_id": "0.0-91.0-5.0", "time_elapsed": 774556, "key_press": -1, "trial_index": 123}, "uniqueid": "MTK3373:34HJIJKLP6318T4TVWAVTR08L3Z4VY", "dateTime": 1520457649996}, {"current_trial": 124, "trialdata": {"rt": -1, "trial_type": "single-stim", "stimulus": "<p id=\"stim\">4</p>", "internal_node_id": "0.0-91.0-6.0", "time_elapsed": 775557, "key_press": -1, "trial_index": 124}, "uniqueid": "MTK3373:34HJIJKLP6318T4TVWAVTR08L3Z4VY", "dateTime": 1520457650997}, {"current_trial": 125, "trialdata": {"rt": -1, "trial_type": "single-stim", "stimulus": "<p id=\"stim\">3</p>", "internal_node_id": "0.0-91.0-7.0", "time_elapsed": 776561, "key_press": -1, "trial_index": 125}, "uniqueid": "MTK3373:34HJIJKLP6318T4TVWAVTR08L3Z4VY", "dateTime": 1520457652001}, {"current_trial": 126, "trialdata": {"rt": -1, "trial_type": "single-stim", "stimulus": "<p id=\"stim\">2</p>", "internal_node_id": "0.0-91.0-8.0", "time_elapsed": 777563, "key_press": -1, "trial_index": 126}, "uniqueid": "MTK3373:34HJIJKLP6318T4TVWAVTR08L3Z4VY", "dateTime": 1520457653003}, {"current_trial": 127, "trialdata": {"rt": -1, "trial_type": "single-stim", "stimulus": "<p id=\"stim\">1</p>", "internal_node_id": "0.0-91.0-9.0", "time_elapsed": 778565, "key_press": -1, "trial_index": 127}, "uniqueid": "MTK3373:34HJIJKLP6318T4TVWAVTR08L3Z4VY", "dateTime": 1520457654005}, {"current_trial": 128, "trialdata": {"rt": -1, "trial_type": "single-stim", "stimulus": "<p id=\"stim\">+</p>", "internal_node_id": "0.0-92.0-0.0", "time_elapsed": 780069, "key_press": -1, "type": "FIXATION", "trial_index": 128}, "uniqueid": "MTK3373:34HJIJKLP6318T4TVWAVTR08L3Z4VY", "dateTime": 1520457655509}, {"current_trial": 129, "trialdata": {"rt": -1000, "trial_type": "single-audio", "word": "lightning", "stimulus": "/static/audio/wordpool/LIGHTNING.wav", "conditions": [24, 1600, "a", 24000], "internal_node_id": "0.0-93.0", "trial": 3, "time_elapsed": 782691, "serialpos": 0, "key_press": -1, "wordID": 819, "type": "PRES_AUD", "trial_index": 129}, "uniqueid": "MTK3373:34HJIJKLP6318T4TVWAVTR08L3Z4VY", "dateTime": 1520457658131}, {"current_trial": 130, "trialdata": {"rt": -1000, "trial_type": "single-audio", "word": "jelly", "stimulus": "/static/audio/wordpool/JELLY.wav", "conditions": [24, 1600, "a", 24000], "internal_node_id": "0.0-94.0", "trial": 3, "time_elapsed": 785217, "serialpos": 1, "key_press": -1, "wordID": 754, "type": "PRES_AUD", "trial_index": 130}, "uniqueid": "MTK3373:34HJIJKLP6318T4TVWAVTR08L3Z4VY", "dateTime": 1520457660657}, {"current_trial": 131, "trialdata": {"rt": -1000, "trial_type": "single-audio", "word": "heart", "stimulus": "/static/audio/wordpool/HEART.wav", "conditions": [24, 1600, "a", 24000], "internal_node_id": "0.0-95.0", "trial": 3, "time_elapsed": 787969, "serialpos": 2, "key_press": -1, "wordID": 696, "type": "PRES_AUD", "trial_index": 131}, "uniqueid": "MTK3373:34HJIJKLP6318T4TVWAVTR08L3Z4VY", "dateTime": 1520457663409}, {"current_trial": 132, "trialdata": {"rt": -1000, "trial_type": "single-audio", "word": "cellar", "stimulus": "/static/audio/wordpool/CELLAR.wav", "conditions": [24, 1600, "a", 24000], "internal_node_id": "0.0-96.0", "trial": 3, "time_elapsed": 790769, "serialpos": 3, "key_press": -1, "wordID": 266, "type": "PRES_AUD", "trial_index": 132}, "uniqueid": "MTK3373:34HJIJKLP6318T4TVWAVTR08L3Z4VY", "dateTime": 1520457666209}, {"current_trial": 133, "trialdata": {"rt": -1000, "trial_type": "single-audio", "word": "crab", "stimulus": "/static/audio/wordpool/CRAB.wav", "conditions": [24, 1600, "a", 24000], "internal_node_id": "0.0-97.0", "trial": 3, "time_elapsed": 793366, "serialpos": 4, "key_press": -1, "wordID": 396, "type": "PRES_AUD", "trial_index": 133}, "uniqueid": "MTK3373:34HJIJKLP6318T4TVWAVTR08L3Z4VY", "dateTime": 1520457668806}, {"current_trial": 134, "trialdata": {"rt": -1000, "trial_type": "single-audio", "word": "cod", "stimulus": "/static/audio/wordpool/COD.wav", "conditions": [24, 1600, "a", 24000], "internal_node_id": "0.0-98.0", "trial": 3, "time_elapsed": 795876, "serialpos": 5, "key_press": -1, "wordID": 339, "type": "PRES_AUD", "trial_index": 134}, "uniqueid": "MTK3373:34HJIJKLP6318T4TVWAVTR08L3Z4VY", "dateTime": 1520457671316}, {"current_trial": 135, "trialdata": {"rt": -1000, "trial_type": "single-audio", "word": "rabbit", "stimulus": "/static/audio/wordpool/RABBIT.wav", "conditions": [24, 1600, "a", 24000], "internal_node_id": "0.0-99.0", "trial": 3, "time_elapsed": 798365, "serialpos": 6, "key_press": -1, "wordID": 1151, "type": "PRES_AUD", "trial_index": 135}, "uniqueid": "MTK3373:34HJIJKLP6318T4TVWAVTR08L3Z4VY", "dateTime": 1520457673805}, {"current_trial": 136, "trialdata": {"rt": -1000, "trial_type": "single-audio", "word": "soda", "stimulus": "/static/audio/wordpool/SODA.wav", "conditions": [24, 1600, "a", 24000], "internal_node_id": "0.0-100.0", "trial": 3, "time_elapsed": 801002, "serialpos": 7, "key_press": -1, "wordID": 1340, "type": "PRES_AUD", "trial_index": 136}, "uniqueid": "MTK3373:34HJIJKLP6318T4TVWAVTR08L3Z4VY", "dateTime": 1520457676443}, {"current_trial": 137, "trialdata": {"rt": -1000, "trial_type": "single-audio", "word": "knife", "stimulus": "/static/audio/wordpool/KNIFE.wav", "conditions": [24, 1600, "a", 24000], "internal_node_id": "0.0-101.0", "trial": 3, "time_elapsed": 803519, "serialpos": 8, "key_press": -1, "wordID": 784, "type": "PRES_AUD", "trial_index": 137}, "uniqueid": "MTK3373:34HJIJKLP6318T4TVWAVTR08L3Z4VY", "dateTime": 1520457678960}, {"current_trial": 138, "trialdata": {"rt": -1000, "trial_type": "single-audio", "word": "pigeon", "stimulus": "/static/audio/wordpool/PIGEON.wav", "conditions": [24, 1600, "a", 24000], "internal_node_id": "0.0-102.0", "trial": 3, "time_elapsed": 805998, "serialpos": 9, "key_press": -1, "wordID": 1064, "type": "PRES_AUD", "trial_index": 138}, "uniqueid": "MTK3373:34HJIJKLP6318T4TVWAVTR08L3Z4VY", "dateTime": 1520457681438}, {"current_trial": 139, "trialdata": {"rt": -1000, "trial_type": "single-audio", "word": "baby", "stimulus": "/static/audio/wordpool/BABY.wav", "conditions": [24, 1600, "a", 24000], "internal_node_id": "0.0-103.0", "trial": 3, "time_elapsed": 808412, "serialpos": 10, "key_press": -1, "wordID": 63, "type": "PRES_AUD", "trial_index": 139}, "uniqueid": "MTK3373:34HJIJKLP6318T4TVWAVTR08L3Z4VY", "dateTime": 1520457683852}, {"current_trial": 140, "trialdata": {"rt": -1000, "trial_type": "single-audio", "word": "pizza", "stimulus": "/static/audio/wordpool/PIZZA.wav", "conditions": [24, 1600, "a", 24000], "internal_node_id": "0.0-104.0", "trial": 3, "time_elapsed": 811137, "serialpos": 11, "key_press": -1, "wordID": 1078, "type": "PRES_AUD", "trial_index": 140}, "uniqueid": "MTK3373:34HJIJKLP6318T4TVWAVTR08L3Z4VY", "dateTime": 1520457686577}, {"current_trial": 141, "trialdata": {"rt": -1000, "trial_type": "single-audio", "word": "pasta", "stimulus": "/static/audio/wordpool/PASTA.wav", "conditions": [24, 1600, "a", 24000], "internal_node_id": "0.0-105.0", "trial": 3, "time_elapsed": 813831, "serialpos": 12, "key_press": -1, "wordID": 1020, "type": "PRES_AUD", "trial_index": 141}, "uniqueid": "MTK3373:34HJIJKLP6318T4TVWAVTR08L3Z4VY", "dateTime": 1520457689271}, {"current_trial": 142, "trialdata": {"rt": -1000, "trial_type": "single-audio", "word": "patrol", "stimulus": "/static/audio/wordpool/PATROL.wav", "conditions": [24, 1600, "a", 24000], "internal_node_id": "0.0-106.0", "trial": 3, "time_elapsed": 816411, "serialpos": 13, "key_press": -1, "wordID": 1026, "type": "PRES_AUD", "trial_index": 142}, "uniqueid": "MTK3373:34HJIJKLP6318T4TVWAVTR08L3Z4VY", "dateTime": 1520457691851}, {"current_trial": 143, "trialdata": {"rt": -1000, "trial_type": "single-audio", "word": "suitcase", "stimulus": "/static/audio/wordpool/SUITCASE.wav", "conditions": [24, 1600, "a", 24000], "internal_node_id": "0.0-107.0", "trial": 3, "time_elapsed": 819153, "serialpos": 14, "key_press": -1, "wordID": 1402, "type": "PRES_AUD", "trial_index": 143}, "uniqueid": "MTK3373:34HJIJKLP6318T4TVWAVTR08L3Z4VY", "dateTime": 1520457694593}, {"current_trial": 144, "trialdata": {"rt": -1000, "trial_type": "single-audio", "word": "necklace", "stimulus": "/static/audio/wordpool/NECKLACE.wav", "conditions": [24, 1600, "a", 24000], "internal_node_id": "0.0-108.0", "trial": 3, "time_elapsed": 821843, "serialpos": 15, "key_press": -1, "wordID": 939, "type": "PRES_AUD", "trial_index": 144}, "uniqueid": "MTK3373:34HJIJKLP6318T4TVWAVTR08L3Z4VY", "dateTime": 1520457697283}, {"current_trial": 145, "trialdata": {"rt": -1000, "trial_type": "single-audio", "word": "dress", "stimulus": "/static/audio/wordpool/DRESS.wav", "conditions": [24, 1600, "a", 24000], "internal_node_id": "0.0-109.0", "trial": 3, "time_elapsed": 824380, "serialpos": 16, "key_press": -1, "wordID": 494, "type": "PRES_AUD", "trial_index": 145}, "uniqueid": "MTK3373:34HJIJKLP6318T4TVWAVTR08L3Z4VY", "dateTime": 1520457699820}, {"current_trial": 146, "trialdata": {"rt": -1000, "trial_type": "single-audio", "word": "briefcase", "stimulus": "/static/audio/wordpool/BRIEFCASE.wav", "conditions": [24, 1600, "a", 24000], "internal_node_id": "0.0-110.0", "trial": 3, "time_elapsed": 826892, "serialpos": 17, "key_press": -1, "wordID": 174, "type": "PRES_AUD", "trial_index": 146}, "uniqueid": "MTK3373:34HJIJKLP6318T4TVWAVTR08L3Z4VY", "dateTime": 1520457702332}, {"current_trial": 147, "trialdata": {"rt": -1000, "trial_type": "single-audio", "word": "wife", "stimulus": "/static/audio/wordpool/WIFE.wav", "conditions": [24, 1600, "a", 24000], "internal_node_id": "0.0-111.0", "trial": 3, "time_elapsed": 829657, "serialpos": 18, "key_press": -1, "wordID": 1608, "type": "PRES_AUD", "trial_index": 147}, "uniqueid": "MTK3373:34HJIJKLP6318T4TVWAVTR08L3Z4VY", "dateTime": 1520457705099}, {"current_trial": 148, "trialdata": {"rt": -1000, "trial_type": "single-audio", "word": "mammal", "stimulus": "/static/audio/wordpool/MAMMAL.wav", "conditions": [24, 1600, "a", 24000], "internal_node_id": "0.0-112.0", "trial": 3, "time_elapsed": 832442, "serialpos": 19, "key_press": -1, "wordID": 860, "type": "PRES_AUD", "trial_index": 148}, "uniqueid": "MTK3373:34HJIJKLP6318T4TVWAVTR08L3Z4VY", "dateTime": 1520457707882}, {"current_trial": 149, "trialdata": {"rt": -1000, "trial_type": "single-audio", "word": "panther", "stimulus": "/static/audio/wordpool/PANTHER.wav", "conditions": [24, 1600, "a", 24000], "internal_node_id": "0.0-113.0", "trial": 3, "time_elapsed": 835107, "serialpos": 20, "key_press": -1, "wordID": 1008, "type": "PRES_AUD", "trial_index": 149}, "uniqueid": "MTK3373:34HJIJKLP6318T4TVWAVTR08L3Z4VY", "dateTime": 1520457710548}, {"current_trial": 150, "trialdata": {"rt": -1000, "trial_type": "single-audio", "word": "sunrise", "stimulus": "/static/audio/wordpool/SUNRISE.wav", "conditions": [24, 1600, "a", 24000], "internal_node_id": "0.0-114.0", "trial": 3, "time_elapsed": 837628, "serialpos": 21, "key_press": -1, "wordID": 1406, "type": "PRES_AUD", "trial_index": 150}, "uniqueid": "MTK3373:34HJIJKLP6318T4TVWAVTR08L3Z4VY", "dateTime": 1520457713068}, {"current_trial": 151, "trialdata": {"rt": -1000, "trial_type": "single-audio", "word": "lover", "stimulus": "/static/audio/wordpool/LOVER.wav", "conditions": [24, 1600, "a", 24000], "internal_node_id": "0.0-115.0", "trial": 3, "time_elapsed": 840182, "serialpos": 22, "key_press": -1, "wordID": 845, "type": "PRES_AUD", "trial_index": 151}, "uniqueid": "MTK3373:34HJIJKLP6318T4TVWAVTR08L3Z4VY", "dateTime": 1520457715622}, {"current_trial": 152, "trialdata": {"rt": -1000, "trial_type": "single-audio", "word": "mailman", "stimulus": "/static/audio/wordpool/MAILMAN.wav", "conditions": [24, 1600, "a", 24000], "internal_node_id": "0.0-116.0", "trial": 3, "time_elapsed": 842749, "serialpos": 23, "key_press": -1, "wordID": 857, "type": "PRES_AUD", "trial_index": 152}, "uniqueid": "MTK3373:34HJIJKLP6318T4TVWAVTR08L3Z4VY", "dateTime": 1520457718189}, {"current_trial": 153, "trialdata": {"rt": -1, "trial_type": "single-stim", "stimulus": "", "internal_node_id": "0.0-117.0-0.0", "time_elapsed": 843968, "key_press": -1, "type": "PRE_RECALL_DELAY", "trial_index": 153}, "uniqueid": "MTK3373:34HJIJKLP6318T4TVWAVTR08L3Z4VY", "dateTime": 1520457719408}, {"current_trial": 154, "trialdata": {"rt": -1000, "trial_type": "single-audio", "stimulus": "/static/audio/400Hz.wav", "internal_node_id": "0.0-118.0", "time_elapsed": 844470, "key_press": -1, "type": "PRE_RECALL_ALERT", "trial_index": 154}, "uniqueid": "MTK3373:34HJIJKLP6318T4TVWAVTR08L3Z4VY", "dateTime": 1520457719911}, {"current_trial": 155, "trialdata": {"rt": [5847, 9144, 11160, 14455, 17751, 20086, 22598, 26677, 28022, 31717, 36614, 41303, 44215, 45990, 50294, 52596, 56423, 59783], "recwords": ["mailman", "sunrise", "lover", "briefcase", "light", "jelly", "heart", "crab", "cod", "rabbit", "pigeon", "pasta", "cod", "knife", "pizza", "soda", "baby", "dress"], "key_times": [2679, 2998, 3240, 3496, 3767, 3992, 4264, 5847, 6855, 7080, 7367, 7863, 8087, 8423, 8806, 9144, 9896, 10150, 10407, 10598, 10807, 11160, 11638, 11878, 12151, 12405, 12664, 13192, 13430, 13735, 14024, 14455, 16423, 16711, 17029, 17191, 17352, 17751, 18566, 18822, 19142, 19319, 19670, 20086, 21351, 21558, 21766, 21975, 22214, 22598, 25432, 25798, 26168, 26358, 26677, 27158, 27431, 27703, 28022, 30039, 30406, 30677, 30870, 31078, 31317, 31717, 34630, 34919, 35269, 35541, 35798, 36182, 36614, 39782, 40085, 40342, 40645, 40934, 41303, 43191, 43414, 43820, 44215, 44708, 44980, 45205, 45477, 45702, 45990, 48549, 48824, 49478, 49686, 49989, 50294, 51510, 51733, 52102, 52341, 52596, 55143, 55365, 55573, 55910, 56423, 58325, 58582, 58853, 59125, 59333, 59783], "trial_type": "free-recall", "conditions": [24, 1600, "a", 24000], "internal_node_id": "0.0-119.0-0.0", "key_presses": [77, 65, 73, 76, 77, 65, 78, 32, 83, 85, 78, 82, 73, 83, 69, 32, 76, 79, 86, 69, 82, 32, 66, 82, 73, 69, 70, 67, 65, 83, 69, 32, 76, 73, 71, 72, 84, 32, 74, 69, 76, 76, 89, 32, 72, 69, 65, 82, 84, 32, 67, 82, 65, 66, 32, 67, 79, 68, 32, 82, 65, 66, 66, 73, 84, 32, 80, 73, 71, 69, 79, 78, 32, 80, 65, 83, 84, 65, 32, 67, 79, 68, 32, 75, 78, 73, 70, 69, 32, 80, 73, 90, 90, 65, 32, 83, 79, 68, 65, 32, 66, 65, 66, 89, 32, 68, 82, 69, 83, 83, 32], "trial": 3, "time_elapsed": 904476, "type": "FREE_RECALL", "trial_index": 155}, "uniqueid": "MTK3373:34HJIJKLP6318T4TVWAVTR08L3Z4VY", "dateTime": 1520457779923}, {"current_trial": 156, "trialdata": {"rt": 891, "trial_type": "text", "internal_node_id": "0.0-120.0", "time_elapsed": 907375, "key_press": 78, "type": "INSTRUCTIONS", "trial_index": 156}, "uniqueid": "MTK3373:34HJIJKLP6318T4TVWAVTR08L3Z4VY", "dateTime": 1520457782815}, {"current_trial": 157, "trialdata": {"rt": [], "trial_type": "math-distractor", "key_times": [], "responses": [], "num2": [8], "num3": [5], "conditions": [24, 800, "a", 12000], "internal_node_id": "0.0-121.0", "key_presses": [], "trial": 4, "time_elapsed": 921382, "type": "DISTRACTOR", "trial_index": 157, "num1": [7]}, "uniqueid": "MTK3373:34HJIJKLP6318T4TVWAVTR08L3Z4VY", "dateTime": 1520457796822}, {"current_trial": 158, "trialdata": {"rt": -1, "trial_type": "single-stim", "stimulus": "<p id=\"stim\">10</p>", "internal_node_id": "0.0-122.0-0.0", "time_elapsed": 924383, "key_press": -1, "trial_index": 158}, "uniqueid": "MTK3373:34HJIJKLP6318T4TVWAVTR08L3Z4VY", "dateTime": 1520457799823}, {"current_trial": 159, "trialdata": {"rt": -1, "trial_type": "single-stim", "stimulus": "<p id=\"stim\">9</p>", "internal_node_id": "0.0-122.0-1.0", "time_elapsed": 925385, "key_press": -1, "trial_index": 159}, "uniqueid": "MTK3373:34HJIJKLP6318T4TVWAVTR08L3Z4VY", "dateTime": 1520457800826}, {"current_trial": 160, "trialdata": {"rt": -1, "trial_type": "single-stim", "stimulus": "<p id=\"stim\">8</p>", "internal_node_id": "0.0-122.0-2.0", "time_elapsed": 926387, "key_press": -1, "trial_index": 160}, "uniqueid": "MTK3373:34HJIJKLP6318T4TVWAVTR08L3Z4VY", "dateTime": 1520457801827}, {"current_trial": 161, "trialdata": {"rt": -1, "trial_type": "single-stim", "stimulus": "<p id=\"stim\">7</p>", "internal_node_id": "0.0-122.0-3.0", "time_elapsed": 927391, "key_press": -1, "trial_index": 161}, "uniqueid": "MTK3373:34HJIJKLP6318T4TVWAVTR08L3Z4VY", "dateTime": 1520457802831}, {"current_trial": 162, "trialdata": {"rt": -1, "trial_type": "single-stim", "stimulus": "<p id=\"stim\">6</p>", "internal_node_id": "0.0-122.0-4.0", "time_elapsed": 928393, "key_press": -1, "trial_index": 162}, "uniqueid": "MTK3373:34HJIJKLP6318T4TVWAVTR08L3Z4VY", "dateTime": 1520457803833}, {"current_trial": 163, "trialdata": {"rt": -1, "trial_type": "single-stim", "stimulus": "<p id=\"stim\">5</p>", "internal_node_id": "0.0-122.0-5.0", "time_elapsed": 929395, "key_press": -1, "trial_index": 163}, "uniqueid": "MTK3373:34HJIJKLP6318T4TVWAVTR08L3Z4VY", "dateTime": 1520457804835}, {"current_trial": 164, "trialdata": {"rt": -1, "trial_type": "single-stim", "stimulus": "<p id=\"stim\">4</p>", "internal_node_id": "0.0-122.0-6.0", "time_elapsed": 930397, "key_press": -1, "trial_index": 164}, "uniqueid": "MTK3373:34HJIJKLP6318T4TVWAVTR08L3Z4VY", "dateTime": 1520457805837}, {"current_trial": 165, "trialdata": {"rt": -1, "trial_type": "single-stim", "stimulus": "<p id=\"stim\">3</p>", "internal_node_id": "0.0-122.0-7.0", "time_elapsed": 931401, "key_press": -1, "trial_index": 165}, "uniqueid": "MTK3373:34HJIJKLP6318T4TVWAVTR08L3Z4VY", "dateTime": 1520457806841}, {"current_trial": 166, "trialdata": {"rt": -1, "trial_type": "single-stim", "stimulus": "<p id=\"stim\">2</p>", "internal_node_id": "0.0-122.0-8.0", "time_elapsed": 932402, "key_press": -1, "trial_index": 166}, "uniqueid": "MTK3373:34HJIJKLP6318T4TVWAVTR08L3Z4VY", "dateTime": 1520457807842}, {"current_trial": 167, "trialdata": {"rt": -1, "trial_type": "single-stim", "stimulus": "<p id=\"stim\">1</p>", "internal_node_id": "0.0-122.0-9.0", "time_elapsed": 933405, "key_press": -1, "trial_index": 167}, "uniqueid": "MTK3373:34HJIJKLP6318T4TVWAVTR08L3Z4VY", "dateTime": 1520457808845}, {"current_trial": 168, "trialdata": {"rt": -1, "trial_type": "single-stim", "stimulus": "<p id=\"stim\">+</p>", "internal_node_id": "0.0-123.0-0.0", "time_elapsed": 934907, "key_press": -1, "type": "FIXATION", "trial_index": 168}, "uniqueid": "MTK3373:34HJIJKLP6318T4TVWAVTR08L3Z4VY", "dateTime": 1520457810347}, {"current_trial": 169, "trialdata": {"rt": -1000, "trial_type": "single-audio", "word": "leopard", "stimulus": "/static/audio/wordpool/LEOPARD.wav", "conditions": [24, 800, "a", 12000], "internal_node_id": "0.0-124.0", "trial": 4, "time_elapsed": 936842, "serialpos": 0, "key_press": -1, "wordID": 811, "type": "PRES_AUD", "trial_index": 169}, "uniqueid": "MTK3373:34HJIJKLP6318T4TVWAVTR08L3Z4VY", "dateTime": 1520457812282}, {"current_trial": 170, "trialdata": {"rt": -1000, "trial_type": "single-audio", "word": "globe", "stimulus": "/static/audio/wordpool/GLOBE.wav", "conditions": [24, 800, "a", 12000], "internal_node_id": "0.0-125.0", "trial": 4, "time_elapsed": 938672, "serialpos": 1, "key_press": -1, "wordID": 640, "type": "PRES_AUD", "trial_index": 170}, "uniqueid": "MTK3373:34HJIJKLP6318T4TVWAVTR08L3Z4VY", "dateTime": 1520457814114}, {"current_trial": 171, "trialdata": {"rt": -1000, "trial_type": "single-audio", "word": "palace", "stimulus": "/static/audio/wordpool/PALACE.wav", "conditions": [24, 800, "a", 12000], "internal_node_id": "0.0-126.0", "trial": 4, "time_elapsed": 940293, "serialpos": 2, "key_press": -1, "wordID": 1005, "type": "PRES_AUD", "trial_index": 171}, "uniqueid": "MTK3373:34HJIJKLP6318T4TVWAVTR08L3Z4VY", "dateTime": 1520457815733}, {"current_trial": 172, "trialdata": {"rt": -1000, "trial_type": "single-audio", "word": "widow", "stimulus": "/static/audio/wordpool/WIDOW.wav", "conditions": [24, 800, "a", 12000], "internal_node_id": "0.0-127.0", "trial": 4, "time_elapsed": 942211, "serialpos": 3, "key_press": -1, "wordID": 1607, "type": "PRES_AUD", "trial_index": 172}, "uniqueid": "MTK3373:34HJIJKLP6318T4TVWAVTR08L3Z4VY", "dateTime": 1520457817652}, {"current_trial": 173, "trialdata": {"rt": -1000, "trial_type": "single-audio", "word": "scalpel", "stimulus": "/static/audio/wordpool/SCALPEL.wav", "conditions": [24, 800, "a", 12000], "internal_node_id": "0.0-128.0", "trial": 4, "time_elapsed": 943825, "serialpos": 4, "key_press": -1, "wordID": 1242, "type": "PRES_AUD", "trial_index": 173}, "uniqueid": "MTK3373:34HJIJKLP6318T4TVWAVTR08L3Z4VY", "dateTime": 1520457819265}, {"current_trial": 174, "trialdata": {"rt": -1000, "trial_type": "single-audio", "word": "ulcer", "stimulus": "/static/audio/wordpool/ULCER.wav", "conditions": [24, 800, "a", 12000], "internal_node_id": "0.0-129.0", "trial": 4, "time_elapsed": 945520, "serialpos": 5, "key_press": -1, "wordID": 1532, "type": "PRES_AUD", "trial_index": 174}, "uniqueid": "MTK3373:34HJIJKLP6318T4TVWAVTR08L3Z4VY", "dateTime": 1520457820960}, {"current_trial": 175, "trialdata": {"rt": -1000, "trial_type": "single-audio", "word": "powder", "stimulus": "/static/audio/wordpool/POWDER.wav", "conditions": [24, 800, "a", 12000], "internal_node_id": "0.0-130.0", "trial": 4, "time_elapsed": 947361, "serialpos": 6, "key_press": -1, "wordID": 1116, "type": "PRES_AUD", "trial_index": 175}, "uniqueid": "MTK3373:34HJIJKLP6318T4TVWAVTR08L3Z4VY", "dateTime": 1520457822802}, {"current_trial": 176, "trialdata": {"rt": -1000, "trial_type": "single-audio", "word": "daughter", "stimulus": "/static/audio/wordpool/DAUGHTER.wav", "conditions": [24, 800, "a", 12000], "internal_node_id": "0.0-131.0", "trial": 4, "time_elapsed": 949043, "serialpos": 7, "key_press": -1, "wordID": 441, "type": "PRES_AUD", "trial_index": 176}, "uniqueid": "MTK3373:34HJIJKLP6318T4TVWAVTR08L3Z4VY", "dateTime": 1520457824483}, {"current_trial": 177, "trialdata": {"rt": -1000, "trial_type": "single-audio", "word": "daisy", "stimulus": "/static/audio/wordpool/DAISY.wav", "conditions": [24, 800, "a", 12000], "internal_node_id": "0.0-132.0", "trial": 4, "time_elapsed": 950855, "serialpos": 8, "key_press": -1, "wordID": 434, "type": "PRES_AUD", "trial_index": 177}, "uniqueid": "MTK3373:34HJIJKLP6318T4TVWAVTR08L3Z4VY", "dateTime": 1520457826295}, {"current_trial": 178, "trialdata": {"rt": -1000, "trial_type": "single-audio", "word": "marrow", "stimulus": "/static/audio/wordpool/MARROW.wav", "conditions": [24, 800, "a", 12000], "internal_node_id": "0.0-133.0", "trial": 4, "time_elapsed": 952861, "serialpos": 9, "key_press": -1, "wordID": 871, "type": "PRES_AUD", "trial_index": 178}, "uniqueid": "MTK3373:34HJIJKLP6318T4TVWAVTR08L3Z4VY", "dateTime": 1520457828301}, {"current_trial": 179, "trialdata": {"rt": -1000, "trial_type": "single-audio", "word": "liver", "stimulus": "/static/audio/wordpool/LIVER.wav", "conditions": [24, 800, "a", 12000], "internal_node_id": "0.0-134.0", "trial": 4, "time_elapsed": 954624, "serialpos": 10, "key_press": -1, "wordID": 832, "type": "PRES_AUD", "trial_index": 179}, "uniqueid": "MTK3373:34HJIJKLP6318T4TVWAVTR08L3Z4VY", "dateTime": 1520457830064}, {"current_trial": 180, "trialdata": {"rt": -1000, "trial_type": "single-audio", "word": "onion", "stimulus": "/static/audio/wordpool/ONION.wav", "conditions": [24, 800, "a", 12000], "internal_node_id": "0.0-135.0", "trial": 4, "time_elapsed": 956562, "serialpos": 11, "key_press": -1, "wordID": 976, "type": "PRES_AUD", "trial_index": 180}, "uniqueid": "MTK3373:34HJIJKLP6318T4TVWAVTR08L3Z4VY", "dateTime": 1520457832003}, {"current_trial": 181, "trialdata": {"rt": -1000, "trial_type": "single-audio", "word": "pecan", "stimulus": "/static/audio/wordpool/PECAN.wav", "conditions": [24, 800, "a", 12000], "internal_node_id": "0.0-136.0", "trial": 4, "time_elapsed": 958361, "serialpos": 12, "key_press": -1, "wordID": 1035, "type": "PRES_AUD", "trial_index": 181}, "uniqueid": "MTK3373:34HJIJKLP6318T4TVWAVTR08L3Z4VY", "dateTime": 1520457833801}, {"current_trial": 182, "trialdata": {"rt": -1000, "trial_type": "single-audio", "word": "wrist", "stimulus": "/static/audio/wordpool/WRIST.wav", "conditions": [24, 800, "a", 12000], "internal_node_id": "0.0-137.0", "trial": 4, "time_elapsed": 960295, "serialpos": 13, "key_press": -1, "wordID": 1625, "type": "PRES_AUD", "trial_index": 182}, "uniqueid": "MTK3373:34HJIJKLP6318T4TVWAVTR08L3Z4VY", "dateTime": 1520457835738}, {"current_trial": 183, "trialdata": {"rt": -1000, "trial_type": "single-audio", "word": "concert", "stimulus": "/static/audio/wordpool/CONCERT.wav", "conditions": [24, 800, "a", 12000], "internal_node_id": "0.0-138.0", "trial": 4, "time_elapsed": 961916, "serialpos": 14, "key_press": -1, "wordID": 359, "type": "PRES_AUD", "trial_index": 183}, "uniqueid": "MTK3373:34HJIJKLP6318T4TVWAVTR08L3Z4VY", "dateTime": 1520457837356}, {"current_trial": 184, "trialdata": {"rt": -1000, "trial_type": "single-audio", "word": "peanut", "stimulus": "/static/audio/wordpool/PEANUT.wav", "conditions": [24, 800, "a", 12000], "internal_node_id": "0.0-139.0", "trial": 4, "time_elapsed": 963855, "serialpos": 15, "key_press": -1, "wordID": 1031, "type": "PRES_AUD", "trial_index": 184}, "uniqueid": "MTK3373:34HJIJKLP6318T4TVWAVTR08L3Z4VY", "dateTime": 1520457839296}, {"current_trial": 185, "trialdata": {"rt": -1000, "trial_type": "single-audio", "word": "stomach", "stimulus": "/static/audio/wordpool/STOMACH.wav", "conditions": [24, 800, "a", 12000], "internal_node_id": "0.0-140.0", "trial": 4, "time_elapsed": 965794, "serialpos": 16, "key_press": -1, "wordID": 1383, "type": "PRES_AUD", "trial_index": 185}, "uniqueid": "MTK3373:34HJIJKLP6318T4TVWAVTR08L3Z4VY", "dateTime": 1520457841234}, {"current_trial": 186, "trialdata": {"rt": -1000, "trial_type": "single-audio", "word": "girl", "stimulus": "/static/audio/wordpool/GIRL.wav", "conditions": [24, 800, "a", 12000], "internal_node_id": "0.0-141.0", "trial": 4, "time_elapsed": 967746, "serialpos": 17, "key_press": -1, "wordID": 636, "type": "PRES_AUD", "trial_index": 186}, "uniqueid": "MTK3373:34HJIJKLP6318T4TVWAVTR08L3Z4VY", "dateTime": 1520457843186}, {"current_trial": 187, "trialdata": {"rt": -1000, "trial_type": "single-audio", "word": "blender", "stimulus": "/static/audio/wordpool/BLENDER.wav", "conditions": [24, 800, "a", 12000], "internal_node_id": "0.0-142.0", "trial": 4, "time_elapsed": 969668, "serialpos": 18, "key_press": -1, "wordID": 135, "type": "PRES_AUD", "trial_index": 187}, "uniqueid": "MTK3373:34HJIJKLP6318T4TVWAVTR08L3Z4VY", "dateTime": 1520457845108}, {"current_trial": 188, "trialdata": {"rt": -1000, "trial_type": "single-audio", "word": "shortcake", "stimulus": "/static/audio/wordpool/SHORTCAKE.wav", "conditions": [24, 800, "a", 12000], "internal_node_id": "0.0-143.0", "trial": 4, "time_elapsed": 971314, "serialpos": 19, "key_press": -1, "wordID": 1291, "type": "PRES_AUD", "trial_index": 188}, "uniqueid": "MTK3373:34HJIJKLP6318T4TVWAVTR08L3Z4VY", "dateTime": 1520457846754}, {"current_trial": 189, "trialdata": {"rt": -1000, "trial_type": "single-audio", "word": "salad", "stimulus": "/static/audio/wordpool/SALAD.wav", "conditions": [24, 800, "a", 12000], "internal_node_id": "0.0-144.0", "trial": 4, "time_elapsed": 973149, "serialpos": 20, "key_press": -1, "wordID": 1223, "type": "PRES_AUD", "trial_index": 189}, "uniqueid": "MTK3373:34HJIJKLP6318T4TVWAVTR08L3Z4VY", "dateTime": 1520457848589}, {"current_trial": 190, "trialdata": {"rt": -1000, "trial_type": "single-audio", "word": "outlaw", "stimulus": "/static/audio/wordpool/OUTLAW.wav", "conditions": [24, 800, "a", 12000], "internal_node_id": "0.0-145.0", "trial": 4, "time_elapsed": 975051, "serialpos": 21, "key_press": -1, "wordID": 988, "type": "PRES_AUD", "trial_index": 190}, "uniqueid": "MTK3373:34HJIJKLP6318T4TVWAVTR08L3Z4VY", "dateTime": 1520457850491}, {"current_trial": 191, "trialdata": {"rt": -1000, "trial_type": "single-audio", "word": "cupboard", "stimulus": "/static/audio/wordpool/CUPBOARD.wav", "conditions": [24, 800, "a", 12000], "internal_node_id": "0.0-146.0", "trial": 4, "time_elapsed": 977011, "serialpos": 22, "key_press": -1, "wordID": 424, "type": "PRES_AUD", "trial_index": 191}, "uniqueid": "MTK3373:34HJIJKLP6318T4TVWAVTR08L3Z4VY", "dateTime": 1520457852451}, {"current_trial": 192, "trialdata": {"rt": -1000, "trial_type": "single-audio", "word": "chapel", "stimulus": "/static/audio/wordpool/CHAPEL.wav", "conditions": [24, 800, "a", 12000], "internal_node_id": "0.0-147.0", "trial": 4, "time_elapsed": 978684, "serialpos": 23, "key_press": -1, "wordID": 279, "type": "PRES_AUD", "trial_index": 192}, "uniqueid": "MTK3373:34HJIJKLP6318T4TVWAVTR08L3Z4VY", "dateTime": 1520457854124}, {"current_trial": 193, "trialdata": {"rt": -1, "trial_type": "single-stim", "stimulus": "", "internal_node_id": "0.0-148.0-0.0", "time_elapsed": 979967, "key_press": -1, "type": "PRE_RECALL_DELAY", "trial_index": 193}, "uniqueid": "MTK3373:34HJIJKLP6318T4TVWAVTR08L3Z4VY", "dateTime": 1520457855407}, {"current_trial": 194, "trialdata": {"rt": -1000, "trial_type": "single-audio", "stimulus": "/static/audio/400Hz.wav", "internal_node_id": "0.0-149.0", "time_elapsed": 980471, "key_press": -1, "type": "PRE_RECALL_ALERT", "trial_index": 194}, "uniqueid": "MTK3373:34HJIJKLP6318T4TVWAVTR08L3Z4VY", "dateTime": 1520457855911}, {"current_trial": 195, "trialdata": {"rt": [6081, 8159, 11457, 16736, 21472, 24480, 26495, 33007, 36880, 38640, 42704, 46543, 50895, 54639], "recwords": ["cupboard", "chapel", "outlaw", "shortcake", "pecan", "onion", "liver", "blender", "wrist", "girl", "daisy", "powder", "palace", "widow"], "key_times": [2881, 3217, 3601, 4081, 4385, 4608, 4897, 5185, 6081, 6545, 6753, 6945, 7121, 7393, 7841, 8159, 9745, 10016, 10273, 10561, 10832, 11121, 11457, 13360, 13681, 14687, 14961, 15185, 15617, 15888, 16017, 16239, 16736, 20192, 20416, 20752, 20960, 21120, 21472, 23088, 23409, 23599, 23921, 24160, 24480, 25199, 25521, 25760, 25999, 26210, 26495, 31216, 31584, 31871, 32063, 32352, 32592, 32767, 33007, 35424, 35696, 35936, 36271, 36607, 36880, 37440, 37680, 37887, 38288, 38640, 41248, 41503, 41663, 41823, 42223, 42704, 44479, 44702, 44944, 45855, 46079, 46224, 46543, 47711, 48080, 48415, 49791, 50271, 50511, 50895, 53103, 53455, 53806, 54063, 54318, 54639, 57856, 58191, 58542, 58751, 58911, 59135], "trial_type": "free-recall", "conditions": [24, 800, "a", 12000], "internal_node_id": "0.0-150.0-0.0", "key_presses": [67, 85, 80, 66, 79, 65, 82, 68, 32, 67, 72, 65, 80, 69, 76, 32, 79, 85, 84, 76, 65, 87, 32, 83, 72, 79, 82, 84, 67, 65, 75, 69, 32, 80, 69, 67, 65, 78, 32, 79, 78, 73, 79, 78, 32, 76, 73, 86, 69, 82, 32, 66, 76, 69, 78, 68, 69, 82, 32, 87, 82, 73, 83, 84, 32, 71, 73, 82, 76, 32, 68, 65, 73, 83, 89, 32, 80, 79, 87, 68, 69, 82, 32, 80, 65, 76, 65, 67, 69, 32, 87, 73, 68, 79, 87, 32, 77, 65, 82, 82, 79, 87], "trial": 4, "time_elapsed": 1040478, "type": "FREE_RECALL", "trial_index": 195}, "uniqueid": "MTK3373:34HJIJKLP6318T4TVWAVTR08L3Z4VY", "dateTime": 1520457915929}, {"current_trial": 196, "trialdata": {"rt": 1008, "trial_type": "text", "internal_node_id": "0.0-151.0", "time_elapsed": 1043497, "key_press": 32, "type": "INSTRUCTIONS", "trial_index": 196}, "uniqueid": "MTK3373:34HJIJKLP6318T4TVWAVTR08L3Z4VY", "dateTime": 1520457918937}, {"current_trial": 197, "trialdata": {"rt": [11929], "trial_type": "math-distractor", "key_times": [3851, 4009, 5355, 9962, 11065, 11929], "responses": ["11 "], "num2": [2, 4], "num3": [4, 6], "conditions": [24, 800, "a", 12000], "internal_node_id": "0.0-152.0", "key_presses": [97, 97, 32, 188, 8, 13], "trial": 5, "time_elapsed": 1057507, "type": "DISTRACTOR", "trial_index": 197, "num1": [5, 8]}, "uniqueid": "MTK3373:34HJIJKLP6318T4TVWAVTR08L3Z4VY", "dateTime": 1520457932947}, {"current_trial": 198, "trialdata": {"rt": -1, "trial_type": "single-stim", "stimulus": "<p id=\"stim\">10</p>", "internal_node_id": "0.0-153.0-0.0", "time_elapsed": 1060510, "key_press": -1, "trial_index": 198}, "uniqueid": "MTK3373:34HJIJKLP6318T4TVWAVTR08L3Z4VY", "dateTime": 1520457935950}, {"current_trial": 199, "trialdata": {"rt": -1, "trial_type": "single-stim", "stimulus": "<p id=\"stim\">9</p>", "internal_node_id": "0.0-153.0-1.0", "time_elapsed": 1061512, "key_press": -1, "trial_index": 199}, "uniqueid": "MTK3373:34HJIJKLP6318T4TVWAVTR08L3Z4VY", "dateTime": 1520457936952}, {"current_trial": 200, "trialdata": {"rt": -1, "trial_type": "single-stim", "stimulus": "<p id=\"stim\">8</p>", "internal_node_id": "0.0-153.0-2.0", "time_elapsed": 1062515, "key_press": -1, "trial_index": 200}, "uniqueid": "MTK3373:34HJIJKLP6318T4TVWAVTR08L3Z4VY", "dateTime": 1520457937955}, {"current_trial": 201, "trialdata": {"rt": -1, "trial_type": "single-stim", "stimulus": "<p id=\"stim\">7</p>", "internal_node_id": "0.0-153.0-3.0", "time_elapsed": 1063517, "key_press": -1, "trial_index": 201}, "uniqueid": "MTK3373:34HJIJKLP6318T4TVWAVTR08L3Z4VY", "dateTime": 1520457938957}, {"current_trial": 202, "trialdata": {"rt": -1, "trial_type": "single-stim", "stimulus": "<p id=\"stim\">6</p>", "internal_node_id": "0.0-153.0-4.0", "time_elapsed": 1064520, "key_press": -1, "trial_index": 202}, "uniqueid": "MTK3373:34HJIJKLP6318T4TVWAVTR08L3Z4VY", "dateTime": 1520457939960}, {"current_trial": 203, "trialdata": {"rt": -1, "trial_type": "single-stim", "stimulus": "<p id=\"stim\">5</p>", "internal_node_id": "0.0-153.0-5.0", "time_elapsed": 1065523, "key_press": -1, "trial_index": 203}, "uniqueid": "MTK3373:34HJIJKLP6318T4TVWAVTR08L3Z4VY", "dateTime": 1520457940963}, {"current_trial": 204, "trialdata": {"rt": -1, "trial_type": "single-stim", "stimulus": "<p id=\"stim\">4</p>", "internal_node_id": "0.0-153.0-6.0", "time_elapsed": 1066525, "key_press": -1, "trial_index": 204}, "uniqueid": "MTK3373:34HJIJKLP6318T4TVWAVTR08L3Z4VY", "dateTime": 1520457941965}, {"current_trial": 205, "trialdata": {"rt": -1, "trial_type": "single-stim", "stimulus": "<p id=\"stim\">3</p>", "internal_node_id": "0.0-153.0-7.0", "time_elapsed": 1067527, "key_press": -1, "trial_index": 205}, "uniqueid": "MTK3373:34HJIJKLP6318T4TVWAVTR08L3Z4VY", "dateTime": 1520457942967}, {"current_trial": 206, "trialdata": {"rt": -1, "trial_type": "single-stim", "stimulus": "<p id=\"stim\">2</p>", "internal_node_id": "0.0-153.0-8.0", "time_elapsed": 1068530, "key_press": -1, "trial_index": 206}, "uniqueid": "MTK3373:34HJIJKLP6318T4TVWAVTR08L3Z4VY", "dateTime": 1520457943970}, {"current_trial": 207, "trialdata": {"rt": -1, "trial_type": "single-stim", "stimulus": "<p id=\"stim\">1</p>", "internal_node_id": "0.0-153.0-9.0", "time_elapsed": 1069532, "key_press": -1, "trial_index": 207}, "uniqueid": "MTK3373:34HJIJKLP6318T4TVWAVTR08L3Z4VY", "dateTime": 1520457944973}, {"current_trial": 208, "trialdata": {"rt": -1, "trial_type": "single-stim", "stimulus": "<p id=\"stim\">+</p>", "internal_node_id": "0.0-154.0-0.0", "time_elapsed": 1071034, "key_press": -1, "type": "FIXATION", "trial_index": 208}, "uniqueid": "MTK3373:34HJIJKLP6318T4TVWAVTR08L3Z4VY", "dateTime": 1520457946474}, {"current_trial": 209, "trialdata": {"rt": -1000, "trial_type": "single-audio", "word": "costume", "stimulus": "/static/audio/wordpool/COSTUME.wav", "conditions": [24, 800, "a", 12000], "internal_node_id": "0.0-155.0", "trial": 5, "time_elapsed": 1072926, "serialpos": 0, "key_press": -1, "wordID": 382, "type": "PRES_AUD", "trial_index": 209}, "uniqueid": "MTK3373:34HJIJKLP6318T4TVWAVTR08L3Z4VY", "dateTime": 1520457948366}, {"current_trial": 210, "trialdata": {"rt": -1000, "trial_type": "single-audio", "word": "boyfriend", "stimulus": "/static/audio/wordpool/BOYFRIEND.wav", "conditions": [24, 800, "a", 12000], "internal_node_id": "0.0-156.0", "trial": 5, "time_elapsed": 1074866, "serialpos": 1, "key_press": -1, "wordID": 161, "type": "PRES_AUD", "trial_index": 210}, "uniqueid": "MTK3373:34HJIJKLP6318T4TVWAVTR08L3Z4VY", "dateTime": 1520457950307}, {"current_trial": 211, "trialdata": {"rt": -1000, "trial_type": "single-audio", "word": "finger", "stimulus": "/static/audio/wordpool/FINGER.wav", "conditions": [24, 800, "a", 12000], "internal_node_id": "0.0-157.0", "trial": 5, "time_elapsed": 1076694, "serialpos": 2, "key_press": -1, "wordID": 566, "type": "PRES_AUD", "trial_index": 211}, "uniqueid": "MTK3373:34HJIJKLP6318T4TVWAVTR08L3Z4VY", "dateTime": 1520457952134}, {"current_trial": 212, "trialdata": {"rt": -1000, "trial_type": "single-audio", "word": "rifle", "stimulus": "/static/audio/wordpool/RIFLE.wav", "conditions": [24, 800, "a", 12000], "internal_node_id": "0.0-158.0", "trial": 5, "time_elapsed": 1078619, "serialpos": 3, "key_press": -1, "wordID": 1191, "type": "PRES_AUD", "trial_index": 212}, "uniqueid": "MTK3373:34HJIJKLP6318T4TVWAVTR08L3Z4VY", "dateTime": 1520457954059}, {"current_trial": 213, "trialdata": {"rt": -1000, "trial_type": "single-audio", "word": "playground", "stimulus": "/static/audio/wordpool/PLAYGROUND.wav", "conditions": [24, 800, "a", 12000], "internal_node_id": "0.0-159.0", "trial": 5, "time_elapsed": 1080369, "serialpos": 4, "key_press": -1, "wordID": 1086, "type": "PRES_AUD", "trial_index": 213}, "uniqueid": "MTK3373:34HJIJKLP6318T4TVWAVTR08L3Z4VY", "dateTime": 1520457955810}, {"current_trial": 214, "trialdata": {"rt": -1000, "trial_type": "single-audio", "word": "queen", "stimulus": "/static/audio/wordpool/QUEEN.wav", "conditions": [24, 800, "a", 12000], "internal_node_id": "0.0-160.0", "trial": 5, "time_elapsed": 1082220, "serialpos": 5, "key_press": -1, "wordID": 1148, "type": "PRES_AUD", "trial_index": 214}, "uniqueid": "MTK3373:34HJIJKLP6318T4TVWAVTR08L3Z4VY", "dateTime": 1520457957660}, {"current_trial": 215, "trialdata": {"rt": -1000, "trial_type": "single-audio", "word": "orchid", "stimulus": "/static/audio/wordpool/ORCHID.wav", "conditions": [24, 800, "a", 12000], "internal_node_id": "0.0-161.0", "trial": 5, "time_elapsed": 1084067, "serialpos": 6, "key_press": -1, "wordID": 981, "type": "PRES_AUD", "trial_index": 215}, "uniqueid": "MTK3373:34HJIJKLP6318T4TVWAVTR08L3Z4VY", "dateTime": 1520457959508}, {"current_trial": 216, "trialdata": {"rt": -1000, "trial_type": "single-audio", "word": "plaza", "stimulus": "/static/audio/wordpool/PLAZA.wav", "conditions": [24, 800, "a", 12000], "internal_node_id": "0.0-162.0", "trial": 5, "time_elapsed": 1085849, "serialpos": 7, "key_press": -1, "wordID": 1087, "type": "PRES_AUD", "trial_index": 216}, "uniqueid": "MTK3373:34HJIJKLP6318T4TVWAVTR08L3Z4VY", "dateTime": 1520457961289}, {"current_trial": 217, "trialdata": {"rt": -1000, "trial_type": "single-audio", "word": "scarecrow", "stimulus": "/static/audio/wordpool/SCARECROW.wav", "conditions": [24, 800, "a", 12000], "internal_node_id": "0.0-163.0", "trial": 5, "time_elapsed": 1087593, "serialpos": 8, "key_press": -1, "wordID": 1244, "type": "PRES_AUD", "trial_index": 217}, "uniqueid": "MTK3373:34HJIJKLP6318T4TVWAVTR08L3Z4VY", "dateTime": 1520457963033}, {"current_trial": 218, "trialdata": {"rt": -1000, "trial_type": "single-audio", "word": "backbone", "stimulus": "/static/audio/wordpool/BACKBONE.wav", "conditions": [24, 800, "a", 12000], "internal_node_id": "0.0-164.0", "trial": 5, "time_elapsed": 1089268, "serialpos": 9, "key_press": -1, "wordID": 65, "type": "PRES_AUD", "trial_index": 218}, "uniqueid": "MTK3373:34HJIJKLP6318T4TVWAVTR08L3Z4VY", "dateTime": 1520457964710}, {"current_trial": 219, "trialdata": {"rt": -1000, "trial_type": "single-audio", "word": "sister", "stimulus": "/static/audio/wordpool/SISTER.wav", "conditions": [24, 800, "a", 12000], "internal_node_id": "0.0-165.0", "trial": 5, "time_elapsed": 1090959, "serialpos": 10, "key_press": -1, "wordID": 1311, "type": "PRES_AUD", "trial_index": 219}, "uniqueid": "MTK3373:34HJIJKLP6318T4TVWAVTR08L3Z4VY", "dateTime": 1520457966399}, {"current_trial": 220, "trialdata": {"rt": -1000, "trial_type": "single-audio", "word": "uncle", "stimulus": "/static/audio/wordpool/UNCLE.wav", "conditions": [24, 800, "a", 12000], "internal_node_id": "0.0-166.0", "trial": 5, "time_elapsed": 1092897, "serialpos": 11, "key_press": -1, "wordID": 1535, "type": "PRES_AUD", "trial_index": 220}, "uniqueid": "MTK3373:34HJIJKLP6318T4TVWAVTR08L3Z4VY", "dateTime": 1520457968338}, {"current_trial": 221, "trialdata": {"rt": -1000, "trial_type": "single-audio", "word": "pebble", "stimulus": "/static/audio/wordpool/PEBBLE.wav", "conditions": [24, 800, "a", 12000], "internal_node_id": "0.0-167.0", "trial": 5, "time_elapsed": 1094573, "serialpos": 12, "key_press": -1, "wordID": 1034, "type": "PRES_AUD", "trial_index": 221}, "uniqueid": "MTK3373:34HJIJKLP6318T4TVWAVTR08L3Z4VY", "dateTime": 1520457970013}, {"current_trial": 222, "trialdata": {"rt": -1000, "trial_type": "single-audio", "word": "chipmunk", "stimulus": "/static/audio/wordpool/CHIPMUNK.wav", "conditions": [24, 800, "a", 12000], "internal_node_id": "0.0-168.0", "trial": 5, "time_elapsed": 1096554, "serialpos": 13, "key_press": -1, "wordID": 303, "type": "PRES_AUD", "trial_index": 222}, "uniqueid": "MTK3373:34HJIJKLP6318T4TVWAVTR08L3Z4VY", "dateTime": 1520457971995}, {"current_trial": 223, "trialdata": {"rt": -1000, "trial_type": "single-audio", "word": "sheriff", "stimulus": "/static/audio/wordpool/SHERIFF.wav", "conditions": [24, 800, "a", 12000], "internal_node_id": "0.0-169.0", "trial": 5, "time_elapsed": 1098251, "serialpos": 14, "key_press": -1, "wordID": 1283, "type": "PRES_AUD", "trial_index": 223}, "uniqueid": "MTK3373:34HJIJKLP6318T4TVWAVTR08L3Z4VY", "dateTime": 1520457973691}, {"current_trial": 224, "trialdata": {"rt": -1000, "trial_type": "single-audio", "word": "county", "stimulus": "/static/audio/wordpool/COUNTY.wav", "conditions": [24, 800, "a", 12000], "internal_node_id": "0.0-170.0", "trial": 5, "time_elapsed": 1100078, "serialpos": 15, "key_press": -1, "wordID": 388, "type": "PRES_AUD", "trial_index": 224}, "uniqueid": "MTK3373:34HJIJKLP6318T4TVWAVTR08L3Z4VY", "dateTime": 1520457975518}, {"current_trial": 225, "trialdata": {"rt": -1000, "trial_type": "single-audio", "word": "beaker", "stimulus": "/static/audio/wordpool/BEAKER.wav", "conditions": [24, 800, "a", 12000], "internal_node_id": "0.0-171.0", "trial": 5, "time_elapsed": 1101884, "serialpos": 16, "key_press": -1, "wordID": 103, "type": "PRES_AUD", "trial_index": 225}, "uniqueid": "MTK3373:34HJIJKLP6318T4TVWAVTR08L3Z4VY", "dateTime": 1520457977324}, {"current_trial": 226, "trialdata": {"rt": -1000, "trial_type": "single-audio", "word": "banquet", "stimulus": "/static/audio/wordpool/BANQUET.wav", "conditions": [24, 800, "a", 12000], "internal_node_id": "0.0-172.0", "trial": 5, "time_elapsed": 1103545, "serialpos": 17, "key_press": -1, "wordID": 85, "type": "PRES_AUD", "trial_index": 226}, "uniqueid": "MTK3373:34HJIJKLP6318T4TVWAVTR08L3Z4VY", "dateTime": 1520457978985}, {"current_trial": 227, "trialdata": {"rt": -1000, "trial_type": "single-audio", "word": "church", "stimulus": "/static/audio/wordpool/CHURCH.wav", "conditions": [24, 800, "a", 12000], "internal_node_id": "0.0-173.0", "trial": 5, "time_elapsed": 1105258, "serialpos": 18, "key_press": -1, "wordID": 306, "type": "PRES_AUD", "trial_index": 227}, "uniqueid": "MTK3373:34HJIJKLP6318T4TVWAVTR08L3Z4VY", "dateTime": 1520457980698}, {"current_trial": 228, "trialdata": {"rt": -1000, "trial_type": "single-audio", "word": "flute", "stimulus": "/static/audio/wordpool/FLUTE.wav", "conditions": [24, 800, "a", 12000], "internal_node_id": "0.0-174.0", "trial": 5, "time_elapsed": 1107094, "serialpos": 19, "key_press": -1, "wordID": 584, "type": "PRES_AUD", "trial_index": 228}, "uniqueid": "MTK3373:34HJIJKLP6318T4TVWAVTR08L3Z4VY", "dateTime": 1520457982534}, {"current_trial": 229, "trialdata": {"rt": -1000, "trial_type": "single-audio", "word": "beaver", "stimulus": "/static/audio/wordpool/BEAVER.wav", "conditions": [24, 800, "a", 12000], "internal_node_id": "0.0-175.0", "trial": 5, "time_elapsed": 1108834, "serialpos": 20, "key_press": -1, "wordID": 108, "type": "PRES_AUD", "trial_index": 229}, "uniqueid": "MTK3373:34HJIJKLP6318T4TVWAVTR08L3Z4VY", "dateTime": 1520457984275}, {"current_trial": 230, "trialdata": {"rt": -1000, "trial_type": "single-audio", "word": "goblin", "stimulus": "/static/audio/wordpool/GOBLIN.wav", "conditions": [24, 800, "a", 12000], "internal_node_id": "0.0-176.0", "trial": 5, "time_elapsed": 1110695, "serialpos": 21, "key_press": -1, "wordID": 644, "type": "PRES_AUD", "trial_index": 230}, "uniqueid": "MTK3373:34HJIJKLP6318T4TVWAVTR08L3Z4VY", "dateTime": 1520457986136}, {"current_trial": 231, "trialdata": {"rt": -1000, "trial_type": "single-audio", "word": "igloo", "stimulus": "/static/audio/wordpool/IGLOO.wav", "conditions": [24, 800, "a", 12000], "internal_node_id": "0.0-177.0", "trial": 5, "time_elapsed": 1112555, "serialpos": 22, "key_press": -1, "wordID": 733, "type": "PRES_AUD", "trial_index": 231}, "uniqueid": "MTK3373:34HJIJKLP6318T4TVWAVTR08L3Z4VY", "dateTime": 1520457987995}, {"current_trial": 232, "trialdata": {"rt": -1000, "trial_type": "single-audio", "word": "tart", "stimulus": "/static/audio/wordpool/TART.wav", "conditions": [24, 800, "a", 12000], "internal_node_id": "0.0-178.0", "trial": 5, "time_elapsed": 1114446, "serialpos": 23, "key_press": -1, "wordID": 1435, "type": "PRES_AUD", "trial_index": 232}, "uniqueid": "MTK3373:34HJIJKLP6318T4TVWAVTR08L3Z4VY", "dateTime": 1520457989887}, {"current_trial": 233, "trialdata": {"rt": -1, "trial_type": "single-stim", "stimulus": "", "internal_node_id": "0.0-179.0-0.0", "time_elapsed": 1115724, "key_press": -1, "type": "PRE_RECALL_DELAY", "trial_index": 233}, "uniqueid": "MTK3373:34HJIJKLP6318T4TVWAVTR08L3Z4VY", "dateTime": 1520457991164}, {"current_trial": 234, "trialdata": {"rt": -1000, "trial_type": "single-audio", "stimulus": "/static/audio/400Hz.wav", "internal_node_id": "0.0-180.0", "time_elapsed": 1116234, "key_press": -1, "type": "PRE_RECALL_ALERT", "trial_index": 234}, "uniqueid": "MTK3373:34HJIJKLP6318T4TVWAVTR08L3Z4VY", "dateTime": 1520457991675}, {"current_trial": 235, "trialdata": {"rt": [6683, 8714, 12378, 15785, 18794, 23851, 27320, 33769, 37834, 42665, 45912, 50999, 55944, 59718], "recwords": ["tart", "igloo", "beaver", "church", "county", "banquet", "flute", "chipmonk", "pebble", "uncle", "plaza", "playground", "backbone", "blackbird"], "key_times": [2460, 2955, 3915, 4090, 5002, 5209, 5562, 5850, 6683, 7242, 7642, 7930, 8153, 8331, 8714, 11033, 11226, 11450, 11690, 11899, 12090, 12378, 13883, 14122, 14346, 14601, 15322, 15498, 15785, 17531, 17770, 17962, 18234, 18411, 18569, 18794, 20986, 21242, 21594, 22378, 22649, 22890, 23178, 23851, 25914, 26298, 26615, 26826, 27096, 27320, 31529, 31815, 32072, 32359, 32696, 32919, 33145, 33384, 33769, 35816, 36456, 36712, 36871, 37273, 37512, 37834, 41081, 41432, 41672, 41959, 42216, 42665, 44537, 44758, 44934, 45401, 45704, 45912, 47209, 47431, 47626, 47912, 48665, 48919, 49097, 49288, 49592, 49783, 50297, 50776, 50999, 53367, 53591, 53899, 54119, 54503, 54793, 55080, 55304, 55944, 56488, 56937, 57127, 57736, 58008, 58519, 58808, 59032, 59303, 59718], "trial_type": "free-recall", "conditions": [24, 800, "a", 12000], "internal_node_id": "0.0-181.0-0.0", "key_presses": [82, 84, 8, 8, 84, 65, 82, 84, 32, 73, 71, 76, 79, 79, 32, 66, 69, 65, 86, 69, 82, 32, 67, 72, 85, 82, 67, 72, 32, 67, 79, 85, 78, 84, 89, 32, 66, 65, 78, 81, 85, 69, 84, 32, 70, 76, 85, 84, 69, 32, 67, 72, 73, 80, 77, 79, 78, 75, 32, 80, 69, 66, 66, 76, 69, 32, 85, 78, 67, 76, 69, 32, 80, 76, 65, 90, 65, 32, 80, 76, 65, 89, 71, 82, 79, 85, 78, 70, 8, 68, 32, 66, 65, 67, 75, 66, 79, 78, 69, 32, 66, 76, 65, 67, 75, 66, 73, 82, 68, 32], "trial": 5, "time_elapsed": 1176238, "type": "FREE_RECALL", "trial_index": 235}, "uniqueid": "MTK3373:34HJIJKLP6318T4TVWAVTR08L3Z4VY", "dateTime": 1520458051687}, {"current_trial": 236, "trialdata": {"rt": 34, "trial_type": "text", "internal_node_id": "0.0-182.0", "time_elapsed": 1178283, "key_press": 89, "type": "INSTRUCTIONS", "trial_index": 236}, "uniqueid": "MTK3373:34HJIJKLP6318T4TVWAVTR08L3Z4VY", "dateTime": 1520458053723}, {"current_trial": 237, "trialdata": {"rt": [4548], "trial_type": "math-distractor", "key_times": [2677, 2932, 4548, 9510, 9846, 10693, 21061, 22677], "responses": ["20"], "num2": [9, 7], "num3": [2, 6], "conditions": [12, 1600, "a", 24000], "internal_node_id": "0.0-183.0", "key_presses": [98, 96, 13, 97, 105, 32, 32, 32], "trial": 6, "time_elapsed": 1204289, "type": "DISTRACTOR", "trial_index": 237, "num1": [9, 6]}, "uniqueid": "MTK3373:34HJIJKLP6318T4TVWAVTR08L3Z4VY", "dateTime": 1520458079729}, {"current_trial": 238, "trialdata": {"rt": -1, "trial_type": "single-stim", "stimulus": "<p id=\"stim\">10</p>", "internal_node_id": "0.0-184.0-0.0", "time_elapsed": 1207293, "key_press": -1, "trial_index": 238}, "uniqueid": "MTK3373:34HJIJKLP6318T4TVWAVTR08L3Z4VY", "dateTime": 1520458082733}, {"current_trial": 239, "trialdata": {"rt": -1, "trial_type": "single-stim", "stimulus": "<p id=\"stim\">9</p>", "internal_node_id": "0.0-184.0-1.0", "time_elapsed": 1208294, "key_press": -1, "trial_index": 239}, "uniqueid": "MTK3373:34HJIJKLP6318T4TVWAVTR08L3Z4VY", "dateTime": 1520458083735}, {"current_trial": 240, "trialdata": {"rt": -1, "trial_type": "single-stim", "st