{"assignmentId": "3YT88D1N0952AMRDWER5HDXLRAX3K1", "workerId": "MTK3428", "questiondata": {"origin": "United States", "strat-rehearsal": "76", "marital": "Married/Domestic Partnership", "education": "Some college", "ethnicity": "Not Hispanic", "color_depth": 24, "distracted": "No", "wrote-notes": "No", "strat-other": "", "screen_width": 1920, "avail_screen_width": 1920, "avail_screen_height": 1040, "strat-image": "42", "language": "english", "gender": "Female", "age": "40", "gender_other": "", "race": ["White"], "strat-categorize": "60", "pixel_depth": 24, "strat-spatial": "75", "strat-story": "24", "race_other": "", "screen_height": 1080}, "bonus": 0, "hitId": "302OLP89DZEIOPGGNEKFRI2Z74SACT", "counterbalance": 1704, "useragent": "Mozilla/5.0 (Windows NT 10.0; Win64; x64) AppleWebKit/537.36 (KHTML, like Gecko) Chrome/58.0.3029.110 Safari/537.36 Edge/16.16299", "eventdata": [{"eventtype": "initialized", "interval": 0, "value": null, "timestamp": 1520534888627}, {"eventtype": "window_resize", "interval": 0, "value": [1920, 963], "timestamp": 1520534888627}, {"eventtype": "focus", "interval": 302, "value": "on", "timestamp": 1520534888929}, {"eventtype": "focus", "interval": 11215, "value": "off", "timestamp": 1520534900144}, {"eventtype": "window_resize", "interval": 367, "value": [1200, 855], "timestamp": 1520534900511}, {"eventtype": "focus", "interval": 361, "value": "on", "timestamp": 1520534900872}, {"eventtype": "focus", "interval": 1756, "value": "off", "timestamp": 1520534902628}, {"eventtype": "focus", "interval": 2224, "value": "on", "timestamp": 1520534904852}, {"eventtype": "focus", "interval": 922, "value": "off", "timestamp": 1520534905774}, {"eventtype": "window_resize", "interval": 312, "value": [1920, 963], "timestamp": 1520534906086}, {"eventtype": "focus", "interval": 419, "value": "on", "timestamp": 1520534906505}, {"eventtype": "focus", "interval": 1496738, "value": "off", "timestamp": 1520536403243}, {"eventtype": "window_resize", "interval": 323, "value": [1200, 855], "timestamp": 1520536403566}, {"eventtype": "focus", "interval": 411, "value": "on", "timestamp": 1520536403977}, {"eventtype": "focus", "interval": 5434, "value": "off", "timestamp": 1520536409411}, {"eventtype": "window_resize", "interval": 305, "value": [1920, 963], "timestamp": 1520536409716}, {"eventtype": "focus", "interval": 429, "value": "on", "timestamp": 1520536410145}, {"eventtype": "focus", "interval": 778734, "value": "off", "timestamp": 1520537188879}, {"eventtype": "window_resize", "interval": 302, "value": [1200, 855], "timestamp": 1520537189181}, {"eventtype": "focus", "interval": 423, "value": "on", "timestamp": 1520537189604}, {"eventtype": "focus", "interval": 7137, "value": "off", "timestamp": 1520537196741}, {"eventtype": "window_resize", "interval": 298, "value": [1920, 963], "timestamp": 1520537197039}, {"eventtype": "focus", "interval": 433, "value": "on", "timestamp": 1520537197472}, {"eventtype": "focus", "interval": 170385, "value": "off", "timestamp": 1520537367857}, {"eventtype": "focus", "interval": 961, "value": "on", "timestamp": 1520537368818}, {"eventtype": "focus", "interval": 544, "value": "off", "timestamp": 1520537369362}, {"eventtype": "focus", "interval": 17993, "value": "on", "timestamp": 1520537387355}], "data": [{"current_trial": 0, "trialdata": {"rt": 4699, "trial_type": "text", "internal_node_id": "0.0-0.0", "time_elapsed": 4700, "key_press": 13, "type": "INSTRUCTIONS", "trial_index": 0}, "uniqueid": "MTK3428:3YT88D1N0952AMRDWER5HDXLRAX3K1", "dateTime": 1520534907785}, {"current_trial": 1, "trialdata": {"rt": 33398, "trial_type": "text", "internal_node_id": "0.0-1.0", "time_elapsed": 38099, "key_press": 13, "type": "INSTRUCTIONS", "trial_index": 1}, "uniqueid": "MTK3428:3YT88D1N0952AMRDWER5HDXLRAX3K1", "dateTime": 1520534941183}, {"current_trial": 2, "trialdata": {"rt": [38853], "trial_type": "audio-test", "responses": ["ocean"], "internal_node_id": "0.0-2.0", "time_elapsed": 76972, "type": "AUDIO_TEST", "trial_index": 2}, "uniqueid": "MTK3428:3YT88D1N0952AMRDWER5HDXLRAX3K1", "dateTime": 1520534980056}, {"current_trial": 3, "trialdata": {"rt": [11332], "trial_type": "audio-test", "responses": ["crystal"], "internal_node_id": "0.0-3.0", "time_elapsed": 88315, "type": "AUDIO_TEST", "trial_index": 3}, "uniqueid": "MTK3428:3YT88D1N0952AMRDWER5HDXLRAX3K1", "dateTime": 1520534991399}, {"current_trial": 4, "trialdata": {"rt": [8260], "trial_type": "audio-test", "responses": ["spice"], "internal_node_id": "0.0-4.0", "time_elapsed": 96580, "type": "AUDIO_TEST", "trial_index": 4}, "uniqueid": "MTK3428:3YT88D1N0952AMRDWER5HDXLRAX3K1", "dateTime": 1520534999664}, {"current_trial": 5, "trialdata": {"rt": 26871, "trial_type": "survey-text", "responses": "{\"Q0\":\"11pm\",\"Q1\":\"9am\",\"Q2\":\"4\"}", "internal_node_id": "0.0-5.0", "time_elapsed": 124231, "type": "SLEEP_SURVEY", "trial_index": 5}, "uniqueid": "MTK3428:3YT88D1N0952AMRDWER5HDXLRAX3K1", "dateTime": 1520535027315}, {"current_trial": 6, "trialdata": {"rt": 50760, "trial_type": "text", "internal_node_id": "0.0-6.0", "time_elapsed": 175994, "key_press": 13, "type": "INSTRUCTIONS", "trial_index": 6}, "uniqueid": "MTK3428:3YT88D1N0952AMRDWER5HDXLRAX3K1", "dateTime": 1520535079079}, {"current_trial": 7, "trialdata": {"rt": 25478, "trial_type": "text", "internal_node_id": "0.0-7.0", "time_elapsed": 201986, "key_press": 13, "type": "INSTRUCTIONS", "trial_index": 7}, "uniqueid": "MTK3428:3YT88D1N0952AMRDWER5HDXLRAX3K1", "dateTime": 1520535105070}, {"current_trial": 8, "trialdata": {"rt": 16516, "trial_type": "text", "internal_node_id": "0.0-8.0", "time_elapsed": 219018, "key_press": 13, "type": "INSTRUCTIONS", "trial_index": 8}, "uniqueid": "MTK3428:3YT88D1N0952AMRDWER5HDXLRAX3K1", "dateTime": 1520535122102}, {"current_trial": 9, "trialdata": {"rt": [9754, 14905, 17417], "trial_type": "math-distractor", "key_times": [7635, 8506, 9754, 14147, 14458, 14905, 16658, 16930, 17417], "responses": ["10", "13", "13"], "num2": [3, 2, 1, 9], "num3": [5, 4, 6, 6], "conditions": [18, 1200, "a", 18000], "internal_node_id": "0.0-9.0", "key_presses": [49, 48, 13, 49, 51, 13, 49, 51, 13], "trial": 0, "time_elapsed": 238042, "type": "DISTRACTOR", "trial_index": 9, "num1": [2, 7, 6, 4]}, "uniqueid": "MTK3428:3YT88D1N0952AMRDWER5HDXLRAX3K1", "dateTime": 1520535141126}, {"current_trial": 10, "trialdata": {"rt": -1, "trial_type": "single-stim", "stimulus": "<p id=\"stim\">10</p>", "internal_node_id": "0.0-10.0-0.0", "time_elapsed": 241075, "key_press": -1, "trial_index": 10}, "uniqueid": "MTK3428:3YT88D1N0952AMRDWER5HDXLRAX3K1", "dateTime": 1520535144159}, {"current_trial": 11, "trialdata": {"rt": -1, "trial_type": "single-stim", "stimulus": "<p id=\"stim\">9</p>", "internal_node_id": "0.0-10.0-1.0", "time_elapsed": 242090, "key_press": -1, "trial_index": 11}, "uniqueid": "MTK3428:3YT88D1N0952AMRDWER5HDXLRAX3K1", "dateTime": 1520535145174}, {"current_trial": 12, "trialdata": {"rt": -1, "trial_type": "single-stim", "stimulus": "<p id=\"stim\">8</p>", "internal_node_id": "0.0-10.0-2.0", "time_elapsed": 243062, "key_press": -1, "trial_index": 12}, "uniqueid": "MTK3428:3YT88D1N0952AMRDWER5HDXLRAX3K1", "dateTime": 1520535146146}, {"current_trial": 13, "trialdata": {"rt": -1, "trial_type": "single-stim", "stimulus": "<p id=\"stim\">7</p>", "internal_node_id": "0.0-10.0-3.0", "time_elapsed": 244080, "key_press": -1, "trial_index": 13}, "uniqueid": "MTK3428:3YT88D1N0952AMRDWER5HDXLRAX3K1", "dateTime": 1520535147164}, {"current_trial": 14, "trialdata": {"rt": -1, "trial_type": "single-stim", "stimulus": "<p id=\"stim\">6</p>", "internal_node_id": "0.0-10.0-4.0", "time_elapsed": 245064, "key_press": -1, "trial_index": 14}, "uniqueid": "MTK3428:3YT88D1N0952AMRDWER5HDXLRAX3K1", "dateTime": 1520535148148}, {"current_trial": 15, "trialdata": {"rt": -1, "trial_type": "single-stim", "stimulus": "<p id=\"stim\">5</p>", "internal_node_id": "0.0-10.0-5.0", "time_elapsed": 246064, "key_press": -1, "trial_index": 15}, "uniqueid": "MTK3428:3YT88D1N0952AMRDWER5HDXLRAX3K1", "dateTime": 1520535149148}, {"current_trial": 16, "trialdata": {"rt": -1, "trial_type": "single-stim", "stimulus": "<p id=\"stim\">4</p>", "internal_node_id": "0.0-10.0-6.0", "time_elapsed": 247074, "key_press": -1, "trial_index": 16}, "uniqueid": "MTK3428:3YT88D1N0952AMRDWER5HDXLRAX3K1", "dateTime": 1520535150159}, {"current_trial": 17, "trialdata": {"rt": -1, "trial_type": "single-stim", "stimulus": "<p id=\"stim\">3</p>", "internal_node_id": "0.0-10.0-7.0", "time_elapsed": 248060, "key_press": -1, "trial_index": 17}, "uniqueid": "MTK3428:3YT88D1N0952AMRDWER5HDXLRAX3K1", "dateTime": 1520535151144}, {"current_trial": 18, "trialdata": {"rt": -1, "trial_type": "single-stim", "stimulus": "<p id=\"stim\">2</p>", "internal_node_id": "0.0-10.0-8.0", "time_elapsed": 249064, "key_press": -1, "trial_index": 18}, "uniqueid": "MTK3428:3YT88D1N0952AMRDWER5HDXLRAX3K1", "dateTime": 1520535152148}, {"current_trial": 19, "trialdata": {"rt": -1, "trial_type": "single-stim", "stimulus": "<p id=\"stim\">1</p>", "internal_node_id": "0.0-10.0-9.0", "time_elapsed": 250075, "key_press": -1, "trial_index": 19}, "uniqueid": "MTK3428:3YT88D1N0952AMRDWER5HDXLRAX3K1", "dateTime": 1520535153159}, {"current_trial": 20, "trialdata": {"rt": -1, "trial_type": "single-stim", "stimulus": "<p id=\"stim\">+</p>", "internal_node_id": "0.0-11.0-0.0", "time_elapsed": 251580, "key_press": -1, "type": "FIXATION", "trial_index": 20}, "uniqueid": "MTK3428:3YT88D1N0952AMRDWER5HDXLRAX3K1", "dateTime": 1520535154665}, {"current_trial": 21, "trialdata": {"rt": -1000, "trial_type": "single-audio", "word": "raft", "stimulus": "/static/audio/wordpool/RAFT.wav", "conditions": [18, 1200, "a", 18000], "internal_node_id": "0.0-12.0", "trial": 0, "time_elapsed": 253886, "serialpos": 0, "key_press": -1, "wordID": 1158, "type": "PRES_AUD", "trial_index": 21}, "uniqueid": "MTK3428:3YT88D1N0952AMRDWER5HDXLRAX3K1", "dateTime": 1520535156970}, {"current_trial": 22, "trialdata": {"rt": -1000, "trial_type": "single-audio", "word": "paddle", "stimulus": "/static/audio/wordpool/PADDLE.wav", "conditions": [18, 1200, "a", 18000], "internal_node_id": "0.0-13.0", "trial": 0, "time_elapsed": 256234, "serialpos": 1, "key_press": -1, "wordID": 999, "type": "PRES_AUD", "trial_index": 22}, "uniqueid": "MTK3428:3YT88D1N0952AMRDWER5HDXLRAX3K1", "dateTime": 1520535159319}, {"current_trial": 23, "trialdata": {"rt": -1000, "trial_type": "single-audio", "word": "lava", "stimulus": "/static/audio/wordpool/LAVA.wav", "conditions": [18, 1200, "a", 18000], "internal_node_id": "0.0-14.0", "trial": 0, "time_elapsed": 258624, "serialpos": 2, "key_press": -1, "wordID": 803, "type": "PRES_AUD", "trial_index": 23}, "uniqueid": "MTK3428:3YT88D1N0952AMRDWER5HDXLRAX3K1", "dateTime": 1520535161708}, {"current_trial": 24, "trialdata": {"rt": -1000, "trial_type": "single-audio", "word": "ulcer", "stimulus": "/static/audio/wordpool/ULCER.wav", "conditions": [18, 1200, "a", 18000], "internal_node_id": "0.0-15.0", "trial": 0, "time_elapsed": 260679, "serialpos": 3, "key_press": -1, "wordID": 1532, "type": "PRES_AUD", "trial_index": 24}, "uniqueid": "MTK3428:3YT88D1N0952AMRDWER5HDXLRAX3K1", "dateTime": 1520535163763}, {"current_trial": 25, "trialdata": {"rt": -1000, "trial_type": "single-audio", "word": "panther", "stimulus": "/static/audio/wordpool/PANTHER.wav", "conditions": [18, 1200, "a", 18000], "internal_node_id": "0.0-16.0", "trial": 0, "time_elapsed": 262958, "serialpos": 4, "key_press": -1, "wordID": 1008, "type": "PRES_AUD", "trial_index": 25}, "uniqueid": "MTK3428:3YT88D1N0952AMRDWER5HDXLRAX3K1", "dateTime": 1520535166042}, {"current_trial": 26, "trialdata": {"rt": -1000, "trial_type": "single-audio", "word": "pilot", "stimulus": "/static/audio/wordpool/PILOT.wav", "conditions": [18, 1200, "a", 18000], "internal_node_id": "0.0-17.0", "trial": 0, "time_elapsed": 265308, "serialpos": 5, "key_press": -1, "wordID": 1069, "type": "PRES_AUD", "trial_index": 26}, "uniqueid": "MTK3428:3YT88D1N0952AMRDWER5HDXLRAX3K1", "dateTime": 1520535168392}, {"current_trial": 27, "trialdata": {"rt": -1000, "trial_type": "single-audio", "word": "guitar", "stimulus": "/static/audio/wordpool/GUITAR.wav", "conditions": [18, 1200, "a", 18000], "internal_node_id": "0.0-18.0", "trial": 0, "time_elapsed": 267674, "serialpos": 6, "key_press": -1, "wordID": 669, "type": "PRES_AUD", "trial_index": 27}, "uniqueid": "MTK3428:3YT88D1N0952AMRDWER5HDXLRAX3K1", "dateTime": 1520535170759}, {"current_trial": 28, "trialdata": {"rt": -1000, "trial_type": "single-audio", "word": "journal", "stimulus": "/static/audio/wordpool/JOURNAL.wav", "conditions": [18, 1200, "a", 18000], "internal_node_id": "0.0-19.0", "trial": 0, "time_elapsed": 269886, "serialpos": 7, "key_press": -1, "wordID": 759, "type": "PRES_AUD", "trial_index": 28}, "uniqueid": "MTK3428:3YT88D1N0952AMRDWER5HDXLRAX3K1", "dateTime": 1520535172970}, {"current_trial": 29, "trialdata": {"rt": -1000, "trial_type": "single-audio", "word": "swimmer", "stimulus": "/static/audio/wordpool/SWIMMER.wav", "conditions": [18, 1200, "a", 18000], "internal_node_id": "0.0-20.0", "trial": 0, "time_elapsed": 272134, "serialpos": 8, "key_press": -1, "wordID": 1419, "type": "PRES_AUD", "trial_index": 29}, "uniqueid": "MTK3428:3YT88D1N0952AMRDWER5HDXLRAX3K1", "dateTime": 1520535175218}, {"current_trial": 30, "trialdata": {"rt": -1000, "trial_type": "single-audio", "word": "marker", "stimulus": "/static/audio/wordpool/MARKER.wav", "conditions": [18, 1200, "a", 18000], "internal_node_id": "0.0-21.0", "trial": 0, "time_elapsed": 274336, "serialpos": 9, "key_press": -1, "wordID": 869, "type": "PRES_AUD", "trial_index": 30}, "uniqueid": "MTK3428:3YT88D1N0952AMRDWER5HDXLRAX3K1", "dateTime": 1520535177421}, {"current_trial": 31, "trialdata": {"rt": -1000, "trial_type": "single-audio", "word": "carrot", "stimulus": "/static/audio/wordpool/CARROT.wav", "conditions": [18, 1200, "a", 18000], "internal_node_id": "0.0-22.0", "trial": 0, "time_elapsed": 276649, "serialpos": 10, "key_press": -1, "wordID": 248, "type": "PRES_AUD", "trial_index": 31}, "uniqueid": "MTK3428:3YT88D1N0952AMRDWER5HDXLRAX3K1", "dateTime": 1520535179733}, {"current_trial": 32, "trialdata": {"rt": -1000, "trial_type": "single-audio", "word": "banquet", "stimulus": "/static/audio/wordpool/BANQUET.wav", "conditions": [18, 1200, "a", 18000], "internal_node_id": "0.0-23.0", "trial": 0, "time_elapsed": 278943, "serialpos": 11, "key_press": -1, "wordID": 85, "type": "PRES_AUD", "trial_index": 32}, "uniqueid": "MTK3428:3YT88D1N0952AMRDWER5HDXLRAX3K1", "dateTime": 1520535182027}, {"current_trial": 33, "trialdata": {"rt": -1000, "trial_type": "single-audio", "word": "parrot", "stimulus": "/static/audio/wordpool/PARROT.wav", "conditions": [18, 1200, "a", 18000], "internal_node_id": "0.0-24.0", "trial": 0, "time_elapsed": 281140, "serialpos": 12, "key_press": -1, "wordID": 1014, "type": "PRES_AUD", "trial_index": 33}, "uniqueid": "MTK3428:3YT88D1N0952AMRDWER5HDXLRAX3K1", "dateTime": 1520535184224}, {"current_trial": 34, "trialdata": {"rt": -1000, "trial_type": "single-audio", "word": "kidney", "stimulus": "/static/audio/wordpool/KIDNEY.wav", "conditions": [18, 1200, "a", 18000], "internal_node_id": "0.0-25.0", "trial": 0, "time_elapsed": 283423, "serialpos": 13, "key_press": -1, "wordID": 775, "type": "PRES_AUD", "trial_index": 34}, "uniqueid": "MTK3428:3YT88D1N0952AMRDWER5HDXLRAX3K1", "dateTime": 1520535186507}, {"current_trial": 35, "trialdata": {"rt": -1000, "trial_type": "single-audio", "word": "hedge", "stimulus": "/static/audio/wordpool/HEDGE.wav", "conditions": [18, 1200, "a", 18000], "internal_node_id": "0.0-26.0", "trial": 0, "time_elapsed": 285614, "serialpos": 14, "key_press": -1, "wordID": 698, "type": "PRES_AUD", "trial_index": 35}, "uniqueid": "MTK3428:3YT88D1N0952AMRDWER5HDXLRAX3K1", "dateTime": 1520535188698}, {"current_trial": 36, "trialdata": {"rt": -1000, "trial_type": "single-audio", "word": "pork", "stimulus": "/static/audio/wordpool/PORK.wav", "conditions": [18, 1200, "a", 18000], "internal_node_id": "0.0-27.0", "trial": 0, "time_elapsed": 287891, "serialpos": 15, "key_press": -1, "wordID": 1107, "type": "PRES_AUD", "trial_index": 36}, "uniqueid": "MTK3428:3YT88D1N0952AMRDWER5HDXLRAX3K1", "dateTime": 1520535190975}, {"current_trial": 37, "trialdata": {"rt": -1000, "trial_type": "single-audio", "word": "brandy", "stimulus": "/static/audio/wordpool/BRANDY.wav", "conditions": [18, 1200, "a", 18000], "internal_node_id": "0.0-28.0", "trial": 0, "time_elapsed": 290286, "serialpos": 16, "key_press": -1, "wordID": 168, "type": "PRES_AUD", "trial_index": 37}, "uniqueid": "MTK3428:3YT88D1N0952AMRDWER5HDXLRAX3K1", "dateTime": 1520535193370}, {"current_trial": 38, "trialdata": {"rt": -1000, "trial_type": "single-audio", "word": "switch", "stimulus": "/static/audio/wordpool/SWITCH.wav", "conditions": [18, 1200, "a", 18000], "internal_node_id": "0.0-29.0", "trial": 0, "time_elapsed": 292547, "serialpos": 17, "key_press": -1, "wordID": 1421, "type": "PRES_AUD", "trial_index": 38}, "uniqueid": "MTK3428:3YT88D1N0952AMRDWER5HDXLRAX3K1", "dateTime": 1520535195631}, {"current_trial": 39, "trialdata": {"rt": -1, "trial_type": "single-stim", "stimulus": "", "internal_node_id": "0.0-30.0-0.0", "time_elapsed": 293935, "key_press": -1, "type": "PRE_RECALL_DELAY", "trial_index": 39}, "uniqueid": "MTK3428:3YT88D1N0952AMRDWER5HDXLRAX3K1", "dateTime": 1520535197019}, {"current_trial": 40, "trialdata": {"rt": -1000, "trial_type": "single-audio", "stimulus": "/static/audio/400Hz.wav", "internal_node_id": "0.0-31.0", "time_elapsed": 294465, "key_press": -1, "type": "PRE_RECALL_ALERT", "trial_index": 40}, "uniqueid": "MTK3428:3YT88D1N0952AMRDWER5HDXLRAX3K1", "dateTime": 1520535197549}, {"current_trial": 41, "trialdata": {"rt": [8461, 12685, 19444, 23125, 25532, 30692, 35861, 42372, 45908, 48924, 51228, 55948, 59740], "recwords": ["brandy", "journal", "swimmer'paddle", "lava", "also", "marker", "pork", "switch", "lava", "panther", "carrot", "swimmer", "kidney"], "key_times": [6118, 6333, 6662, 7053, 7237, 7485, 8461, 10646, 10997, 11229, 11429, 12030, 12205, 12381, 12685, 14453, 14774, 15565, 15869, 15997, 16133, 16261, 16437, 17990, 18220, 18597, 18765, 19013, 19221, 19444, 21957, 22165, 22533, 22685, 23125, 24670, 24925, 25077, 25253, 25532, 29318, 29573, 29885, 30141, 30373, 30515, 30692, 33558, 33805, 34205, 34485, 35189, 35453, 35861, 39286, 39701, 40869, 41117, 41630, 41797, 42372, 44326, 44693, 44989, 45141, 45908, 47205, 47533, 47789, 48077, 48285, 48517, 48589, 48924, 49885, 50124, 50421, 50597, 50781, 50965, 51228, 54158, 54501, 54884, 55189, 55333, 55525, 55685, 55948, 57966, 58189, 58565, 58885, 59149, 59357, 59740], "trial_type": "free-recall", "conditions": [18, 1200, "a", 18000], "internal_node_id": "0.0-32.0-0.0", "key_presses": [66, 82, 65, 78, 68, 89, 13, 74, 79, 85, 82, 78, 65, 76, 13, 83, 87, 73, 77, 77, 69, 82, 222, 80, 65, 68, 68, 76, 69, 13, 76, 65, 86, 65, 13, 65, 76, 83, 79, 13, 77, 65, 82, 75, 69, 82, 13, 80, 79, 82, 76, 8, 75, 13, 83, 87, 73, 84, 67, 72, 13, 76, 65, 86, 65, 13, 80, 65, 78, 84, 72, 69, 82, 13, 67, 65, 82, 82, 79, 84, 13, 83, 87, 73, 77, 77, 69, 82, 13, 75, 73, 68, 78, 69, 89, 13], "trial": 0, "time_elapsed": 354481, "type": "FREE_RECALL", "trial_index": 41}, "uniqueid": "MTK3428:3YT88D1N0952AMRDWER5HDXLRAX3K1", "dateTime": 1520535257576}, {"current_trial": 42, "trialdata": {"rt": 17338, "trial_type": "text", "internal_node_id": "0.0-33.0", "time_elapsed": 373857, "key_press": 13, "type": "INSTRUCTIONS", "trial_index": 42}, "uniqueid": "MTK3428:3YT88D1N0952AMRDWER5HDXLRAX3K1", "dateTime": 1520535276941}, {"current_trial": 43, "trialdata": {"rt": [2981, 6685, 10741, 15861], "trial_type": "math-distractor", "key_times": [2407, 2574, 2981, 6086, 6486, 6685, 10343, 10494, 10741, 15158, 15494, 15861], "responses": ["10", "14", "22", "19"], "num2": [2, 4, 7, 6, 6], "num3": [8, 8, 7, 9, 3], "conditions": [18, 1200, "a", 18000], "internal_node_id": "0.0-34.0", "key_presses": [49, 48, 13, 49, 52, 13, 50, 50, 13, 49, 57, 13], "trial": 1, "time_elapsed": 393874, "type": "DISTRACTOR", "trial_index": 43, "num1": [1, 2, 8, 4, 8]}, "uniqueid": "MTK3428:3YT88D1N0952AMRDWER5HDXLRAX3K1", "dateTime": 1520535296958}, {"current_trial": 44, "trialdata": {"rt": -1, "trial_type": "single-stim", "stimulus": "<p id=\"stim\">10</p>", "internal_node_id": "0.0-35.0-0.0", "time_elapsed": 396904, "key_press": -1, "trial_index": 44}, "uniqueid": "MTK3428:3YT88D1N0952AMRDWER5HDXLRAX3K1", "dateTime": 1520535299988}, {"current_trial": 45, "trialdata": {"rt": -1, "trial_type": "single-stim", "stimulus": "<p id=\"stim\">9</p>", "internal_node_id": "0.0-35.0-1.0", "time_elapsed": 397900, "key_press": -1, "trial_index": 45}, "uniqueid": "MTK3428:3YT88D1N0952AMRDWER5HDXLRAX3K1", "dateTime": 1520535300985}, {"current_trial": 46, "trialdata": {"rt": -1, "trial_type": "single-stim", "stimulus": "<p id=\"stim\">8</p>", "internal_node_id": "0.0-35.0-2.0", "time_elapsed": 398910, "key_press": -1, "trial_index": 46}, "uniqueid": "MTK3428:3YT88D1N0952AMRDWER5HDXLRAX3K1", "dateTime": 1520535301994}, {"current_trial": 47, "trialdata": {"rt": -1, "trial_type": "single-stim", "stimulus": "<p id=\"stim\">7</p>", "internal_node_id": "0.0-35.0-3.0", "time_elapsed": 399898, "key_press": -1, "trial_index": 47}, "uniqueid": "MTK3428:3YT88D1N0952AMRDWER5HDXLRAX3K1", "dateTime": 1520535302982}, {"current_trial": 48, "trialdata": {"rt": -1, "trial_type": "single-stim", "stimulus": "<p id=\"stim\">6</p>", "internal_node_id": "0.0-35.0-4.0", "time_elapsed": 400923, "key_press": -1, "trial_index": 48}, "uniqueid": "MTK3428:3YT88D1N0952AMRDWER5HDXLRAX3K1", "dateTime": 1520535304007}, {"current_trial": 49, "trialdata": {"rt": -1, "trial_type": "single-stim", "stimulus": "<p id=\"stim\">5</p>", "internal_node_id": "0.0-35.0-5.0", "time_elapsed": 401907, "key_press": -1, "trial_index": 49}, "uniqueid": "MTK3428:3YT88D1N0952AMRDWER5HDXLRAX3K1", "dateTime": 1520535304991}, {"current_trial": 50, "trialdata": {"rt": -1, "trial_type": "single-stim", "stimulus": "<p id=\"stim\">4</p>", "internal_node_id": "0.0-35.0-6.0", "time_elapsed": 402907, "key_press": -1, "trial_index": 50}, "uniqueid": "MTK3428:3YT88D1N0952AMRDWER5HDXLRAX3K1", "dateTime": 1520535305991}, {"current_trial": 51, "trialdata": {"rt": -1, "trial_type": "single-stim", "stimulus": "<p id=\"stim\">3</p>", "internal_node_id": "0.0-35.0-7.0", "time_elapsed": 403913, "key_press": -1, "trial_index": 51}, "uniqueid": "MTK3428:3YT88D1N0952AMRDWER5HDXLRAX3K1", "dateTime": 1520535306997}, {"current_trial": 52, "trialdata": {"rt": -1, "trial_type": "single-stim", "stimulus": "<p id=\"stim\">2</p>", "internal_node_id": "0.0-35.0-8.0", "time_elapsed": 404903, "key_press": -1, "trial_index": 52}, "uniqueid": "MTK3428:3YT88D1N0952AMRDWER5HDXLRAX3K1", "dateTime": 1520535307988}, {"current_trial": 53, "trialdata": {"rt": -1, "trial_type": "single-stim", "stimulus": "<p id=\"stim\">1</p>", "internal_node_id": "0.0-35.0-9.0", "time_elapsed": 405916, "key_press": -1, "trial_index": 53}, "uniqueid": "MTK3428:3YT88D1N0952AMRDWER5HDXLRAX3K1", "dateTime": 1520535309001}, {"current_trial": 54, "trialdata": {"rt": -1, "trial_type": "single-stim", "stimulus": "<p id=\"stim\">+</p>", "internal_node_id": "0.0-36.0-0.0", "time_elapsed": 407423, "key_press": -1, "type": "FIXATION", "trial_index": 54}, "uniqueid": "MTK3428:3YT88D1N0952AMRDWER5HDXLRAX3K1", "dateTime": 1520535310507}, {"current_trial": 55, "trialdata": {"rt": -1000, "trial_type": "single-audio", "word": "orange", "stimulus": "/static/audio/wordpool/ORANGE.wav", "conditions": [18, 1200, "a", 18000], "internal_node_id": "0.0-37.0", "trial": 1, "time_elapsed": 409668, "serialpos": 0, "key_press": -1, "wordID": 979, "type": "PRES_AUD", "trial_index": 55}, "uniqueid": "MTK3428:3YT88D1N0952AMRDWER5HDXLRAX3K1", "dateTime": 1520535312753}, {"current_trial": 56, "trialdata": {"rt": -1000, "trial_type": "single-audio", "word": "softball", "stimulus": "/static/audio/wordpool/SOFTBALL.wav", "conditions": [18, 1200, "a", 18000], "internal_node_id": "0.0-38.0", "trial": 1, "time_elapsed": 411956, "serialpos": 1, "key_press": -1, "wordID": 1342, "type": "PRES_AUD", "trial_index": 56}, "uniqueid": "MTK3428:3YT88D1N0952AMRDWER5HDXLRAX3K1", "dateTime": 1520535315041}, {"current_trial": 57, "trialdata": {"rt": -1000, "trial_type": "single-audio", "word": "gymnast", "stimulus": "/static/audio/wordpool/GYMNAST.wav", "conditions": [18, 1200, "a", 18000], "internal_node_id": "0.0-39.0", "trial": 1, "time_elapsed": 414353, "serialpos": 2, "key_press": -1, "wordID": 674, "type": "PRES_AUD", "trial_index": 57}, "uniqueid": "MTK3428:3YT88D1N0952AMRDWER5HDXLRAX3K1", "dateTime": 1520535317438}, {"current_trial": 58, "trialdata": {"rt": -1000, "trial_type": "single-audio", "word": "statue", "stimulus": "/static/audio/wordpool/STATUE.wav", "conditions": [18, 1200, "a", 18000], "internal_node_id": "0.0-40.0", "trial": 1, "time_elapsed": 416469, "serialpos": 3, "key_press": -1, "wordID": 1373, "type": "PRES_AUD", "trial_index": 58}, "uniqueid": "MTK3428:3YT88D1N0952AMRDWER5HDXLRAX3K1", "dateTime": 1520535319553}, {"current_trial": 59, "trialdata": {"rt": -1000, "trial_type": "single-audio", "word": "queen", "stimulus": "/static/audio/wordpool/QUEEN.wav", "conditions": [18, 1200, "a", 18000], "internal_node_id": "0.0-41.0", "trial": 1, "time_elapsed": 418840, "serialpos": 4, "key_press": -1, "wordID": 1148, "type": "PRES_AUD", "trial_index": 59}, "uniqueid": "MTK3428:3YT88D1N0952AMRDWER5HDXLRAX3K1", "dateTime": 1520535321925}, {"current_trial": 60, "trialdata": {"rt": -1000, "trial_type": "single-audio", "word": "police", "stimulus": "/static/audio/wordpool/POLICE.wav", "conditions": [18, 1200, "a", 18000], "internal_node_id": "0.0-42.0", "trial": 1, "time_elapsed": 421113, "serialpos": 5, "key_press": -1, "wordID": 1097, "type": "PRES_AUD", "trial_index": 60}, "uniqueid": "MTK3428:3YT88D1N0952AMRDWER5HDXLRAX3K1", "dateTime": 1520535324197}, {"current_trial": 61, "trialdata": {"rt": -1000, "trial_type": "single-audio", "word": "ankle", "stimulus": "/static/audio/wordpool/ANKLE.wav", "conditions": [18, 1200, "a", 18000], "internal_node_id": "0.0-43.0", "trial": 1, "time_elapsed": 423483, "serialpos": 6, "key_press": -1, "wordID": 23, "type": "PRES_AUD", "trial_index": 61}, "uniqueid": "MTK3428:3YT88D1N0952AMRDWER5HDXLRAX3K1", "dateTime": 1520535326567}, {"current_trial": 62, "trialdata": {"rt": -1000, "trial_type": "single-audio", "word": "poet", "stimulus": "/static/audio/wordpool/POET.wav", "conditions": [18, 1200, "a", 18000], "internal_node_id": "0.0-44.0", "trial": 1, "time_elapsed": 425781, "serialpos": 7, "key_press": -1, "wordID": 1094, "type": "PRES_AUD", "trial_index": 62}, "uniqueid": "MTK3428:3YT88D1N0952AMRDWER5HDXLRAX3K1", "dateTime": 1520535328865}, {"current_trial": 63, "trialdata": {"rt": -1000, "trial_type": "single-audio", "word": "crater", "stimulus": "/static/audio/wordpool/CRATER.wav", "conditions": [18, 1200, "a", 18000], "internal_node_id": "0.0-45.0", "trial": 1, "time_elapsed": 428084, "serialpos": 8, "key_press": -1, "wordID": 399, "type": "PRES_AUD", "trial_index": 63}, "uniqueid": "MTK3428:3YT88D1N0952AMRDWER5HDXLRAX3K1", "dateTime": 1520535331168}, {"current_trial": 64, "trialdata": {"rt": -1000, "trial_type": "single-audio", "word": "powder", "stimulus": "/static/audio/wordpool/POWDER.wav", "conditions": [18, 1200, "a", 18000], "internal_node_id": "0.0-46.0", "trial": 1, "time_elapsed": 430198, "serialpos": 9, "key_press": -1, "wordID": 1116, "type": "PRES_AUD", "trial_index": 64}, "uniqueid": "MTK3428:3YT88D1N0952AMRDWER5HDXLRAX3K1", "dateTime": 1520535333282}, {"current_trial": 65, "trialdata": {"rt": -1000, "trial_type": "single-audio", "word": "sculpture", "stimulus": "/static/audio/wordpool/SCULPTURE.wav", "conditions": [18, 1200, "a", 18000], "internal_node_id": "0.0-47.0", "trial": 1, "time_elapsed": 432279, "serialpos": 10, "key_press": -1, "wordID": 1257, "type": "PRES_AUD", "trial_index": 65}, "uniqueid": "MTK3428:3YT88D1N0952AMRDWER5HDXLRAX3K1", "dateTime": 1520535335364}, {"current_trial": 66, "trialdata": {"rt": -1000, "trial_type": "single-audio", "word": "coffee", "stimulus": "/static/audio/wordpool/COFFEE.wav", "conditions": [18, 1200, "a", 18000], "internal_node_id": "0.0-48.0", "trial": 1, "time_elapsed": 434573, "serialpos": 11, "key_press": -1, "wordID": 340, "type": "PRES_AUD", "trial_index": 66}, "uniqueid": "MTK3428:3YT88D1N0952AMRDWER5HDXLRAX3K1", "dateTime": 1520535337657}, {"current_trial": 67, "trialdata": {"rt": -1000, "trial_type": "single-audio", "word": "stove", "stimulus": "/static/audio/wordpool/STOVE.wav", "conditions": [18, 1200, "a", 18000], "internal_node_id": "0.0-49.0", "trial": 1, "time_elapsed": 436668, "serialpos": 12, "key_press": -1, "wordID": 1387, "type": "PRES_AUD", "trial_index": 67}, "uniqueid": "MTK3428:3YT88D1N0952AMRDWER5HDXLRAX3K1", "dateTime": 1520535339752}, {"current_trial": 68, "trialdata": {"rt": -1000, "trial_type": "single-audio", "word": "crutch", "stimulus": "/static/audio/wordpool/CRUTCH.wav", "conditions": [18, 1200, "a", 18000], "internal_node_id": "0.0-50.0", "trial": 1, "time_elapsed": 438849, "serialpos": 13, "key_press": -1, "wordID": 416, "type": "PRES_AUD", "trial_index": 68}, "uniqueid": "MTK3428:3YT88D1N0952AMRDWER5HDXLRAX3K1", "dateTime": 1520535341934}, {"current_trial": 69, "trialdata": {"rt": -1000, "trial_type": "single-audio", "word": "lettuce", "stimulus": "/static/audio/wordpool/LETTUCE.wav", "conditions": [18, 1200, "a", 18000], "internal_node_id": "0.0-51.0", "trial": 1, "time_elapsed": 441038, "serialpos": 14, "key_press": -1, "wordID": 813, "type": "PRES_AUD", "trial_index": 69}, "uniqueid": "MTK3428:3YT88D1N0952AMRDWER5HDXLRAX3K1", "dateTime": 1520535344122}, {"current_trial": 70, "trialdata": {"rt": -1000, "trial_type": "single-audio", "word": "suspect", "stimulus": "/static/audio/wordpool/SUSPECT.wav", "conditions": [18, 1200, "a", 18000], "internal_node_id": "0.0-52.0", "trial": 1, "time_elapsed": 443223, "serialpos": 15, "key_press": -1, "wordID": 1414, "type": "PRES_AUD", "trial_index": 70}, "uniqueid": "MTK3428:3YT88D1N0952AMRDWER5HDXLRAX3K1", "dateTime": 1520535346307}, {"current_trial": 71, "trialdata": {"rt": -1000, "trial_type": "single-audio", "word": "bug", "stimulus": "/static/audio/wordpool/BUG.wav", "conditions": [18, 1200, "a", 18000], "internal_node_id": "0.0-53.0", "trial": 1, "time_elapsed": 445307, "serialpos": 16, "key_press": -1, "wordID": 186, "type": "PRES_AUD", "trial_index": 71}, "uniqueid": "MTK3428:3YT88D1N0952AMRDWER5HDXLRAX3K1", "dateTime": 1520535348391}, {"current_trial": 72, "trialdata": {"rt": -1000, "trial_type": "single-audio", "word": "grape", "stimulus": "/static/audio/wordpool/GRAPE.wav", "conditions": [18, 1200, "a", 18000], "internal_node_id": "0.0-54.0", "trial": 1, "time_elapsed": 447324, "serialpos": 17, "key_press": -1, "wordID": 653, "type": "PRES_AUD", "trial_index": 72}, "uniqueid": "MTK3428:3YT88D1N0952AMRDWER5HDXLRAX3K1", "dateTime": 1520535350408}, {"current_trial": 73, "trialdata": {"rt": -1, "trial_type": "single-stim", "stimulus": "", "internal_node_id": "0.0-55.0-0.0", "time_elapsed": 448598, "key_press": -1, "type": "PRE_RECALL_DELAY", "trial_index": 73}, "uniqueid": "MTK3428:3YT88D1N0952AMRDWER5HDXLRAX3K1", "dateTime": 1520535351682}, {"current_trial": 74, "trialdata": {"rt": -1000, "trial_type": "single-audio", "stimulus": "/static/audio/400Hz.wav", "internal_node_id": "0.0-56.0", "time_elapsed": 449112, "key_press": -1, "type": "PRE_RECALL_ALERT", "trial_index": 74}, "uniqueid": "MTK3428:3YT88D1N0952AMRDWER5HDXLRAX3K1", "dateTime": 1520535352196}, {"current_trial": 75, "trialdata": {"rt": [4948, 8028, 12285, 16477, 21780, 24484, 28332, 31460, 34020, 37980, 40284, 44252, 49980, 54020, 56834], "recwords": ["grape", "bug", "orange", "softball", "queen", "statue", "police", "poet", "ankle", "coffee", "stove", "lettuce", "powder", "ankle", "police"], "key_times": [3093, 3253, 3589, 3830, 4149, 4948, 5445, 6158, 7029, 7469, 7653, 8028, 10262, 10637, 10949, 11157, 11549, 11853, 12285, 13861, 14125, 14470, 14733, 15389, 15605, 16061, 16180, 16477, 20486, 20821, 21085, 21213, 21429, 21780, 22437, 22733, 23093, 23517, 23773, 24077, 24484, 26806, 27117, 27309, 27549, 27813, 28093, 28332, 30382, 30653, 30940, 31197, 31460, 32261, 32725, 33221, 33501, 33661, 34020, 36461, 36749, 37020, 37181, 37549, 37709, 37980, 38558, 38901, 39117, 39605, 40084, 40284, 41838, 42093, 42389, 42533, 42820, 43156, 43509, 44252, 47102, 47469, 48277, 48708, 49214, 49533, 49980, 51845, 52508, 53405, 53653, 53797, 54020, 55261, 55573, 55749, 55989, 56341, 56693, 56834], "trial_type": "free-recall", "conditions": [18, 1200, "a", 18000], "internal_node_id": "0.0-57.0-0.0", "key_presses": [71, 82, 65, 80, 69, 13, 78, 8, 66, 85, 71, 13, 79, 82, 65, 78, 71, 69, 13, 83, 79, 70, 84, 66, 65, 76, 76, 13, 81, 85, 69, 69, 78, 13, 83, 84, 65, 84, 85, 69, 13, 80, 79, 76, 73, 67, 69, 13, 80, 79, 69, 84, 13, 65, 78, 75, 76, 69, 13, 67, 79, 70, 70, 69, 69, 13, 83, 84, 79, 86, 69, 13, 76, 69, 84, 84, 85, 67, 69, 13, 80, 79, 87, 68, 69, 82, 13, 65, 78, 75, 76, 69, 13, 80, 79, 76, 73, 67, 69, 13], "trial": 1, "time_elapsed": 509123, "type": "FREE_RECALL", "trial_index": 75}, "uniqueid": "MTK3428:3YT88D1N0952AMRDWER5HDXLRAX3K1", "dateTime": 1520535412210}, {"current_trial": 76, "trialdata": {"rt": 12276, "trial_type": "text", "internal_node_id": "0.0-58.0", "time_elapsed": 523416, "key_press": 13, "type": "INSTRUCTIONS", "trial_index": 76}, "uniqueid": "MTK3428:3YT88D1N0952AMRDWER5HDXLRAX3K1", "dateTime": 1520535426500}, {"current_trial": 77, "trialdata": {"rt": [3950, 6942, 11478], "trial_type": "math-distractor", "key_times": [3143, 3286, 3950, 6783, 6942, 10568, 11231, 11478], "responses": ["11", "8", "15"], "num2": [3, 2, 4, 4], "num3": [1, 3, 4, 1], "conditions": [12, 800, "a", 12000], "internal_node_id": "0.0-59.0", "key_presses": [49, 49, 13, 56, 13, 49, 53, 13], "trial": 2, "time_elapsed": 536440, "type": "DISTRACTOR", "trial_index": 77, "num1": [7, 3, 7, 3]}, "uniqueid": "MTK3428:3YT88D1N0952AMRDWER5HDXLRAX3K1", "dateTime": 1520535439524}, {"current_trial": 78, "trialdata": {"rt": -1, "trial_type": "single-stim", "stimulus": "<p id=\"stim\">10</p>", "internal_node_id": "0.0-60.0-0.0", "time_elapsed": 539476, "key_press": -1, "trial_index": 78}, "uniqueid": "MTK3428:3YT88D1N0952AMRDWER5HDXLRAX3K1", "dateTime": 1520535442561}, {"current_trial": 79, "trialdata": {"rt": -1, "trial_type": "single-stim", "stimulus": "<p id=\"stim\">9</p>", "internal_node_id": "0.0-60.0-1.0", "time_elapsed": 540482, "key_press": -1, "trial_index": 79}, "uniqueid": "MTK3428:3YT88D1N0952AMRDWER5HDXLRAX3K1", "dateTime": 1520535443567}, {"current_trial": 80, "trialdata": {"rt": -1, "trial_type": "single-stim", "stimulus": "<p id=\"stim\">8</p>", "internal_node_id": "0.0-60.0-2.0", "time_elapsed": 541481, "key_press": -1, "trial_index": 80}, "uniqueid": "MTK3428:3YT88D1N0952AMRDWER5HDXLRAX3K1", "dateTime": 1520535444566}, {"current_trial": 81, "trialdata": {"rt": -1, "trial_type": "single-stim", "stimulus": "<p id=\"stim\">7</p>", "internal_node_id": "0.0-60.0-3.0", "time_elapsed": 542475, "key_press": -1, "trial_index": 81}, "uniqueid": "MTK3428:3YT88D1N0952AMRDWER5HDXLRAX3K1", "dateTime": 1520535445559}, {"current_trial": 82, "trialdata": {"rt": -1, "trial_type": "single-stim", "stimulus": "<p id=\"stim\">6</p>", "internal_node_id": "0.0-60.0-4.0", "time_elapsed": 543474, "key_press": -1, "trial_index": 82}, "uniqueid": "MTK3428:3YT88D1N0952AMRDWER5HDXLRAX3K1", "dateTime": 1520535446558}, {"current_trial": 83, "trialdata": {"rt": -1, "trial_type": "single-stim", "stimulus": "<p id=\"stim\">5</p>", "internal_node_id": "0.0-60.0-5.0", "time_elapsed": 544472, "key_press": -1, "trial_index": 83}, "uniqueid": "MTK3428:3YT88D1N0952AMRDWER5HDXLRAX3K1", "dateTime": 1520535447556}, {"current_trial": 84, "trialdata": {"rt": -1, "trial_type": "single-stim", "stimulus": "<p id=\"stim\">4</p>", "internal_node_id": "0.0-60.0-6.0", "time_elapsed": 545472, "key_press": -1, "trial_index": 84}, "uniqueid": "MTK3428:3YT88D1N0952AMRDWER5HDXLRAX3K1", "dateTime": 1520535448556}, {"current_trial": 85, "trialdata": {"rt": -1, "trial_type": "single-stim", "stimulus": "<p id=\"stim\">3</p>", "internal_node_id": "0.0-60.0-7.0", "time_elapsed": 546487, "key_press": -1, "trial_index": 85}, "uniqueid": "MTK3428:3YT88D1N0952AMRDWER5HDXLRAX3K1", "dateTime": 1520535449572}, {"current_trial": 86, "trialdata": {"rt": -1, "trial_type": "single-stim", "stimulus": "<p id=\"stim\">2</p>", "internal_node_id": "0.0-60.0-8.0", "time_elapsed": 547482, "key_press": -1, "trial_index": 86}, "uniqueid": "MTK3428:3YT88D1N0952AMRDWER5HDXLRAX3K1", "dateTime": 1520535450566}, {"current_trial": 87, "trialdata": {"rt": -1, "trial_type": "single-stim", "stimulus": "<p id=\"stim\">1</p>", "internal_node_id": "0.0-60.0-9.0", "time_elapsed": 548472, "key_press": -1, "trial_index": 87}, "uniqueid": "MTK3428:3YT88D1N0952AMRDWER5HDXLRAX3K1", "dateTime": 1520535451556}, {"current_trial": 88, "trialdata": {"rt": -1, "trial_type": "single-stim", "stimulus": "<p id=\"stim\">+</p>", "internal_node_id": "0.0-61.0-0.0", "time_elapsed": 549983, "key_press": -1, "type": "FIXATION", "trial_index": 88}, "uniqueid": "MTK3428:3YT88D1N0952AMRDWER5HDXLRAX3K1", "dateTime": 1520535453068}, {"current_trial": 89, "trialdata": {"rt": -1000, "trial_type": "single-audio", "word": "pizza", "stimulus": "/static/audio/wordpool/PIZZA.wav", "conditions": [12, 800, "a", 12000], "internal_node_id": "0.0-62.0", "trial": 2, "time_elapsed": 551672, "serialpos": 0, "key_press": -1, "wordID": 1078, "type": "PRES_AUD", "trial_index": 89}, "uniqueid": "MTK3428:3YT88D1N0952AMRDWER5HDXLRAX3K1", "dateTime": 1520535454757}, {"current_trial": 90, "trialdata": {"rt": -1000, "trial_type": "single-audio", "word": "fleet", "stimulus": "/static/audio/wordpool/FLEET.wav", "conditions": [12, 800, "a", 12000], "internal_node_id": "0.0-63.0", "trial": 2, "time_elapsed": 553587, "serialpos": 1, "key_press": -1, "wordID": 577, "type": "PRES_AUD", "trial_index": 90}, "uniqueid": "MTK3428:3YT88D1N0952AMRDWER5HDXLRAX3K1", "dateTime": 1520535456671}, {"current_trial": 91, "trialdata": {"rt": -1000, "trial_type": "single-audio", "word": "crown", "stimulus": "/static/audio/wordpool/CROWN.wav", "conditions": [12, 800, "a", 12000], "internal_node_id": "0.0-64.0", "trial": 2, "time_elapsed": 555197, "serialpos": 2, "key_press": -1, "wordID": 414, "type": "PRES_AUD", "trial_index": 91}, "uniqueid": "MTK3428:3YT88D1N0952AMRDWER5HDXLRAX3K1", "dateTime": 1520535458282}, {"current_trial": 92, "trialdata": {"rt": -1000, "trial_type": "single-audio", "word": "ketchup", "stimulus": "/static/audio/wordpool/KETCHUP.wav", "conditions": [12, 800, "a", 12000], "internal_node_id": "0.0-65.0", "trial": 2, "time_elapsed": 557117, "serialpos": 3, "key_press": -1, "wordID": 770, "type": "PRES_AUD", "trial_index": 92}, "uniqueid": "MTK3428:3YT88D1N0952AMRDWER5HDXLRAX3K1", "dateTime": 1520535460201}, {"current_trial": 93, "trialdata": {"rt": -1000, "trial_type": "single-audio", "word": "sunset", "stimulus": "/static/audio/wordpool/SUNSET.wav", "conditions": [12, 800, "a", 12000], "internal_node_id": "0.0-66.0", "trial": 2, "time_elapsed": 558739, "serialpos": 4, "key_press": -1, "wordID": 1407, "type": "PRES_AUD", "trial_index": 93}, "uniqueid": "MTK3428:3YT88D1N0952AMRDWER5HDXLRAX3K1", "dateTime": 1520535461823}, {"current_trial": 94, "trialdata": {"rt": -1000, "trial_type": "single-audio", "word": "lily", "stimulus": "/static/audio/wordpool/LILY.wav", "conditions": [12, 800, "a", 12000], "internal_node_id": "0.0-67.0", "trial": 2, "time_elapsed": 560481, "serialpos": 5, "key_press": -1, "wordID": 820, "type": "PRES_AUD", "trial_index": 94}, "uniqueid": "MTK3428:3YT88D1N0952AMRDWER5HDXLRAX3K1", "dateTime": 1520535463565}, {"current_trial": 95, "trialdata": {"rt": -1000, "trial_type": "single-audio", "word": "costume", "stimulus": "/static/audio/wordpool/COSTUME.wav", "conditions": [12, 800, "a", 12000], "internal_node_id": "0.0-68.0", "trial": 2, "time_elapsed": 562157, "serialpos": 6, "key_press": -1, "wordID": 382, "type": "PRES_AUD", "trial_index": 95}, "uniqueid": "MTK3428:3YT88D1N0952AMRDWER5HDXLRAX3K1", "dateTime": 1520535465241}, {"current_trial": 96, "trialdata": {"rt": -1000, "trial_type": "single-audio", "word": "doughnut", "stimulus": "/static/audio/wordpool/DOUGHNUT.wav", "conditions": [12, 800, "a", 12000], "internal_node_id": "0.0-69.0", "trial": 2, "time_elapsed": 563862, "serialpos": 7, "key_press": -1, "wordID": 489, "type": "PRES_AUD", "trial_index": 96}, "uniqueid": "MTK3428:3YT88D1N0952AMRDWER5HDXLRAX3K1", "dateTime": 1520535466947}, {"current_trial": 97, "trialdata": {"rt": -1000, "trial_type": "single-audio", "word": "quail", "stimulus": "/static/audio/wordpool/QUAIL.wav", "conditions": [12, 800, "a", 12000], "internal_node_id": "0.0-70.0", "trial": 2, "time_elapsed": 565639, "serialpos": 8, "key_press": -1, "wordID": 1146, "type": "PRES_AUD", "trial_index": 97}, "uniqueid": "MTK3428:3YT88D1N0952AMRDWER5HDXLRAX3K1", "dateTime": 1520535468723}, {"current_trial": 98, "trialdata": {"rt": -1000, "trial_type": "single-audio", "word": "turkey", "stimulus": "/static/audio/wordpool/TURKEY.wav", "conditions": [12, 800, "a", 12000], "internal_node_id": "0.0-71.0", "trial": 2, "time_elapsed": 567522, "serialpos": 9, "key_press": -1, "wordID": 1519, "type": "PRES_AUD", "trial_index": 98}, "uniqueid": "MTK3428:3YT88D1N0952AMRDWER5HDXLRAX3K1", "dateTime": 1520535470607}, {"current_trial": 99, "trialdata": {"rt": -1000, "trial_type": "single-audio", "word": "omelet", "stimulus": "/static/audio/wordpool/OMELET.wav", "conditions": [12, 800, "a", 12000], "internal_node_id": "0.0-72.0", "trial": 2, "time_elapsed": 569543, "serialpos": 10, "key_press": -1, "wordID": 975, "type": "PRES_AUD", "trial_index": 99}, "uniqueid": "MTK3428:3YT88D1N0952AMRDWER5HDXLRAX3K1", "dateTime": 1520535472627}, {"current_trial": 100, "trialdata": {"rt": -1000, "trial_type": "single-audio", "word": "balloon", "stimulus": "/static/audio/wordpool/BALLOON.wav", "conditions": [12, 800, "a", 12000], "internal_node_id": "0.0-73.0", "trial": 2, "time_elapsed": 571181, "serialpos": 11, "key_press": -1, "wordID": 74, "type": "PRES_AUD", "trial_index": 100}, "uniqueid": "MTK3428:3YT88D1N0952AMRDWER5HDXLRAX3K1", "dateTime": 1520535474265}, {"current_trial": 101, "trialdata": {"rt": -1, "trial_type": "single-stim", "stimulus": "", "internal_node_id": "0.0-74.0-0.0", "time_elapsed": 572597, "key_press": -1, "type": "PRE_RECALL_DELAY", "trial_index": 101}, "uniqueid": "MTK3428:3YT88D1N0952AMRDWER5HDXLRAX3K1", "dateTime": 1520535475681}, {"current_trial": 102, "trialdata": {"rt": -1000, "trial_type": "single-audio", "stimulus": "/static/audio/400Hz.wav", "internal_node_id": "0.0-75.0", "time_elapsed": 573102, "key_press": -1, "type": "PRE_RECALL_ALERT", "trial_index": 102}, "uniqueid": "MTK3428:3YT88D1N0952AMRDWER5HDXLRAX3K1", "dateTime": 1520535476186}, {"current_trial": 103, "trialdata": {"rt": [8013, 11422, 16230, 20573, 23557, 28421, 31518, 34845, 41245, 49357, 53309], "recwords": ["omlet", "turkey", "balloon", "pizza", "fleet", "lilly", "costume", "donut", "crown", "ketchup", "fleet"], "key_times": [5086, 5414, 5694, 6039, 6590, 8013, 9318, 9654, 9950, 10279, 10574, 10814, 11422, 14159, 14358, 14718, 14846, 15078, 15326, 15646, 16230, 18847, 19182, 19622, 19774, 20054, 20573, 22159, 22430, 22710, 22854, 23159, 23557, 27111, 27366, 27629, 27750, 27974, 28421, 29343, 29629, 29870, 30270, 30726, 31006, 31157, 31518, 33174, 33446, 33823, 34190, 34606, 34845, 39295, 39822, 40125, 40358, 40638, 41245, 46047, 46350, 46741, 47518, 47758, 48671, 48842, 49357, 52175, 52446, 52693, 52845, 53134, 53309, 59847], "trial_type": "free-recall", "conditions": [12, 800, "a", 12000], "internal_node_id": "0.0-76.0-0.0", "key_presses": [79, 77, 76, 69, 84, 13, 84, 85, 82, 75, 69, 89, 13, 66, 65, 76, 76, 79, 79, 78, 13, 80, 73, 90, 90, 65, 13, 70, 76, 69, 69, 84, 13, 76, 73, 76, 76, 89, 13, 67, 79, 83, 84, 85, 77, 69, 13, 68, 79, 78, 85, 84, 13, 67, 82, 79, 87, 78, 13, 75, 69, 84, 67, 72, 85, 80, 13, 70, 76, 69, 69, 84, 13, 83], "trial": 2, "time_elapsed": 633122, "type": "FREE_RECALL", "trial_index": 103}, "uniqueid": "MTK3428:3YT88D1N0952AMRDWER5HDXLRAX3K1", "dateTime": 1520535536210}, {"current_trial": 104, "trialdata": {"rt": 3900, "trial_type": "text", "internal_node_id": "0.0-77.0", "time_elapsed": 639039, "key_press": 13, "type": "INSTRUCTIONS", "trial_index": 104}, "uniqueid": "MTK3428:3YT88D1N0952AMRDWER5HDXLRAX3K1", "dateTime": 1520535542123}, {"current_trial": 105, "trialdata": {"rt": [3525, 9837, 12485, 16405, 20317], "trial_type": "math-distractor", "key_times": [3103, 3342, 3525, 8847, 9670, 9837, 11847, 12278, 12485, 15798, 16173, 16405, 19862, 20126, 20317], "responses": ["12", "19", "17", "25", "13"], "num2": [1, 5, 7, 9, 6, 5], "num3": [7, 6, 7, 8, 7, 6], "conditions": [12, 800, "a", 24000], "internal_node_id": "0.0-78.0", "key_presses": [49, 50, 13, 49, 57, 13, 49, 55, 13, 50, 53, 13, 49, 51, 13], "trial": 3, "time_elapsed": 665068, "type": "DISTRACTOR", "trial_index": 105, "num1": [4, 9, 3, 7, 1, 9]}, "uniqueid": "MTK3428:3YT88D1N0952AMRDWER5HDXLRAX3K1", "dateTime": 1520535568152}, {"current_trial": 106, "trialdata": {"rt": -1, "trial_type": "single-stim", "stimulus": "<p id=\"stim\">10</p>", "internal_node_id": "0.0-79.0-0.0", "time_elapsed": 668101, "key_press": -1, "trial_index": 106}, "uniqueid": "MTK3428:3YT88D1N0952AMRDWER5HDXLRAX3K1", "dateTime": 1520535571185}, {"current_trial": 107, "trialdata": {"rt": -1, "trial_type": "single-stim", "stimulus": "<p id=\"stim\">9</p>", "internal_node_id": "0.0-79.0-1.0", "time_elapsed": 669097, "key_press": -1, "trial_index": 107}, "uniqueid": "MTK3428:3YT88D1N0952AMRDWER5HDXLRAX3K1", "dateTime": 1520535572182}, {"current_trial": 108, "trialdata": {"rt": -1, "trial_type": "single-stim", "stimulus": "<p id=\"stim\">8</p>", "internal_node_id": "0.0-79.0-2.0", "time_elapsed": 670096, "key_press": -1, "trial_index": 108}, "uniqueid": "MTK3428:3YT88D1N0952AMRDWER5HDXLRAX3K1", "dateTime": 1520535573180}, {"current_trial": 109, "trialdata": {"rt": -1, "trial_type": "single-stim", "stimulus": "<p id=\"stim\">7</p>", "internal_node_id": "0.0-79.0-3.0", "time_elapsed": 671092, "key_press": -1, "trial_index": 109}, "uniqueid": "MTK3428:3YT88D1N0952AMRDWER5HDXLRAX3K1", "dateTime": 1520535574176}, {"current_trial": 110, "trialdata": {"rt": -1, "trial_type": "single-stim", "stimulus": "<p id=\"stim\">6</p>", "internal_node_id": "0.0-79.0-4.0", "time_elapsed": 672101, "key_press": -1, "trial_index": 110}, "uniqueid": "MTK3428:3YT88D1N0952AMRDWER5HDXLRAX3K1", "dateTime": 1520535575185}, {"current_trial": 111, "trialdata": {"rt": -1, "trial_type": "single-stim", "stimulus": "<p id=\"stim\">5</p>", "internal_node_id": "0.0-79.0-5.0", "time_elapsed": 673105, "key_press": -1, "trial_index": 111}, "uniqueid": "MTK3428:3YT88D1N0952AMRDWER5HDXLRAX3K1", "dateTime": 1520535576189}, {"current_trial": 112, "trialdata": {"rt": -1, "trial_type": "single-stim", "stimulus": "<p id=\"stim\">4</p>", "internal_node_id": "0.0-79.0-6.0", "time_elapsed": 674107, "key_press": -1, "trial_index": 112}, "uniqueid": "MTK3428:3YT88D1N0952AMRDWER5HDXLRAX3K1", "dateTime": 1520535577191}, {"current_trial": 113, "trialdata": {"rt": -1, "trial_type": "single-stim", "stimulus": "<p id=\"stim\">3</p>", "internal_node_id": "0.0-79.0-7.0", "time_elapsed": 675101, "key_press": -1, "trial_index": 113}, "uniqueid": "MTK3428:3YT88D1N0952AMRDWER5HDXLRAX3K1", "dateTime": 1520535578185}, {"current_trial": 114, "trialdata": {"rt": -1, "trial_type": "single-stim", "stimulus": "<p id=\"stim\">2</p>", "internal_node_id": "0.0-79.0-8.0", "time_elapsed": 676097, "key_press": -1, "trial_index": 114}, "uniqueid": "MTK3428:3YT88D1N0952AMRDWER5HDXLRAX3K1", "dateTime": 1520535579181}, {"current_trial": 115, "trialdata": {"rt": -1, "trial_type": "single-stim", "stimulus": "<p id=\"stim\">1</p>", "internal_node_id": "0.0-79.0-9.0", "time_elapsed": 677098, "key_press": -1, "trial_index": 115}, "uniqueid": "MTK3428:3YT88D1N0952AMRDWER5HDXLRAX3K1", "dateTime": 1520535580182}, {"current_trial": 116, "trialdata": {"rt": -1, "trial_type": "single-stim", "stimulus": "<p id=\"stim\">+</p>", "internal_node_id": "0.0-80.0-0.0", "time_elapsed": 678622, "key_press": -1, "type": "FIXATION", "trial_index": 116}, "uniqueid": "MTK3428:3YT88D1N0952AMRDWER5HDXLRAX3K1", "dateTime": 1520535581706}, {"current_trial": 117, "trialdata": {"rt": -1000, "trial_type": "single-audio", "word": "nightgown", "stimulus": "/static/audio/wordpool/NIGHTGOWN.wav", "conditions": [12, 800, "a", 24000], "internal_node_id": "0.0-81.0", "trial": 3, "time_elapsed": 680488, "serialpos": 0, "key_press": -1, "wordID": 952, "type": "PRES_AUD", "trial_index": 117}, "uniqueid": "MTK3428:3YT88D1N0952AMRDWER5HDXLRAX3K1", "dateTime": 1520535583572}, {"current_trial": 118, "trialdata": {"rt": -1000, "trial_type": "single-audio", "word": "clothes", "stimulus": "/static/audio/wordpool/CLOTHES.wav", "conditions": [12, 800, "a", 24000], "internal_node_id": "0.0-82.0", "trial": 3, "time_elapsed": 682138, "serialpos": 1, "key_press": -1, "wordID": 326, "type": "PRES_AUD", "trial_index": 118}, "uniqueid": "MTK3428:3YT88D1N0952AMRDWER5HDXLRAX3K1", "dateTime": 1520535585222}, {"current_trial": 119, "trialdata": {"rt": -1000, "trial_type": "single-audio", "word": "dragon", "stimulus": "/static/audio/wordpool/DRAGON.wav", "conditions": [12, 800, "a", 24000], "internal_node_id": "0.0-83.0", "trial": 3, "time_elapsed": 684011, "serialpos": 2, "key_press": -1, "wordID": 491, "type": "PRES_AUD", "trial_index": 119}, "uniqueid": "MTK3428:3YT88D1N0952AMRDWER5HDXLRAX3K1", "dateTime": 1520535587095}, {"current_trial": 120, "trialdata": {"rt": -1000, "trial_type": "single-audio", "word": "japan", "stimulus": "/static/audio/wordpool/JAPAN.wav", "conditions": [12, 800, "a", 24000], "internal_node_id": "0.0-84.0", "trial": 3, "time_elapsed": 685681, "serialpos": 3, "key_press": -1, "wordID": 748, "type": "PRES_AUD", "trial_index": 120}, "uniqueid": "MTK3428:3YT88D1N0952AMRDWER5HDXLRAX3K1", "dateTime": 1520535588765}, {"current_trial": 121, "trialdata": {"rt": -1000, "trial_type": "single-audio", "word": "wardrobe", "stimulus": "/static/audio/wordpool/WARDROBE.wav", "conditions": [12, 800, "a", 24000], "internal_node_id": "0.0-85.0", "trial": 3, "time_elapsed": 687404, "serialpos": 4, "key_press": -1, "wordID": 1586, "type": "PRES_AUD", "trial_index": 121}, "uniqueid": "MTK3428:3YT88D1N0952AMRDWER5HDXLRAX3K1", "dateTime": 1520535590489}, {"current_trial": 122, "trialdata": {"rt": -1000, "trial_type": "single-audio", "word": "county", "stimulus": "/static/audio/wordpool/COUNTY.wav", "conditions": [12, 800, "a", 24000], "internal_node_id": "0.0-86.0", "trial": 3, "time_elapsed": 689222, "serialpos": 5, "key_press": -1, "wordID": 388, "type": "PRES_AUD", "trial_index": 122}, "uniqueid": "MTK3428:3YT88D1N0952AMRDWER5HDXLRAX3K1", "dateTime": 1520535592306}, {"current_trial": 123, "trialdata": {"rt": -1000, "trial_type": "single-audio", "word": "actor", "stimulus": "/static/audio/wordpool/ACTOR.wav", "conditions": [12, 800, "a", 24000], "internal_node_id": "0.0-87.0", "trial": 3, "time_elapsed": 690976, "serialpos": 6, "key_press": -1, "wordID": 4, "type": "PRES_AUD", "trial_index": 123}, "uniqueid": "MTK3428:3YT88D1N0952AMRDWER5HDXLRAX3K1", "dateTime": 1520535594060}, {"current_trial": 124, "trialdata": {"rt": -1000, "trial_type": "single-audio", "word": "goblin", "stimulus": "/static/audio/wordpool/GOBLIN.wav", "conditions": [12, 800, "a", 24000], "internal_node_id": "0.0-88.0", "trial": 3, "time_elapsed": 692721, "serialpos": 7, "key_press": -1, "wordID": 644, "type": "PRES_AUD", "trial_index": 124}, "uniqueid": "MTK3428:3YT88D1N0952AMRDWER5HDXLRAX3K1", "dateTime": 1520535595805}, {"current_trial": 125, "trialdata": {"rt": -1000, "trial_type": "single-audio", "word": "maple", "stimulus": "/static/audio/wordpool/MAPLE.wav", "conditions": [12, 800, "a", 24000], "internal_node_id": "0.0-89.0", "trial": 3, "time_elapsed": 694385, "serialpos": 8, "key_press": -1, "wordID": 865, "type": "PRES_AUD", "trial_index": 125}, "uniqueid": "MTK3428:3YT88D1N0952AMRDWER5HDXLRAX3K1", "dateTime": 1520535597469}, {"current_trial": 126, "trialdata": {"rt": -1000, "trial_type": "single-audio", "word": "film", "stimulus": "/static/audio/wordpool/FILM.wav", "conditions": [12, 800, "a", 24000], "internal_node_id": "0.0-90.0", "trial": 3, "time_elapsed": 696092, "serialpos": 9, "key_press": -1, "wordID": 564, "type": "PRES_AUD", "trial_index": 126}, "uniqueid": "MTK3428:3YT88D1N0952AMRDWER5HDXLRAX3K1", "dateTime": 1520535599176}, {"current_trial": 127, "trialdata": {"rt": -1000, "trial_type": "single-audio", "word": "lamp", "stimulus": "/static/audio/wordpool/LAMP.wav", "conditions": [12, 800, "a", 24000], "internal_node_id": "0.0-91.0", "trial": 3, "time_elapsed": 697868, "serialpos": 10, "key_press": -1, "wordID": 797, "type": "PRES_AUD", "trial_index": 127}, "uniqueid": "MTK3428:3YT88D1N0952AMRDWER5HDXLRAX3K1", "dateTime": 1520535600952}, {"current_trial": 128, "trialdata": {"rt": -1000, "trial_type": "single-audio", "word": "yacht", "stimulus": "/static/audio/wordpool/YACHT.wav", "conditions": [12, 800, "a", 24000], "internal_node_id": "0.0-92.0", "trial": 3, "time_elapsed": 699650, "serialpos": 11, "key_press": -1, "wordID": 1628, "type": "PRES_AUD", "trial_index": 128}, "uniqueid": "MTK3428:3YT88D1N0952AMRDWER5HDXLRAX3K1", "dateTime": 1520535602735}, {"current_trial": 129, "trialdata": {"rt": -1, "trial_type": "single-stim", "stimulus": "", "internal_node_id": "0.0-93.0-0.0", "time_elapsed": 700970, "key_press": -1, "type": "PRE_RECALL_DELAY", "trial_index": 129}, "uniqueid": "MTK3428:3YT88D1N0952AMRDWER5HDXLRAX3K1", "dateTime": 1520535604054}, {"current_trial": 130, "trialdata": {"rt": -1000, "trial_type": "single-audio", "stimulus": "/static/audio/400Hz.wav", "internal_node_id": "0.0-94.0", "time_elapsed": 701492, "key_press": -1, "type": "PRE_RECALL_ALERT", "trial_index": 130}, "uniqueid": "MTK3428:3YT88D1N0952AMRDWER5HDXLRAX3K1", "dateTime": 1520535604576}, {"current_trial": 131, "trialdata": {"rt": [8870, 12799, 15294, 20431, 25582, 30695, 38542, 43462, 54350], "recwords": ["maple", "nightgown", "film", "dragon", "goblin", "lamp", "japan", "yahgt", "popcorn"], "key_times": [7463, 7679, 7943, 8143, 8391, 8870, 9703, 10024, 10199, 10336, 10455, 11494, 11719, 12015, 12255, 12799, 13815, 14079, 14431, 14783, 15294, 18360, 18679, 18991, 19351, 19551, 19855, 20431, 22656, 23111, 23639, 24479, 24808, 25103, 25582, 27672, 27951, 28191, 28559, 30695, 32808, 33047, 33238, 34055, 34223, 34767, 37200, 37471, 37719, 37911, 38110, 38542, 41016, 41487, 42263, 42943, 43208, 43462, 51360, 51599, 51807, 52719, 53015, 53311, 53855, 54350, 59567, 59751, 59991], "trial_type": "free-recall", "conditions": [12, 800, "a", 24000], "internal_node_id": "0.0-95.0-0.0", "key_presses": [77, 65, 80, 76, 69, 13, 78, 73, 71, 72, 84, 71, 79, 87, 78, 13, 70, 73, 76, 77, 13, 68, 82, 65, 71, 79, 78, 13, 71, 79, 66, 76, 73, 78, 13, 76, 65, 77, 80, 13, 80, 79, 76, 8, 8, 8, 74, 65, 80, 65, 78, 13, 89, 65, 72, 71, 84, 13, 80, 79, 80, 67, 79, 82, 78, 13, 76, 65, 77], "trial": 3, "time_elapsed": 761505, "type": "FREE_RECALL", "trial_index": 131}, "uniqueid": "MTK3428:3YT88D1N0952AMRDWER5HDXLRAX3K1", "dateTime": 1520535664596}, {"current_trial": 132, "trialdata": {"rt": 1771, "trial_type": "text", "internal_node_id": "0.0-96.0", "time_elapsed": 765302, "key_press": 13, "type": "INSTRUCTIONS", "trial_index": 132}, "uniqueid": "MTK3428:3YT88D1N0952AMRDWER5HDXLRAX3K1", "dateTime": 1520535668386}, {"current_trial": 133, "trialdata": {"rt": [3352, 6520, 9768], "trial_type": "math-distractor", "key_times": [3186, 3352, 5913, 6305, 6520, 9065, 9561, 9768], "responses": ["8", "17", "15"], "num2": [4, 1, 5, 4], "num3": [3, 9, 2, 8], "conditions": [24, 800, "a", 12000], "internal_node_id": "0.0-97.0", "key_presses": [56, 13, 49, 55, 13, 49, 53, 13], "trial": 4, "time_elapsed": 779322, "type": "DISTRACTOR", "trial_index": 133, "num1": [1, 7, 8, 5]}, "uniqueid": "MTK3428:3YT88D1N0952AMRDWER5HDXLRAX3K1", "dateTime": 1520535682406}, {"current_trial": 134, "trialdata": {"rt": -1, "trial_type": "single-stim", "stimulus": "<p id=\"stim\">10</p>", "internal_node_id": "0.0-98.0-0.0", "time_elapsed": 782345, "key_press": -1, "trial_index": 134}, "uniqueid": "MTK3428:3YT88D1N0952AMRDWER5HDXLRAX3K1", "dateTime": 1520535685429}, {"current_trial": 135, "trialdata": {"rt": -1, "trial_type": "single-stim", "stimulus": "<p id=\"stim\">9</p>", "internal_node_id": "0.0-98.0-1.0", "time_elapsed": 783336, "key_press": -1, "trial_index": 135}, "uniqueid": "MTK3428:3YT88D1N0952AMRDWER5HDXLRAX3K1", "dateTime": 1520535686420}, {"current_trial": 136, "trialdata": {"rt": -1, "trial_type": "single-stim", "stimulus": "<p id=\"stim\">8</p>", "internal_node_id": "0.0-98.0-2.0", "time_elapsed": 784336, "key_press": -1, "trial_index": 136}, "uniqueid": "MTK3428:3YT88D1N0952AMRDWER5HDXLRAX3K1", "dateTime": 1520535687420}, {"current_trial": 137, "trialdata": {"rt": -1, "trial_type": "single-stim", "stimulus": "<p id=\"stim\">7</p>", "internal_node_id": "0.0-98.0-3.0", "time_elapsed": 785347, "key_press": -1, "trial_index": 137}, "uniqueid": "MTK3428:3YT88D1N0952AMRDWER5HDXLRAX3K1", "dateTime": 1520535688431}, {"current_trial": 138, "trialdata": {"rt": -1, "trial_type": "single-stim", "stimulus": "<p id=\"stim\">6</p>", "internal_node_id": "0.0-98.0-4.0", "time_elapsed": 786343, "key_press": -1, "trial_index": 138}, "uniqueid": "MTK3428:3YT88D1N0952AMRDWER5HDXLRAX3K1", "dateTime": 1520535689428}, {"current_trial": 139, "trialdata": {"rt": -1, "trial_type": "single-stim", "stimulus": "<p id=\"stim\">5</p>", "internal_node_id": "0.0-98.0-5.0", "time_elapsed": 787337, "key_press": -1, "trial_index": 139}, "uniqueid": "MTK3428:3YT88D1N0952AMRDWER5HDXLRAX3K1", "dateTime": 1520535690422}, {"current_trial": 140, "trialdata": {"rt": -1, "trial_type": "single-stim", "stimulus": "<p id=\"stim\">4</p>", "internal_node_id": "0.0-98.0-6.0", "time_elapsed": 788360, "key_press": -1, "trial_index": 140}, "uniqueid": "MTK3428:3YT88D1N0952AMRDWER5HDXLRAX3K1", "dateTime": 1520535691444}, {"current_trial": 141, "trialdata": {"rt": -1, "trial_type": "single-stim", "stimulus": "<p id=\"stim\">3</p>", "internal_node_id": "0.0-98.0-7.0", "time_elapsed": 789354, "key_press": -1, "trial_index": 141}, "uniqueid": "MTK3428:3YT88D1N0952AMRDWER5HDXLRAX3K1", "dateTime": 1520535692438}, {"current_trial": 142, "trialdata": {"rt": -1, "trial_type": "single-stim", "stimulus": "<p id=\"stim\">2</p>", "internal_node_id": "0.0-98.0-8.0", "time_elapsed": 790346, "key_press": -1, "trial_index": 142}, "uniqueid": "MTK3428:3YT88D1N0952AMRDWER5HDXLRAX3K1", "dateTime": 1520535693430}, {"current_trial": 143, "trialdata": {"rt": -1, "trial_type": "single-stim", "stimulus": "<p id=\"stim\">1</p>", "internal_node_id": "0.0-98.0-9.0", "time_elapsed": 791347, "key_press": -1, "trial_index": 143}, "uniqueid": "MTK3428:3YT88D1N0952AMRDWER5HDXLRAX3K1", "dateTime": 1520535694431}, {"current_trial": 144, "trialdata": {"rt": -1, "trial_type": "single-stim", "stimulus": "<p id=\"stim\">+</p>", "internal_node_id": "0.0-99.0-0.0", "time_elapsed": 792862, "key_press": -1, "type": "FIXATION", "trial_index": 144}, "uniqueid": "MTK3428:3YT88D1N0952AMRDWER5HDXLRAX3K1", "dateTime": 1520535695946}, {"current_trial": 145, "trialdata": {"rt": -1000, "trial_type": "single-audio", "word": "creature", "stimulus": "/static/audio/wordpool/CREATURE.wav", "conditions": [24, 800, "a", 12000], "internal_node_id": "0.0-100.0", "trial": 4, "time_elapsed": 794852, "serialpos": 0, "key_press": -1, "wordID": 402, "type": "PRES_AUD", "trial_index": 145}, "uniqueid": "MTK3428:3YT88D1N0952AMRDWER5HDXLRAX3K1", "dateTime": 1520535697936}, {"current_trial": 146, "trialdata": {"rt": -1000, "trial_type": "single-audio", "word": "bacon", "stimulus": "/static/audio/wordpool/BACON.wav", "conditions": [24, 800, "a", 12000], "internal_node_id": "0.0-101.0", "trial": 4, "time_elapsed": 796550, "serialpos": 1, "key_press": -1, "wordID": 66, "type": "PRES_AUD", "trial_index": 146}, "uniqueid": "MTK3428:3YT88D1N0952AMRDWER5HDXLRAX3K1", "dateTime": 1520535699634}, {"current_trial": 147, "trialdata": {"rt": -1000, "trial_type": "single-audio", "word": "blender", "stimulus": "/static/audio/wordpool/BLENDER.wav", "conditions": [24, 800, "a", 12000], "internal_node_id": "0.0-102.0", "trial": 4, "time_elapsed": 798170, "serialpos": 2, "key_press": -1, "wordID": 135, "type": "PRES_AUD", "trial_index": 147}, "uniqueid": "MTK3428:3YT88D1N0952AMRDWER5HDXLRAX3K1", "dateTime": 1520535701254}, {"current_trial": 148, "trialdata": {"rt": -1000, "trial_type": "single-audio", "word": "skillet", "stimulus": "/static/audio/wordpool/SKILLET.wav", "conditions": [24, 800, "a", 12000], "internal_node_id": "0.0-103.0", "trial": 4, "time_elapsed": 800143, "serialpos": 3, "key_press": -1, "wordID": 1316, "type": "PRES_AUD", "trial_index": 148}, "uniqueid": "MTK3428:3YT88D1N0952AMRDWER5HDXLRAX3K1", "dateTime": 1520535703228}, {"current_trial": 149, "trialdata": {"rt": -1000, "trial_type": "single-audio", "word": "crab", "stimulus": "/static/audio/wordpool/CRAB.wav", "conditions": [24, 800, "a", 12000], "internal_node_id": "0.0-104.0", "trial": 4, "time_elapsed": 801971, "serialpos": 4, "key_press": -1, "wordID": 396, "type": "PRES_AUD", "trial_index": 149}, "uniqueid": "MTK3428:3YT88D1N0952AMRDWER5HDXLRAX3K1", "dateTime": 1520535705055}, {"current_trial": 150, "trialdata": {"rt": -1000, "trial_type": "single-audio", "word": "college", "stimulus": "/static/audio/wordpool/COLLEGE.wav", "conditions": [24, 800, "a", 12000], "internal_node_id": "0.0-105.0", "trial": 4, "time_elapsed": 803603, "serialpos": 5, "key_press": -1, "wordID": 345, "type": "PRES_AUD", "trial_index": 150}, "uniqueid": "MTK3428:3YT88D1N0952AMRDWER5HDXLRAX3K1", "dateTime": 1520535706688}, {"current_trial": 151, "trialdata": {"rt": -1000, "trial_type": "single-audio", "word": "patient", "stimulus": "/static/audio/wordpool/PATIENT.wav", "conditions": [24, 800, "a", 12000], "internal_node_id": "0.0-106.0", "trial": 4, "time_elapsed": 805346, "serialpos": 6, "key_press": -1, "wordID": 1023, "type": "PRES_AUD", "trial_index": 151}, "uniqueid": "MTK3428:3YT88D1N0952AMRDWER5HDXLRAX3K1", "dateTime": 1520535708431}, {"current_trial": 152, "trialdata": {"rt": -1000, "trial_type": "single-audio", "word": "treat", "stimulus": "/static/audio/wordpool/TREAT.wav", "conditions": [24, 800, "a", 12000], "internal_node_id": "0.0-107.0", "trial": 4, "time_elapsed": 807276, "serialpos": 7, "key_press": -1, "wordID": 1500, "type": "PRES_AUD", "trial_index": 152}, "uniqueid": "MTK3428:3YT88D1N0952AMRDWER5HDXLRAX3K1", "dateTime": 1520535710361}, {"current_trial": 153, "trialdata": {"rt": -1000, "trial_type": "single-audio", "word": "fireman", "stimulus": "/static/audio/wordpool/FIREMAN.wav", "conditions": [24, 800, "a", 12000], "internal_node_id": "0.0-108.0", "trial": 4, "time_elapsed": 809171, "serialpos": 8, "key_press": -1, "wordID": 568, "type": "PRES_AUD", "trial_index": 153}, "uniqueid": "MTK3428:3YT88D1N0952AMRDWER5HDXLRAX3K1", "dateTime": 1520535712256}, {"current_trial": 154, "trialdata": {"rt": -1000, "trial_type": "single-audio", "word": "peanut", "stimulus": "/static/audio/wordpool/PEANUT.wav", "conditions": [24, 800, "a", 12000], "internal_node_id": "0.0-109.0", "trial": 4, "time_elapsed": 810897, "serialpos": 9, "key_press": -1, "wordID": 1031, "type": "PRES_AUD", "trial_index": 154}, "uniqueid": "MTK3428:3YT88D1N0952AMRDWER5HDXLRAX3K1", "dateTime": 1520535713981}, {"current_trial": 155, "trialdata": {"rt": -1000, "trial_type": "single-audio", "word": "student", "stimulus": "/static/audio/wordpool/STUDENT.wav", "conditions": [24, 800, "a", 12000], "internal_node_id": "0.0-110.0", "trial": 4, "time_elapsed": 812770, "serialpos": 10, "key_press": -1, "wordID": 1394, "type": "PRES_AUD", "trial_index": 155}, "uniqueid": "MTK3428:3YT88D1N0952AMRDWER5HDXLRAX3K1", "dateTime": 1520535715854}, {"current_trial": 156, "trialdata": {"rt": -1000, "trial_type": "single-audio", "word": "pimple", "stimulus": "/static/audio/wordpool/PIMPLE.wav", "conditions": [24, 800, "a", 12000], "internal_node_id": "0.0-111.0", "trial": 4, "time_elapsed": 814753, "serialpos": 11, "key_press": -1, "wordID": 1070, "type": "PRES_AUD", "trial_index": 156}, "uniqueid": "MTK3428:3YT88D1N0952AMRDWER5HDXLRAX3K1", "dateTime": 1520535717838}, {"current_trial": 157, "trialdata": {"rt": -1000, "trial_type": "single-audio", "word": "beast", "stimulus": "/static/audio/wordpool/BEAST.wav", "conditions": [24, 800, "a", 12000], "internal_node_id": "0.0-112.0", "trial": 4, "time_elapsed": 816468, "serialpos": 12, "key_press": -1, "wordID": 107, "type": "PRES_AUD", "trial_index": 157}, "uniqueid": "MTK3428:3YT88D1N0952AMRDWER5HDXLRAX3K1", "dateTime": 1520535719552}, {"current_trial": 158, "trialdata": {"rt": -1000, "trial_type": "single-audio", "word": "hood", "stimulus": "/static/audio/wordpool/HOOD.wav", "conditions": [24, 800, "a", 12000], "internal_node_id": "0.0-113.0", "trial": 4, "time_elapsed": 818221, "serialpos": 13, "key_press": -1, "wordID": 713, "type": "PRES_AUD", "trial_index": 158}, "uniqueid": "MTK3428:3YT88D1N0952AMRDWER5HDXLRAX3K1", "dateTime": 1520535721306}, {"current_trial": 159, "trialdata": {"rt": -1000, "trial_type": "single-audio", "word": "tutu", "stimulus": "/static/audio/wordpool/TUTU.wav", "conditions": [24, 800, "a", 12000], "internal_node_id": "0.0-114.0", "trial": 4, "time_elapsed": 819894, "serialpos": 14, "key_press": -1, "wordID": 1523, "type": "PRES_AUD", "trial_index": 159}, "uniqueid": "MTK3428:3YT88D1N0952AMRDWER5HDXLRAX3K1", "dateTime": 1520535722979}, {"current_trial": 160, "trialdata": {"rt": -1000, "trial_type": "single-audio", "word": "market", "stimulus": "/static/audio/wordpool/MARKET.wav", "conditions": [24, 800, "a", 12000], "internal_node_id": "0.0-115.0", "trial": 4, "time_elapsed": 821847, "serialpos": 15, "key_press": -1, "wordID": 870, "type": "PRES_AUD", "trial_index": 160}, "uniqueid": "MTK3428:3YT88D1N0952AMRDWER5HDXLRAX3K1", "dateTime": 1520535724931}, {"current_trial": 161, "trialdata": {"rt": -1000, "trial_type": "single-audio", "word": "monster", "stimulus": "/static/audio/wordpool/MONSTER.wav", "conditions": [24, 800, "a", 12000], "internal_node_id": "0.0-116.0", "trial": 4, "time_elapsed": 823680, "serialpos": 16, "key_press": -1, "wordID": 911, "type": "PRES_AUD", "trial_index": 161}, "uniqueid": "MTK3428:3YT88D1N0952AMRDWER5HDXLRAX3K1", "dateTime": 1520535726764}, {"current_trial": 162, "trialdata": {"rt": -1000, "trial_type": "single-audio", "word": "marsh", "stimulus": "/static/audio/wordpool/MARSH.wav", "conditions": [24, 800, "a", 12000], "internal_node_id": "0.0-117.0", "trial": 4, "time_elapsed": 825428, "serialpos": 17, "key_press": -1, "wordID": 873, "type": "PRES_AUD", "trial_index": 162}, "uniqueid": "MTK3428:3YT88D1N0952AMRDWER5HDXLRAX3K1", "dateTime": 1520535728512}, {"current_trial": 163, "trialdata": {"rt": -1000, "trial_type": "single-audio", "word": "clam", "stimulus": "/static/audio/wordpool/CLAM.wav", "conditions": [24, 800, "a", 12000], "internal_node_id": "0.0-118.0", "trial": 4, "time_elapsed": 827281, "serialpos": 18, "key_press": -1, "wordID": 314, "type": "PRES_AUD", "trial_index": 163}, "uniqueid": "MTK3428:3YT88D1N0952AMRDWER5HDXLRAX3K1", "dateTime": 1520535730365}, {"current_trial": 164, "trialdata": {"rt": -1000, "trial_type": "single-audio", "word": "woman", "stimulus": "/static/audio/wordpool/WOMAN.wav", "conditions": [24, 800, "a", 12000], "internal_node_id": "0.0-119.0", "trial": 4, "time_elapsed": 828890, "serialpos": 19, "key_press": -1, "wordID": 1619, "type": "PRES_AUD", "trial_index": 164}, "uniqueid": "MTK3428:3YT88D1N0952AMRDWER5HDXLRAX3K1", "dateTime": 1520535731974}, {"current_trial": 165, "trialdata": {"rt": -1000, "trial_type": "single-audio", "word": "report", "stimulus": "/static/audio/wordpool/REPORT.wav", "conditions": [24, 800, "a", 12000], "internal_node_id": "0.0-120.0", "trial": 4, "time_elapsed": 830730, "serialpos": 20, "key_press": -1, "wordID": 1183, "type": "PRES_AUD", "trial_index": 165}, "uniqueid": "MTK3428:3YT88D1N0952AMRDWER5HDXLRAX3K1", "dateTime": 1520535733814}, {"current_trial": 166, "trialdata": {"rt": -1000, "trial_type": "single-audio", "word": "scalpel", "stimulus": "/static/audio/wordpool/SCALPEL.wav", "conditions": [24, 800, "a", 12000], "internal_node_id": "0.0-121.0", "trial": 4, "time_elapsed": 832509, "serialpos": 21, "key_press": -1, "wordID": 1242, "type": "PRES_AUD", "trial_index": 166}, "uniqueid": "MTK3428:3YT88D1N0952AMRDWER5HDXLRAX3K1", "dateTime": 1520535735594}, {"current_trial": 167, "trialdata": {"rt": -1000, "trial_type": "single-audio", "word": "scissors", "stimulus": "/static/audio/wordpool/SCISSORS.wav", "conditions": [24, 800, "a", 12000], "internal_node_id": "0.0-122.0", "trial": 4, "time_elapsed": 834499, "serialpos": 22, "key_press": -1, "wordID": 1249, "type": "PRES_AUD", "trial_index": 167}, "uniqueid": "MTK3428:3YT88D1N0952AMRDWER5HDXLRAX3K1", "dateTime": 1520535737584}, {"current_trial": 168, "trialdata": {"rt": -1000, "trial_type": "single-audio", "word": "island", "stimulus": "/static/audio/wordpool/ISLAND.wav", "conditions": [24, 800, "a", 12000], "internal_node_id": "0.0-123.0", "trial": 4, "time_elapsed": 836184, "serialpos": 23, "key_press": -1, "wordID": 744, "type": "PRES_AUD", "trial_index": 168}, "uniqueid": "MTK3428:3YT88D1N0952AMRDWER5HDXLRAX3K1", "dateTime": 1520535739269}, {"current_trial": 169, "trialdata": {"rt": -1, "trial_type": "single-stim", "stimulus": "", "internal_node_id": "0.0-124.0-0.0", "time_elapsed": 837537, "key_press": -1, "type": "PRE_RECALL_DELAY", "trial_index": 169}, "uniqueid": "MTK3428:3YT88D1N0952AMRDWER5HDXLRAX3K1", "dateTime": 1520535740621}, {"current_trial": 170, "trialdata": {"rt": -1000, "trial_type": "single-audio", "stimulus": "/static/audio/400Hz.wav", "internal_node_id": "0.0-125.0", "time_elapsed": 838053, "key_press": -1, "type": "PRE_RECALL_ALERT", "trial_index": 170}, "uniqueid": "MTK3428:3YT88D1N0952AMRDWER5HDXLRAX3K1", "dateTime": 1520535741138}, {"current_trial": 171, "trialdata": {"rt": [5636, 10228, 12395, 16075, 22019, 25115, 26627, 30155, 32779, 36523, 40964, 44147, 46923, 49771, 54699, 57075, 59619], "recwords": ["island", "people", "women", "mash", "student", "beast", "hood", "tutu", "monster", "peanut", "creature", "crab", "bacon", "college", "treat", "peanut", "butter"], "key_times": [3157, 3732, 4429, 4604, 4852, 5156, 5636, 8269, 8540, 8765, 8948, 9140, 9284, 10228, 10693, 11044, 11452, 11644, 11868, 12395, 14364, 14604, 15276, 15556, 16075, 20269, 20620, 20900, 21172, 21420, 21596, 21797, 22019, 23701, 23964, 24164, 24420, 24740, 25115, 25813, 26092, 26228, 26380, 26627, 28437, 28748, 28916, 30004, 30155, 30949, 31244, 31548, 31924, 32228, 32436, 32564, 32779, 34821, 35220, 35412, 35724, 36044, 36284, 36523, 38716, 39212, 39393, 39684, 39996, 40212, 40404, 40593, 40964, 42884, 43180, 43516, 43780, 44147, 45397, 45564, 45916, 46092, 46444, 46923, 48245, 48476, 48724, 48852, 49020, 49340, 49523, 49771, 53526, 53667, 53932, 54220, 54492, 54699, 55188, 55500, 55684, 56028, 56484, 56772, 57075, 58381, 58692, 58980, 59124, 59276, 59444, 59619], "trial_type": "free-recall", "conditions": [24, 800, "a", 12000], "internal_node_id": "0.0-126.0-0.0", "key_presses": [73, 83, 76, 65, 78, 68, 13, 80, 69, 79, 80, 76, 69, 13, 87, 79, 77, 69, 78, 13, 77, 65, 83, 72, 13, 83, 84, 85, 68, 69, 78, 84, 13, 66, 69, 65, 83, 84, 13, 72, 79, 79, 68, 13, 84, 85, 84, 85, 13, 77, 79, 78, 83, 84, 69, 82, 13, 80, 69, 65, 78, 85, 84, 13, 67, 82, 69, 65, 84, 85, 82, 69, 13, 67, 82, 65, 66, 13, 66, 65, 67, 79, 78, 13, 67, 79, 76, 76, 69, 71, 69, 13, 84, 82, 69, 65, 84, 13, 80, 69, 65, 78, 85, 84, 13, 66, 85, 84, 84, 69, 82, 13], "trial": 4, "time_elapsed": 898080, "type": "FREE_RECALL", "trial_index": 171}, "uniqueid": "MTK3428:3YT88D1N0952AMRDWER5HDXLRAX3K1", "dateTime": 1520535801170}, {"current_trial": 172, "trialdata": {"rt": 236, "trial_type": "text", "internal_node_id": "0.0-127.0", "time_elapsed": 900342, "key_press": 66, "type": "INSTRUCTIONS", "trial_index": 172}, "uniqueid": "MTK3428:3YT88D1N0952AMRDWER5HDXLRAX3K1", "dateTime": 1520535803426}, {"current_trial": 173, "trialdata": {"rt": [4433, 9537], "trial_type": "math-distractor", "key_times": [3594, 3969, 4433, 8954, 9338, 9537], "responses": ["15", "16"], "num2": [1, 7, 3], "num3": [7, 4, 4], "conditions": [24, 1600, "a", 12000], "internal_node_id": "0.0-128.0", "key_presses": [49, 53, 13, 49, 54, 13], "trial": 5, "time_elapsed": 914375, "type": "DISTRACTOR", "trial_index": 173, "num1": [5, 5, 6]}, "uniqueid": "MTK3428:3YT88D1N0952AMRDWER5HDXLRAX3K1", "dateTime": 1520535817459}, {"current_trial": 174, "trialdata": {"rt": -1, "trial_type": "single-stim", "stimulus": "<p id=\"stim\">10</p>", "internal_node_id": "0.0-129.0-0.0", "time_elapsed": 917399, "key_press": -1, "trial_index": 174}, "uniqueid": "MTK3428:3YT88D1N0952AMRDWER5HDXLRAX3K1", "dateTime": 1520535820483}, {"current_trial": 175, "trialdata": {"rt": -1, "trial_type": "single-stim", "stimulus": "<p id=\"stim\">9</p>", "internal_node_id": "0.0-129.0-1.0", "time_elapsed": 918419, "key_press": -1, "trial_index": 175}, "uniqueid": "MTK3428:3YT88D1N0952AMRDWER5HDXLRAX3K1", "dateTime": 1520535821503}, {"current_trial": 176, "trialdata": {"rt": -1, "trial_type": "single-stim", "stimulus": "<p id=\"stim\">8</p>", "internal_node_id": "0.0-129.0-2.0", "time_elapsed": 919403, "key_press": -1, "trial_index": 176}, "uniqueid": "MTK3428:3YT88D1N0952AMRDWER5HDXLRAX3K1", "dateTime": 1520535822487}, {"current_trial": 177, "trialdata": {"rt": -1, "trial_type": "single-stim", "stimulus": "<p id=\"stim\">7</p>", "internal_node_id": "0.0-129.0-3.0", "time_elapsed": 920403, "key_press": -1, "trial_index": 177}, "uniqueid": "MTK3428:3YT88D1N0952AMRDWER5HDXLRAX3K1", "dateTime": 1520535823487}, {"current_trial": 178, "trialdata": {"rt": -1, "trial_type": "single-stim", "stimulus": "<p id=\"stim\">6</p>", "internal_node_id": "0.0-129.0-4.0", "time_elapsed": 921405, "key_press": -1, "trial_index": 178}, "uniqueid": "MTK3428:3YT88D1N0952AMRDWER5HDXLRAX3K1", "dateTime": 1520535824489}, {"current_trial": 179, "trialdata": {"rt": -1, "trial_type": "single-stim", "stimulus": "<p id=\"stim\">5</p>", "internal_node_id": "0.0-129.0-5.0", "time_elapsed": 922412, "key_press": -1, "trial_index": 179}, "uniqueid": "MTK3428:3YT88D1N0952AMRDWER5HDXLRAX3K1", "dateTime": 1520535825496}, {"current_trial": 180, "trialdata": {"rt": -1, "trial_type": "single-stim", "stimulus": "<p id=\"stim\">4</p>", "internal_node_id": "0.0-129.0-6.0", "time_elapsed": 923416, "key_press": -1, "trial_index": 180}, "uniqueid": "MTK3428:3YT88D1N0952AMRDWER5HDXLRAX3K1", "dateTime": 1520535826500}, {"current_trial": 181, "trialdata": {"rt": -1, "trial_type": "single-stim", "stimulus": "<p id=\"stim\">3</p>", "internal_node_id": "0.0-129.0-7.0", "time_elapsed": 924400, "key_press": -1, "trial_index": 181}, "uniqueid": "MTK3428:3YT88D1N0952AMRDWER5HDXLRAX3K1", "dateTime": 1520535827484}, {"current_trial": 182, "trialdata": {"rt": -1, "trial_type": "single-stim", "stimulus": "<p id=\"stim\">2</p>", "internal_node_id": "0.0-129.0-8.0", "time_elapsed": 925409, "key_press": -1, "trial_index": 182}, "uniqueid": "MTK3428:3YT88D1N0952AMRDWER5HDXLRAX3K1", "dateTime": 1520535828494}, {"current_trial": 183, "trialdata": {"rt": -1, "trial_type": "single-stim", "stimulus": "<p id=\"stim\">1</p>", "internal_node_id": "0.0-129.0-9.0", "time_elapsed": 926408, "key_press": -1, "trial_index": 183}, "uniqueid": "MTK3428:3YT88D1N0952AMRDWER5HDXLRAX3K1", "dateTime": 1520535829493}, {"current_trial": 184, "trialdata": {"rt": -1, "trial_type": "single-stim", "stimulus": "<p id=\"stim\">+</p>", "internal_node_id": "0.0-130.0-0.0", "time_elapsed": 927930, "key_press": -1, "type": "FIXATION", "trial_index": 184}, "uniqueid": "MTK3428:3YT88D1N0952AMRDWER5HDXLRAX3K1", "dateTime": 1520535831014}, {"current_trial": 185, "trialdata": {"rt": -1000, "trial_type": "single-audio", "word": "primate", "stimulus": "/static/audio/wordpool/PRIMATE.wav", "conditions": [24, 1600, "a", 12000], "internal_node_id": "0.0-131.0", "trial": 5, "time_elapsed": 930478, "serialpos": 0, "key_press": -1, "wordID": 1122, "type": "PRES_AUD", "trial_index": 185}, "uniqueid": "MTK3428:3YT88D1N0952AMRDWER5HDXLRAX3K1", "dateTime": 1520535833563}, {"current_trial": 186, "trialdata": {"rt": -1000, "trial_type": "single-audio", "word": "drug", "stimulus": "/static/audio/wordpool/DRUG.wav", "conditions": [24, 1600, "a", 12000], "internal_node_id": "0.0-132.0", "trial": 5, "time_elapsed": 932960, "serialpos": 1, "key_press": -1, "wordID": 500, "type": "PRES_AUD", "trial_index": 186}, "uniqueid": "MTK3428:3YT88D1N0952AMRDWER5HDXLRAX3K1", "dateTime": 1520535836045}, {"current_trial": 187, "trialdata": {"rt": -1000, "trial_type": "single-audio", "word": "poison", "stimulus": "/static/audio/wordpool/POISON.wav", "conditions": [24, 1600, "a", 12000], "internal_node_id": "0.0-133.0", "trial": 5, "time_elapsed": 935458, "serialpos": 2, "key_press": -1, "wordID": 1095, "type": "PRES_AUD", "trial_index": 187}, "uniqueid": "MTK3428:3YT88D1N0952AMRDWER5HDXLRAX3K1", "dateTime": 1520535838543}, {"current_trial": 188, "trialdata": {"rt": -1000, "trial_type": "single-audio", "word": "sandwich", "stimulus": "/static/audio/wordpool/SANDWICH.wav", "conditions": [24, 1600, "a", 12000], "internal_node_id": "0.0-134.0", "trial": 5, "time_elapsed": 937986, "serialpos": 3, "key_press": -1, "wordID": 1231, "type": "PRES_AUD", "trial_index": 188}, "uniqueid": "MTK3428:3YT88D1N0952AMRDWER5HDXLRAX3K1", "dateTime": 1520535841070}, {"current_trial": 189, "trialdata": {"rt": -1000, "trial_type": "single-audio", "word": "tourist", "stimulus": "/static/audio/wordpool/TOURIST.wav", "conditions": [24, 1600, "a", 12000], "internal_node_id": "0.0-135.0", "trial": 5, "time_elapsed": 940664, "serialpos": 4, "key_press": -1, "wordID": 1487, "type": "PRES_AUD", "trial_index": 189}, "uniqueid": "MTK3428:3YT88D1N0952AMRDWER5HDXLRAX3K1", "dateTime": 1520535843749}, {"current_trial": 190, "trialdata": {"rt": -1000, "trial_type": "single-audio", "word": "canyon", "stimulus": "/static/audio/wordpool/CANYON.wav", "conditions": [24, 1600, "a", 12000], "internal_node_id": "0.0-136.0", "trial": 5, "time_elapsed": 943419, "serialpos": 5, "key_press": -1, "wordID": 234, "type": "PRES_AUD", "trial_index": 190}, "uniqueid": "MTK3428:3YT88D1N0952AMRDWER5HDXLRAX3K1", "dateTime": 1520535846503}, {"current_trial": 191, "trialdata": {"rt": -1000, "trial_type": "single-audio", "word": "shark", "stimulus": "/static/audio/wordpool/SHARK.wav", "conditions": [24, 1600, "a", 12000], "internal_node_id": "0.0-137.0", "trial": 5, "time_elapsed": 945835, "serialpos": 6, "key_press": -1, "wordID": 1274, "type": "PRES_AUD", "trial_index": 191}, "uniqueid": "MTK3428:3YT88D1N0952AMRDWER5HDXLRAX3K1", "dateTime": 1520535848920}, {"current_trial": 192, "trialdata": {"rt": -1000, "trial_type": "single-audio", "word": "sausage", "stimulus": "/static/audio/wordpool/SAUSAGE.wav", "conditions": [24, 1600, "a", 12000], "internal_node_id": "0.0-138.0", "trial": 5, "time_elapsed": 948384, "serialpos": 7, "key_press": -1, "wordID": 1237, "type": "PRES_AUD", "trial_index": 192}, "uniqueid": "MTK3428:3YT88D1N0952AMRDWER5HDXLRAX3K1", "dateTime": 1520535851468}, {"current_trial": 193, "trialdata": {"rt": -1000, "trial_type": "single-audio", "word": "football", "stimulus": "/static/audio/wordpool/FOOTBALL.wav", "conditions": [24, 1600, "a", 12000], "internal_node_id": "0.0-139.0", "trial": 5, "time_elapsed": 950894, "serialpos": 8, "key_press": -1, "wordID": 590, "type": "PRES_AUD", "trial_index": 193}, "uniqueid": "MTK3428:3YT88D1N0952AMRDWER5HDXLRAX3K1", "dateTime": 1520535853978}, {"current_trial": 194, "trialdata": {"rt": -1000, "trial_type": "single-audio", "word": "asia", "stimulus": "/static/audio/wordpool/ASIA.wav", "conditions": [24, 1600, "a", 12000], "internal_node_id": "0.0-140.0", "trial": 5, "time_elapsed": 953322, "serialpos": 9, "key_press": -1, "wordID": 45, "type": "PRES_AUD", "trial_index": 194}, "uniqueid": "MTK3428:3YT88D1N0952AMRDWER5HDXLRAX3K1", "dateTime": 1520535856407}, {"current_trial": 195, "trialdata": {"rt": -1000, "trial_type": "single-audio", "word": "europe", "stimulus": "/static/audio/wordpool/EUROPE.wav", "conditions": [24, 1600, "a", 12000], "internal_node_id": "0.0-141.0", "trial": 5, "time_elapsed": 956095, "serialpos": 10, "key_press": -1, "wordID": 540, "type": "PRES_AUD", "trial_index": 195}, "uniqueid": "MTK3428:3YT88D1N0952AMRDWER5HDXLRAX3K1", "dateTime": 1520535859179}, {"current_trial": 196, "trialdata": {"rt": -1000, "trial_type": "single-audio", "word": "drill", "stimulus": "/static/audio/wordpool/DRILL.wav", "conditions": [24, 1600, "a", 12000], "internal_node_id": "0.0-142.0", "trial": 5, "time_elapsed": 958558, "serialpos": 11, "key_press": -1, "wordID": 496, "type": "PRES_AUD", "trial_index": 196}, "uniqueid": "MTK3428:3YT88D1N0952AMRDWER5HDXLRAX3K1", "dateTime": 1520535861643}, {"current_trial": 197, "trialdata": {"rt": -1000, "trial_type": "single-audio", "word": "parsley", "stimulus": "/static/audio/wordpool/PARSLEY.wav", "conditions": [24, 1600, "a", 12000], "internal_node_id": "0.0-143.0", "trial": 5, "time_elapsed": 961038, "serialpos": 12, "key_press": -1, "wordID": 1015, "type": "PRES_AUD", "trial_index": 197}, "uniqueid": "MTK3428:3YT88D1N0952AMRDWER5HDXLRAX3K1", "dateTime": 1520535864123}, {"current_trial": 198, "trialdata": {"rt": -1000, "trial_type": "single-audio", "word": "cabbage", "stimulus": "/static/audio/wordpool/CABBAGE.wav", "conditions": [24, 1600, "a", 12000], "internal_node_id": "0.0-144.0", "trial": 5, "time_elapsed": 963659, "serialpos": 13, "key_press": -1, "wordID": 209, "type": "PRES_AUD", "trial_index": 198}, "uniqueid": "MTK3428:3YT88D1N0952AMRDWER5HDXLRAX3K1", "dateTime": 1520535866744}, {"current_trial": 199, "trialdata": {"rt": -1000, "trial_type": "single-audio", "word": "ozone", "stimulus": "/static/audio/wordpool/OZONE.wav", "conditions": [24, 1600, "a", 12000], "internal_node_id": "0.0-145.0", "trial": 5, "time_elapsed": 966199, "serialpos": 14, "key_press": -1, "wordID": 995, "type": "PRES_AUD", "trial_index": 199}, "uniqueid": "MTK3428:3YT88D1N0952AMRDWER5HDXLRAX3K1", "dateTime": 1520535869284}, {"current_trial": 200, "trialdata": {"rt": -1000, "trial_type": "single-audio", "word": "forest", "stimulus": "/static/audio/wordpool/FOREST.wav", "conditions": [24, 1600, "a", 12000], "internal_node_id": "0.0-146.0", "trial": 5, "time_elapsed": 968619, "serialpos": 15, "key_press": -1, "wordID": 592, "type": "PRES_AUD", "trial_index": 200}, "uniqueid": "MTK3428:3YT88D1N0952AMRDWER5HDXLRAX3K1", "dateTime": 1520535871703}, {"current_trial": 201, "trialdata": {"rt": -1000, "trial_type": "single-audio", "word": "item", "stimulus": "/static/audio/wordpool/ITEM.wav", "conditions": [24, 1600, "a", 12000], "internal_node_id": "0.0-147.0", "trial": 5, "time_elapsed": 971169, "serialpos": 16, "key_press": -1, "wordID": 745, "type": "PRES_AUD", "trial_index": 201}, "uniqueid": "MTK3428:3YT88D1N0952AMRDWER5HDXLRAX3K1", "dateTime": 1520535874253}, {"current_trial": 202, "trialdata": {"rt": -1000, "trial_type": "single-audio", "word": "turnip", "stimulus": "/static/audio/wordpool/TURNIP.wav", "conditions": [24, 1600, "a", 12000], "internal_node_id": "0.0-148.0", "trial": 5, "time_elapsed": 973969, "serialpos": 17, "key_press": -1, "wordID": 1520, "type": "PRES_AUD", "trial_index": 202}, "uniqueid": "MTK3428:3YT88D1N0952AMRDWER5HDXLRAX3K1", "dateTime": 1520535877053}, {"current_trial": 203, "trialdata": {"rt": -1000, "trial_type": "single-audio", "word": "cowboy", "stimulus": "/static/audio/wordpool/COWBOY.wav", "conditions": [24, 1600, "a", 12000], "internal_node_id": "0.0-149.0", "trial": 5, "time_elapsed": 976559, "serialpos": 18, "key_press": -1, "wordID": 394, "type": "PRES_AUD", "trial_index": 203}, "uniqueid": "MTK3428:3YT88D1N0952AMRDWER5HDXLRAX3K1", "dateTime": 1520535879643}, {"current_trial": 204, "trialdata": {"rt": -1000, "trial_type": "single-audio", "word": "bureau", "stimulus": "/static/audio/wordpool/BUREAU.wav", "conditions": [24, 1600, "a", 12000], "internal_node_id": "0.0-150.0", "trial": 5, "time_elapsed": 978969, "serialpos": 19, "key_press": -1, "wordID": 198, "type": "PRES_AUD", "trial_index": 204}, "uniqueid": "MTK3428:3YT88D1N0952AMRDWER5HDXLRAX3K1", "dateTime": 1520535882054}, {"current_trial": 205, "trialdata": {"rt": -1000, "trial_type": "single-audio", "word": "stamp", "stimulus": "/static/audio/wordpool/STAMP.wav", "conditions": [24, 1600, "a", 12000], "internal_node_id": "0.0-151.0", "trial": 5, "time_elapsed": 981469, "serialpos": 20, "key_press": -1, "wordID": 1369, "type": "PRES_AUD", "trial_index": 205}, "uniqueid": "MTK3428:3YT88D1N0952AMRDWER5HDXLRAX3K1", "dateTime": 1520535884553}, {"current_trial": 206, "trialdata": {"rt": -1000, "trial_type": "single-audio", "word": "silk", "stimulus": "/static/audio/wordpool/SILK.wav", "conditions": [24, 1600, "a", 12000], "internal_node_id": "0.0-152.0", "trial": 5, "time_elapsed": 984109, "serialpos": 21, "key_press": -1, "wordID": 1306, "type": "PRES_AUD", "trial_index": 206}, "uniqueid": "MTK3428:3YT88D1N0952AMRDWER5HDXLRAX3K1", "dateTime": 1520535887193}, {"current_trial": 207, "trialdata": {"rt": -1000, "trial_type": "single-audio", "word": "lace", "stimulus": "/static/audio/wordpool/LACE.wav", "conditions": [24, 1600, "a", 12000], "internal_node_id": "0.0-153.0", "trial": 5, "time_elapsed": 986571, "serialpos": 22, "key_press": -1, "wordID": 791, "type": "PRES_AUD", "trial_index": 207}, "uniqueid": "MTK3428:3YT88D1N0952AMRDWER5HDXLRAX3K1", "dateTime": 1520535889655}, {"current_trial": 208, "trialdata": {"rt": -1000, "trial_type": "single-audio", "word": "turtle", "stimulus": "/static/audio/wordpool/TURTLE.wav", "conditions": [24, 1600, "a", 12000], "internal_node_id": "0.0-154.0", "trial": 5, "time_elapsed": 989238, "serialpos": 23, "key_press": -1, "wordID": 1521, "type": "PRES_AUD", "trial_index": 208}, "uniqueid": "MTK3428:3YT88D1N0952AMRDWER5HDXLRAX3K1", "dateTime": 1520535892323}, {"current_trial": 209, "trialdata": {"rt": -1, "trial_type": "single-stim", "stimulus": "", "internal_node_id": "0.0-155.0-0.0", "time_elapsed": 990478, "key_press": -1, "type": "PRE_RECALL_DELAY", "trial_index": 209}, "uniqueid": "MTK3428:3YT88D1N0952AMRDWER5HDXLRAX3K1", "dateTime": 1520535893563}, {"current_trial": 210, "trialdata": {"rt": -1000, "trial_type": "single-audio", "stimulus": "/static/audio/400Hz.wav", "internal_node_id": "0.0-156.0", "time_elapsed": 991007, "key_press": -1, "type": "PRE_RECALL_ALERT", "trial_index": 210}, "uniqueid": "MTK3428:3YT88D1N0952AMRDWER5HDXLRAX3K1", "dateTime": 1520535894091}, {"current_trial": 211, "trialdata": {"rt": [3329, 4954, 6265, 9025, 14969, 20185, 23273, 27730, 28090, 29778, 31617, 34737, 41449, 44513, 49026, 49193, 55881], "recwords": ["turtle", "lace", "asia", "europe", "stamp", "turnip", "cowboy", "ozone", "", "forest", "beach", "drill", "parsley", "asia", "footba", "", "sandwich"], "key_times": [1762, 2066, 2346, 2642, 2850, 3066, 3329, 3858, 4058, 4410, 4722, 4954, 5298, 5610, 5850, 6042, 6265, 7267, 7986, 8226, 8442, 8634, 8858, 9025, 13163, 13418, 13610, 14026, 14370, 14969, 17796, 18098, 18386, 19338, 19626, 19859, 20185, 20658, 20938, 21530, 22099, 22538, 23090, 23273, 25659, 26322, 26674, 27010, 27266, 27730, 28090, 28378, 28578, 28810, 28946, 29226, 29514, 29778, 30250, 30450, 30602, 30978, 31225, 31617, 33267, 33698, 34010, 34282, 34410, 34737, 37651, 37946, 38330, 39042, 39625, 39802, 40034, 41449, 43658, 43930, 44146, 44314, 44513, 46698, 47041, 47170, 47362, 47618, 48266, 48506, 48794, 49026, 49193, 52827, 52985, 53810, 54162, 54482, 54842, 55154, 55297, 55881, 58555, 58817, 59098, 59434, 59586, 59961], "trial_type": "free-recall", "conditions": [24, 1600, "a", 12000], "internal_node_id": "0.0-157.0-0.0", "key_presses": [84, 85, 82, 84, 76, 69, 13, 76, 65, 67, 69, 13, 65, 83, 73, 65, 13, 69, 85, 82, 79, 80, 69, 13, 83, 84, 65, 77, 80, 13, 84, 85, 82, 78, 73, 80, 13, 67, 79, 87, 66, 79, 89, 13, 79, 90, 79, 78, 69, 13, 32, 70, 79, 82, 69, 83, 84, 13, 66, 69, 65, 67, 72, 13, 68, 82, 73, 76, 76, 13, 80, 65, 82, 83, 76, 69, 89, 13, 65, 83, 73, 65, 13, 70, 79, 79, 84, 78, 8, 66, 65, 186, 186, 83, 65, 78, 68, 87, 73, 67, 72, 13, 80, 79, 73, 83, 79, 78], "trial": 5, "time_elapsed": 1051019, "type": "FREE_RECALL", "trial_index": 211}, "uniqueid": "MTK3428:3YT88D1N0952AMRDWER5HDXLRAX3K1", "dateTime": 1520535954111}, {"current_trial": 212, "trialdata": {"rt": 405, "trial_type": "text", "internal_node_id": "0.0-158.0", "time_elapsed": 1053452, "key_press": 71, "type": "INSTRUCTIONS", "trial_index": 212}, "uniqueid": "MTK3428:3YT88D1N0952AMRDWER5HDXLRAX3K1", "dateTime": 1520535956536}, {"current_trial": 213, "trialdata": {"rt": [2835, 6371, 9707, 11883, 15251, 18307, 21963], "trial_type": "math-distractor", "key_times": [2669, 2835, 5964, 6188, 6371, 9340, 9532, 9707, 11380, 11724, 11883, 14821, 15068, 15251, 18156, 18307, 21316, 21732, 21963], "responses": ["7", "13", "23", "15", "13", "5", "15"], "num2": [4, 7, 9, 1, 4, 1, 5, 3], "num3": [2, 1, 5, 7, 7, 2, 9, 2], "conditions": [24, 800, "a", 24000], "internal_node_id": "0.0-159.0", "key_presses": [55, 13, 49, 51, 13, 50, 51, 13, 49, 53, 13, 49, 51, 13, 53, 13, 49, 53, 13], "trial": 6, "time_elapsed": 1079501, "type": "DISTRACTOR", "trial_index": 213, "num1": [1, 5, 8, 7, 1, 1, 4, 1]}, "uniqueid": "MTK3428:3YT88D1N0952AMRDWER5HDXLRAX3K1", "dateTime": 1520535982585}, {"current_trial": 214, "trialdata": {"rt": -1, "trial_type": "single-stim", "stimulus": "<p id=\"stim\">10</p>", "internal_node_id": "0.0-160.0-0.0", "time_elapsed": 1082518, "key_press": -1, "trial_index": 214}, "uniqueid": "MTK3428:3YT88D1N0952AMRDWER5HDXLRAX3K1", "dateTime": 1520535985602}, {"current_trial": 215, "trialdata": {"rt": -1, "trial_type": "single-stim", "stimulus": "<p id=\"stim\">9</p>", "internal_node_id": "0.0-160.0-1.0", "time_elapsed": 1083509, "key_press": -1, "trial_index": 215}, "uniqueid": "MTK3428:3YT88D1N0952AMRDWER5HDXLRAX3K1", "dateTime": 1520535986594}, {"current_trial": 216, "trialdata": {"rt": -1, "trial_type": "single-stim", "stimulus": "<p id=\"stim\">8</p>", "internal_node_id": "0.0-160.0-2.0", "time_elapsed": 1084527, "key_press": -1, "trial_index": 216}, "uniqueid": "MTK3428:3YT88D1N0952AMRDWER5HDXLRAX3K1", "dateTime": 1520535987612}, {"current_trial": 217, "trialdata": {"rt": -1, "trial_type": "single-stim", "stimulus": "<p id=\"stim\">7</p>", "internal_node_id": "0.0-160.0-3.0", "time_elapsed": 1085505, "key_press": -1, "trial_index": 217}, "uniqueid": "MTK3428:3YT88D1N0952AMRDWER5HDXLRAX3K1", "dateTime": 1520535988589}, {"current_trial": 218, "trialdata": {"rt": -1, "trial_type": "single-stim", "stimulus": "<p id=\"stim\">6</p>", "internal_node_id": "0.0-160.0-4.0", "time_elapsed": 1086518, "key_press": -1, "trial_index": 218}, "uniqueid": "MTK3428:3YT88D1N0952AMRDWER5HDXLRAX3K1", "dateTime": 1520535989603}, {"current_trial": 219, "trialdata": {"rt": -1, "trial_type": "single-stim", "stimulus": "<p id=\"stim\">5</p>", "internal_node_id": "0.0-160.0-5.0", "time_elapsed": 1087518, "key_press": -1, "trial_index": 219}, "uniqueid": "MTK3428:3YT88D1N0952AMRDWER5HDXLRAX3K1", "dateTime": 1520535990602}, {"current_trial": 220, "trialdata": {"rt": -1, "trial_type": "single-stim", "stimulus": "<p id=\"stim\">4</p>", "internal_node_id": "0.0-160.0-6.0", "time_elapsed": 1088517, "key_press": -1, "trial_index": 220}, "uniqueid": "MTK3428:3YT88D1N0952AMRDWER5HDXLRAX3K1", "dateTime": 1520535991602}, {"current_trial": 221, "trialdata": {"rt": -1, "trial_type": "single-stim", "stimulus": "<p id=\"stim\">3</p>", "internal_node_id": "0.0-160.0-7.0", "time_elapsed": 1089519, "key_press": -1, "trial_index": 221}, "uniqueid": "MTK3428:3YT88D1N0952AMRDWER5HDXLRAX3K1", "dateTime": 1520535992603}, {"current_trial": 222, "trialdata": {"rt": -1, "trial_type": "single-stim", "stimulus": "<p id=\"stim\">2</p>", "internal_node_id": "0.0-160.0-8.0", "time_elapsed": 1090519, "key_press": -1, "trial_index": 222}, "uniqueid": "MTK3428:3YT88D1N0952AMRDWER5HDXLRAX3K1", "dateTime": 1520535993603}, {"current_trial": 223, "trialdata": {"rt": -1, "trial_type": "single-stim", "stimulus": "<p id=\"stim\">1</p>", "internal_node_id": "0.0-160.0-9.0", "time_elapsed": 1091528, "key_press": -1, "trial_index": 223}, "uniqueid": "MTK3428:3YT88D1N0952AMRDWER5HDXLRAX3K1", "dateTime": 1520535994612}, {"current_trial": 224, "trialdata": {"rt": -1, "trial_type": "single-stim", "stimulus": "<p id=\"stim\">+</p>", "internal_node_id": "0.0-161.0-0.0", "time_elapsed": 1093038, "key_press": -1, "type": "FIXATION", "trial_index": 224}, "uniqueid": "MTK3428:3YT88D1N0952AMRDWER5HDXLRAX3K1", "dateTime": 1520535996123}, {"current_trial": 225, "trialdata": {"rt": -1000, "trial_type": "single-audio", "word": "fox", "stimulus": "/static/audio/wordpool/FOX.wav", "conditions": [24, 800, "a", 24000], "internal_node_id": "0.0-162.0", "trial": 6, "time_elapsed": 1094896, "serialpos": 0, "key_press": -1, "wordID": 597, "type": "PRES_AUD", "trial_index": 225}, "uniqueid": "MTK3428:3YT88D1N0952AMRDWER5HDXLRAX3K1", "dateTime": 1520535997981}, {"current_trial": 226, "trialdata": {"rt": -1000, "trial_type": "single-audio", "word": "handbag", "stimulus": "/static/audio/wordpool/HANDBAG.wav", "conditions": [24, 800, "a", 24000], "internal_node_id": "0.0-163.0", "trial": 6, "time_elapsed": 1096528, "serialpos": 1, "key_press": -1, "wordID": 683, "type": "PRES_AUD", "trial_index": 226}, "uniqueid": "MTK3428:3YT88D1N0952AMRDWER5HDXLRAX3K1", "dateTime": 1520535999612}, {"current_trial": 227, "trialdata": {"rt": -1000, "trial_type": "single-audio", "word": "necklace", "stimulus": "/static/audio/wordpool/NECKLACE.wav", "conditions": [24, 800, "a", 24000], "internal_node_id": "0.0-164.0", "trial": 6, "time_elapsed": 1098151, "serialpos": 2, "key_press": -1, "wordID": 939, "type": "PRES_AUD", "trial_index": 227}, "uniqueid": "MTK3428:3YT88D1N0952AMRDWER5HDXLRAX3K1", "dateTime": 1520536001236}, {"current_trial": 228, "trialdata": {"rt": -1000, "trial_type": "single-audio", "word": "whiskers", "stimulus": "/static/audio/wordpool/WHISKERS.wav", "conditions": [24, 800, "a", 24000], "internal_node_id": "0.0-165.0", "trial": 6, "time_elapsed": 1099997, "serialpos": 3, "key_press": -1, "wordID": 1604, "type": "PRES_AUD", "trial_index": 228}, "uniqueid": "MTK3428:3YT88D1N0952AMRDWER5HDXLRAX3K1", "dateTime": 1520536003082}, {"current_trial": 229, "trialdata": {"rt": -1000, "trial_type": "single-audio", "word": "lion", "stimulus": "/static/audio/wordpool/LION.wav", "conditions": [24, 800, "a", 24000], "internal_node_id": "0.0-166.0", "trial": 6, "time_elapsed": 1101759, "serialpos": 4, "key_press": -1, "wordID": 826, "type": "PRES_AUD", "trial_index": 229}, "uniqueid": "MTK3428:3YT88D1N0952AMRDWER5HDXLRAX3K1", "dateTime": 1520536004843}, {"current_trial": 230, "trialdata": {"rt": -1000, "trial_type": "single-audio", "word": "agent", "stimulus": "/static/audio/wordpool/AGENT.wav", "conditions": [24, 800, "a", 24000], "internal_node_id": "0.0-167.0", "trial": 6, "time_elapsed": 1103393, "serialpos": 5, "key_press": -1, "wordID": 9, "type": "PRES_AUD", "trial_index": 230}, "uniqueid": "MTK3428:3YT88D1N0952AMRDWER5HDXLRAX3K1", "dateTime": 1520536006478}, {"current_trial": 231, "trialdata": {"rt": -1000, "trial_type": "single-audio", "word": "fragrance", "stimulus": "/static/audio/wordpool/FRAGRANCE.wav", "conditions": [24, 800, "a", 24000], "internal_node_id": "0.0-168.0", "trial": 6, "time_elapsed": 1105327, "serialpos": 6, "key_press": -1, "wordID": 598, "type": "PRES_AUD", "trial_index": 231}, "uniqueid": "MTK3428:3YT88D1N0952AMRDWER5HDXLRAX3K1", "dateTime": 1520536008411}, {"current_trial": 232, "trialdata": {"rt": -1000, "trial_type": "single-audio", "word": "dandruff", "stimulus": "/static/audio/wordpool/DANDRUFF.wav", "conditions": [24, 800, "a", 24000], "internal_node_id": "0.0-169.0", "trial": 6, "time_elapsed": 1107123, "serialpos": 7, "key_press": -1, "wordID": 438, "type": "PRES_AUD", "trial_index": 232}, "uniqueid": "MTK3428:3YT88D1N0952AMRDWER5HDXLRAX3K1", "dateTime": 1520536010208}, {"current_trial": 233, "trialdata": {"rt": -1000, "trial_type": "single-audio", "word": "badge", "stimulus": "/static/audio/wordpool/BADGE.wav", "conditions": [24, 800, "a", 24000], "internal_node_id": "0.0-170.0", "trial": 6, "time_elapsed": 1109044, "serialpos": 8, "key_press": -1, "wordID": 67, "type": "PRES_AUD", "trial_index": 233}, "uniqueid": "MTK3428:3YT88D1N0952AMRDWER5HDXLRAX3K1", "dateTime": 1520536012128}, {"current_trial": 234, "trialdata": {"rt": -1000, "trial_type": "single-audio", "word": "award", "stimulus": "/static/audio/wordpool/AWARD.wav", "conditions": [24, 800, "a", 24000], "internal_node_id": "0.0-171.0", "trial": 6, "time_elapsed": 1111008, "serialpos": 9, "key_press": -1, "wordID": 62, "type": "PRES_AUD", "trial_index": 234}, "uniqueid": "MTK3428:3YT88D1N0952AMRDWER5HDXLRAX3K1", "dateTime": 1520536014093}, {"current_trial": 235, "trialdata": {"rt": -1000, "trial_type": "single-audio", "word": "perfume", "stimulus": "/static/audio/wordpool/PERFUME.wav", "conditions": [24, 800, "a", 24000], "internal_node_id": "0.0-172.0", "trial": 6, "time_elapsed": 1112958, "serialpos": 10, "key_press": -1, "wordID": 1048, "type": "PRES_AUD", "trial_index": 235}, "uniqueid": "MTK3428:3YT88D1N0952AMRDWER5HDXLRAX3K1", "dateTime": 1520536016043}, {"current_trial": 236, "trialdata": {"rt": -1000, "trial_type": "single-audio", "word": "tribe", "stimulus": "/static/audio/wordpool/TRIBE.wav", "conditions": [24, 800, "a", 24000], "internal_node_id": "0.0-173.0", "trial": 6, "time_elapsed": 1114938, "serialpos": 11, "key_press": -1, "wordID": 1504, "type": "PRES_AUD", "trial_index": 236}, "uniqueid": "MTK3428:3YT88D1N0952AMRDWER5HDXLRAX3K1", "dateTime": 1520536018023}, {"current_trial": 237, "trialdata": {"rt": -1000, "trial_type": "single-audio", "word": "girl", "stimulus": "/static/audio/wordpool/GIRL.wav", "conditions": [24, 800, "a", 24000], "internal_node_id": "0.0-174.0", "trial": 6, "time_elapsed": 1116718, "serialpos": 12, "key_press": -1, "wordID": 636, "type": "PRES_AUD", "trial_index": 237}, "uniqueid": "MTK3428:3YT88D1N0952AMRDWER5HDXLRAX3K1", "dateTime": 1520536019802}, {"current_trial": 238, "trialdata": {"rt": -1000, "trial_type": "single-audio", "word": "robber", "stimulus": "/static/audio/wordpool/ROBBER.wav", "conditions": [24, 800, "a", 24000], "internal_node_id": "0.0-175.0", "trial": 6, "time_elapsed": 1118437, "serialpos": 13, "key_press": -1, "wordID": 1196, "type": "PRES_AUD", "trial_index": 238}, "uniqueid": "MTK3428:3YT88D1N0952AMRDWER5HDXLRAX3K1", "dateTime": 1520536021522}, {"current_trial": 239, "trialdata": {"rt": -1000, "trial_type": "single-audio", "word": "slug", "stimulus": "/static/audio/wordpool/SLUG.wav", "conditions": [24, 800, "a", 24000], "internal_node_id": "0.0-176.0", "trial": 6, "time_elapsed": 1120107, "serialpos": 14, "key_press": -1, "wordID": 1328, "type": "PRES_AUD", "trial_index": 239}, "uniqueid": "MTK3428:3YT88D1N0952AMRDWER5HDXLRAX3K1", "dateTime": 1520536023192}, {"current_trial": 240, "trialdata": {"rt": -1000, "trial_type": "single-audio", "word": "canal", "stimulus": "/static/audio/wordpool/CANAL.wav", "conditions": [24, 800, "a", 24000], "internal_node_id": "0.0-177.0", "trial": 6, "time_elapsed": 1121821, "serialpos": 15, "key_press": -1, "wordID": 225, "type": "PRES_AUD", "trial_index": 240}, "uniqueid": "MTK3428:3YT88D1N0952AMRDWER5HDXLRAX3K1", "dateTime": 1520536024905}, {"current_tr