{"assignmentId": "3ZY8KE4ISKA8XYRRTTH8WU1DGBQVQB", "workerId": "MTK3084", "questiondata": {"origin": "United States", "strat-rehearsal": "75", "marital": "Married/Domestic Partnership", "education": "Bachelor's degree", "ethnicity": "Not Hispanic", "color_depth": 24, "distracted": "No", "wrote-notes": "No", "strat-other": "", "screen_width": 1366, "avail_screen_width": 1366, "avail_screen_height": 728, "strat-image": "65", "language": "english", "gender": "Female", "age": "43", "gender_other": "", "race": ["White"], "strat-categorize": "94", "pixel_depth": 24, "strat-spatial": "0", "strat-story": "0", "race_other": "", "screen_height": 768}, "bonus": 0, "hitId": "3DW3BNF1GHP04AT1HXV6LJKT2HJV88", "counterbalance": 3, "useragent": "Mozilla/5.0 (Windows NT 10.0; Win64; x64) AppleWebKit/537.36 (KHTML, like Gecko) Chrome/64.0.3282.186 Safari/537.36", "eventdata": [{"eventtype": "initialized", "interval": 0, "value": null, "timestamp": 1520012022119}, {"eventtype": "window_resize", "interval": 0, "value": [1366, 721], "timestamp": 1520012022119}, {"eventtype": "focus", "interval": 116744, "value": "off", "timestamp": 1520012138863}, {"eventtype": "focus", "interval": 4358, "value": "on", "timestamp": 1520012143221}, {"eventtype": "focus", "interval": 11874, "value": "off", "timestamp": 1520012155095}, {"eventtype": "focus", "interval": 2, "value": "on", "timestamp": 1520012155097}, {"eventtype": "focus", "interval": 14215, "value": "off", "timestamp": 1520012169312}, {"eventtype": "focus", "interval": 2, "value": "on", "timestamp": 1520012169314}, {"eventtype": "focus", "interval": 10256, "value": "off", "timestamp": 1520012179570}, {"eventtype": "focus", "interval": 5502, "value": "on", "timestamp": 1520012185072}, {"eventtype": "focus", "interval": 20274, "value": "off", "timestamp": 1520012205346}, {"eventtype": "focus", "interval": 2, "value": "on", "timestamp": 1520012205348}, {"eventtype": "focus", "interval": 33698, "value": "off", "timestamp": 1520012239046}, {"eventtype": "focus", "interval": 1, "value": "on", "timestamp": 1520012239047}, {"eventtype": "focus", "interval": 17293, "value": "off", "timestamp": 1520012256340}, {"eventtype": "focus", "interval": 2475, "value": "on", "timestamp": 1520012258815}, {"eventtype": "window_resize", "interval": 1199, "value": [1366, 672], "timestamp": 1520012260014}, {"eventtype": "window_resize", "interval": 4868, "value": [1366, 628], "timestamp": 1520012264882}, {"eventtype": "focus", "interval": 3573, "value": "off", "timestamp": 1520012268455}, {"eventtype": "window_resize", "interval": 5451, "value": [1366, 677], "timestamp": 1520012273906}, {"eventtype": "focus", "interval": 21170, "value": "on", "timestamp": 1520012295076}, {"eventtype": "focus", "interval": 371666, "value": "off", "timestamp": 1520012666742}, {"eventtype": "focus", "interval": 42167, "value": "on", "timestamp": 1520012708909}, {"eventtype": "focus", "interval": 1469822, "value": "off", "timestamp": 1520014178731}, {"eventtype": "focus", "interval": 129307, "value": "on", "timestamp": 1520014308038}, {"eventtype": "focus", "interval": 15798, "value": "off", "timestamp": 1520014323836}, {"eventtype": "focus", "interval": 11750, "value": "on", "timestamp": 1520014335586}, {"eventtype": "focus", "interval": 11948, "value": "off", "timestamp": 1520014347534}, {"eventtype": "focus", "interval": 4861, "value": "on", "timestamp": 1520014352395}, {"eventtype": "focus", "interval": 436862, "value": "off", "timestamp": 1520014789257}, {"eventtype": "focus", "interval": 5002, "value": "on", "timestamp": 1520014794259}], "data": [{"current_trial": 0, "trialdata": {"rt": 24270, "trial_type": "text", "internal_node_id": "0.0-0.0", "time_elapsed": 24277, "key_press": 77, "type": "INSTRUCTIONS", "trial_index": 0}, "uniqueid": "MTK3084:3ZY8KE4ISKA8XYRRTTH8WU1DGBQVQB", "dateTime": 1520012060926}, {"current_trial": 1, "trialdata": {"rt": 28033, "trial_type": "text", "internal_node_id": "0.0-1.0", "time_elapsed": 52313, "key_press": 32, "type": "INSTRUCTIONS", "trial_index": 1}, "uniqueid": "MTK3084:3ZY8KE4ISKA8XYRRTTH8WU1DGBQVQB", "dateTime": 1520012088962}, {"current_trial": 2, "trialdata": {"rt": [61687, 77163, 114285, 143046, 212137], "trial_type": "audio-test", "responses": ["cup", "up", "", "nothing", "ocean"], "internal_node_id": "0.0-2.0", "time_elapsed": 264467, "type": "AUDIO_TEST", "trial_index": 2}, "uniqueid": "MTK3084:3ZY8KE4ISKA8XYRRTTH8WU1DGBQVQB", "dateTime": 1520012301116}, {"current_trial": 3, "trialdata": {"rt": [15984], "trial_type": "audio-test", "responses": ["crystal"], "internal_node_id": "0.0-3.0", "time_elapsed": 280460, "type": "AUDIO_TEST", "trial_index": 3}, "uniqueid": "MTK3084:3ZY8KE4ISKA8XYRRTTH8WU1DGBQVQB", "dateTime": 1520012317109}, {"current_trial": 4, "trialdata": {"rt": [11661], "trial_type": "audio-test", "responses": ["spice"], "internal_node_id": "0.0-4.0", "time_elapsed": 292131, "type": "AUDIO_TEST", "trial_index": 4}, "uniqueid": "MTK3084:3ZY8KE4ISKA8XYRRTTH8WU1DGBQVQB", "dateTime": 1520012328780}, {"current_trial": 5, "trialdata": {"rt": 29003, "trial_type": "survey-text", "responses": "{\"Q0\":\"11\",\"Q1\":\"6\",\"Q2\":\"5\"}", "internal_node_id": "0.0-5.0", "time_elapsed": 321889, "type": "SLEEP_SURVEY", "trial_index": 5}, "uniqueid": "MTK3084:3ZY8KE4ISKA8XYRRTTH8WU1DGBQVQB", "dateTime": 1520012358538}, {"current_trial": 6, "trialdata": {"rt": 57911, "trial_type": "text", "internal_node_id": "0.0-6.0", "time_elapsed": 380803, "key_press": 32, "type": "INSTRUCTIONS", "trial_index": 6}, "uniqueid": "MTK3084:3ZY8KE4ISKA8XYRRTTH8WU1DGBQVQB", "dateTime": 1520012417453}, {"current_trial": 7, "trialdata": {"rt": 68947, "trial_type": "text", "internal_node_id": "0.0-7.0", "time_elapsed": 450253, "key_press": 32, "type": "INSTRUCTIONS", "trial_index": 7}, "uniqueid": "MTK3084:3ZY8KE4ISKA8XYRRTTH8WU1DGBQVQB", "dateTime": 1520012486902}, {"current_trial": 8, "trialdata": {"rt": 9199, "trial_type": "text", "internal_node_id": "0.0-8.0", "time_elapsed": 459955, "key_press": 32, "type": "INSTRUCTIONS", "trial_index": 8}, "uniqueid": "MTK3084:3ZY8KE4ISKA8XYRRTTH8WU1DGBQVQB", "dateTime": 1520012496604}, {"current_trial": 9, "trialdata": {"rt": [14897], "trial_type": "math-distractor", "key_times": [10664, 10945, 14897], "responses": ["21"], "num2": [6, 7], "num3": [9, 4], "conditions": [18, 1200, "a", 18000], "internal_node_id": "0.0-9.0", "key_presses": [98, 97, 13], "trial": 0, "time_elapsed": 478975, "type": "DISTRACTOR", "trial_index": 9, "num1": [6, 8]}, "uniqueid": "MTK3084:3ZY8KE4ISKA8XYRRTTH8WU1DGBQVQB", "dateTime": 1520012515624}, {"current_trial": 10, "trialdata": {"rt": -1, "trial_type": "single-stim", "stimulus": "<p id=\"stim\">10</p>", "internal_node_id": "0.0-10.0-0.0", "time_elapsed": 481980, "key_press": -1, "trial_index": 10}, "uniqueid": "MTK3084:3ZY8KE4ISKA8XYRRTTH8WU1DGBQVQB", "dateTime": 1520012518629}, {"current_trial": 11, "trialdata": {"rt": -1, "trial_type": "single-stim", "stimulus": "<p id=\"stim\">9</p>", "internal_node_id": "0.0-10.0-1.0", "time_elapsed": 482982, "key_press": -1, "trial_index": 11}, "uniqueid": "MTK3084:3ZY8KE4ISKA8XYRRTTH8WU1DGBQVQB", "dateTime": 1520012519632}, {"current_trial": 12, "trialdata": {"rt": -1, "trial_type": "single-stim", "stimulus": "<p id=\"stim\">8</p>", "internal_node_id": "0.0-10.0-2.0", "time_elapsed": 483985, "key_press": -1, "trial_index": 12}, "uniqueid": "MTK3084:3ZY8KE4ISKA8XYRRTTH8WU1DGBQVQB", "dateTime": 1520012520634}, {"current_trial": 13, "trialdata": {"rt": -1, "trial_type": "single-stim", "stimulus": "<p id=\"stim\">7</p>", "internal_node_id": "0.0-10.0-3.0", "time_elapsed": 484988, "key_press": -1, "trial_index": 13}, "uniqueid": "MTK3084:3ZY8KE4ISKA8XYRRTTH8WU1DGBQVQB", "dateTime": 1520012521637}, {"current_trial": 14, "trialdata": {"rt": -1, "trial_type": "single-stim", "stimulus": "<p id=\"stim\">6</p>", "internal_node_id": "0.0-10.0-4.0", "time_elapsed": 485990, "key_press": -1, "trial_index": 14}, "uniqueid": "MTK3084:3ZY8KE4ISKA8XYRRTTH8WU1DGBQVQB", "dateTime": 1520012522639}, {"current_trial": 15, "trialdata": {"rt": -1, "trial_type": "single-stim", "stimulus": "<p id=\"stim\">5</p>", "internal_node_id": "0.0-10.0-5.0", "time_elapsed": 486992, "key_press": -1, "trial_index": 15}, "uniqueid": "MTK3084:3ZY8KE4ISKA8XYRRTTH8WU1DGBQVQB", "dateTime": 1520012523642}, {"current_trial": 16, "trialdata": {"rt": -1, "trial_type": "single-stim", "stimulus": "<p id=\"stim\">4</p>", "internal_node_id": "0.0-10.0-6.0", "time_elapsed": 487995, "key_press": -1, "trial_index": 16}, "uniqueid": "MTK3084:3ZY8KE4ISKA8XYRRTTH8WU1DGBQVQB", "dateTime": 1520012524645}, {"current_trial": 17, "trialdata": {"rt": -1, "trial_type": "single-stim", "stimulus": "<p id=\"stim\">3</p>", "internal_node_id": "0.0-10.0-7.0", "time_elapsed": 489000, "key_press": -1, "trial_index": 17}, "uniqueid": "MTK3084:3ZY8KE4ISKA8XYRRTTH8WU1DGBQVQB", "dateTime": 1520012525649}, {"current_trial": 18, "trialdata": {"rt": -1, "trial_type": "single-stim", "stimulus": "<p id=\"stim\">2</p>", "internal_node_id": "0.0-10.0-8.0", "time_elapsed": 490004, "key_press": -1, "trial_index": 18}, "uniqueid": "MTK3084:3ZY8KE4ISKA8XYRRTTH8WU1DGBQVQB", "dateTime": 1520012526653}, {"current_trial": 19, "trialdata": {"rt": -1, "trial_type": "single-stim", "stimulus": "<p id=\"stim\">1</p>", "internal_node_id": "0.0-10.0-9.0", "time_elapsed": 491006, "key_press": -1, "trial_index": 19}, "uniqueid": "MTK3084:3ZY8KE4ISKA8XYRRTTH8WU1DGBQVQB", "dateTime": 1520012527655}, {"current_trial": 20, "trialdata": {"rt": -1, "trial_type": "single-stim", "stimulus": "<p id=\"stim\">+</p>", "internal_node_id": "0.0-11.0-0.0", "time_elapsed": 492508, "key_press": -1, "type": "FIXATION", "trial_index": 20}, "uniqueid": "MTK3084:3ZY8KE4ISKA8XYRRTTH8WU1DGBQVQB", "dateTime": 1520012529157}, {"current_trial": 21, "trialdata": {"rt": -1000, "trial_type": "single-audio", "word": "lumber", "stimulus": "/static/audio/wordpool/LUMBER.wav", "conditions": [18, 1200, "a", 18000], "internal_node_id": "0.0-12.0", "trial": 0, "time_elapsed": 494732, "serialpos": 0, "key_press": -1, "wordID": 847, "type": "PRES_AUD", "trial_index": 21}, "uniqueid": "MTK3084:3ZY8KE4ISKA8XYRRTTH8WU1DGBQVQB", "dateTime": 1520012531382}, {"current_trial": 22, "trialdata": {"rt": -1000, "trial_type": "single-audio", "word": "sheriff", "stimulus": "/static/audio/wordpool/SHERIFF.wav", "conditions": [18, 1200, "a", 18000], "internal_node_id": "0.0-13.0", "trial": 0, "time_elapsed": 496910, "serialpos": 1, "key_press": -1, "wordID": 1283, "type": "PRES_AUD", "trial_index": 22}, "uniqueid": "MTK3084:3ZY8KE4ISKA8XYRRTTH8WU1DGBQVQB", "dateTime": 1520012533559}, {"current_trial": 23, "trialdata": {"rt": -1000, "trial_type": "single-audio", "word": "truck", "stimulus": "/static/audio/wordpool/TRUCK.wav", "conditions": [18, 1200, "a", 18000], "internal_node_id": "0.0-14.0", "trial": 0, "time_elapsed": 499298, "serialpos": 2, "key_press": -1, "wordID": 1511, "type": "PRES_AUD", "trial_index": 23}, "uniqueid": "MTK3084:3ZY8KE4ISKA8XYRRTTH8WU1DGBQVQB", "dateTime": 1520012535948}, {"current_trial": 24, "trialdata": {"rt": -1000, "trial_type": "single-audio", "word": "pecan", "stimulus": "/static/audio/wordpool/PECAN.wav", "conditions": [18, 1200, "a", 18000], "internal_node_id": "0.0-15.0", "trial": 0, "time_elapsed": 501473, "serialpos": 3, "key_press": -1, "wordID": 1035, "type": "PRES_AUD", "trial_index": 24}, "uniqueid": "MTK3084:3ZY8KE4ISKA8XYRRTTH8WU1DGBQVQB", "dateTime": 1520012538122}, {"current_trial": 25, "trialdata": {"rt": -1000, "trial_type": "single-audio", "word": "convict", "stimulus": "/static/audio/wordpool/CONVICT.wav", "conditions": [18, 1200, "a", 18000], "internal_node_id": "0.0-16.0", "trial": 0, "time_elapsed": 503816, "serialpos": 4, "key_press": -1, "wordID": 370, "type": "PRES_AUD", "trial_index": 25}, "uniqueid": "MTK3084:3ZY8KE4ISKA8XYRRTTH8WU1DGBQVQB", "dateTime": 1520012540465}, {"current_trial": 26, "trialdata": {"rt": -1000, "trial_type": "single-audio", "word": "lapel", "stimulus": "/static/audio/wordpool/LAPEL.wav", "conditions": [18, 1200, "a", 18000], "internal_node_id": "0.0-17.0", "trial": 0, "time_elapsed": 505947, "serialpos": 5, "key_press": -1, "wordID": 799, "type": "PRES_AUD", "trial_index": 26}, "uniqueid": "MTK3084:3ZY8KE4ISKA8XYRRTTH8WU1DGBQVQB", "dateTime": 1520012542596}, {"current_trial": 27, "trialdata": {"rt": -1000, "trial_type": "single-audio", "word": "napkin", "stimulus": "/static/audio/wordpool/NAPKIN.wav", "conditions": [18, 1200, "a", 18000], "internal_node_id": "0.0-18.0", "trial": 0, "time_elapsed": 508113, "serialpos": 6, "key_press": -1, "wordID": 936, "type": "PRES_AUD", "trial_index": 27}, "uniqueid": "MTK3084:3ZY8KE4ISKA8XYRRTTH8WU1DGBQVQB", "dateTime": 1520012544762}, {"current_trial": 28, "trialdata": {"rt": -1000, "trial_type": "single-audio", "word": "nightgown", "stimulus": "/static/audio/wordpool/NIGHTGOWN.wav", "conditions": [18, 1200, "a", 18000], "internal_node_id": "0.0-19.0", "trial": 0, "time_elapsed": 510512, "serialpos": 7, "key_press": -1, "wordID": 952, "type": "PRES_AUD", "trial_index": 28}, "uniqueid": "MTK3084:3ZY8KE4ISKA8XYRRTTH8WU1DGBQVQB", "dateTime": 1520012547161}, {"current_trial": 29, "trialdata": {"rt": -1000, "trial_type": "single-audio", "word": "drawing", "stimulus": "/static/audio/wordpool/DRAWING.wav", "conditions": [18, 1200, "a", 18000], "internal_node_id": "0.0-20.0", "trial": 0, "time_elapsed": 512884, "serialpos": 8, "key_press": -1, "wordID": 493, "type": "PRES_AUD", "trial_index": 29}, "uniqueid": "MTK3084:3ZY8KE4ISKA8XYRRTTH8WU1DGBQVQB", "dateTime": 1520012549533}, {"current_trial": 30, "trialdata": {"rt": -1000, "trial_type": "single-audio", "word": "pigment", "stimulus": "/static/audio/wordpool/PIGMENT.wav", "conditions": [18, 1200, "a", 18000], "internal_node_id": "0.0-21.0", "trial": 0, "time_elapsed": 515098, "serialpos": 9, "key_press": -1, "wordID": 1065, "type": "PRES_AUD", "trial_index": 30}, "uniqueid": "MTK3084:3ZY8KE4ISKA8XYRRTTH8WU1DGBQVQB", "dateTime": 1520012551747}, {"current_trial": 31, "trialdata": {"rt": -1000, "trial_type": "single-audio", "word": "pudding", "stimulus": "/static/audio/wordpool/PUDDING.wav", "conditions": [18, 1200, "a", 18000], "internal_node_id": "0.0-22.0", "trial": 0, "time_elapsed": 517316, "serialpos": 10, "key_press": -1, "wordID": 1138, "type": "PRES_AUD", "trial_index": 31}, "uniqueid": "MTK3084:3ZY8KE4ISKA8XYRRTTH8WU1DGBQVQB", "dateTime": 1520012553965}, {"current_trial": 32, "trialdata": {"rt": -1000, "trial_type": "single-audio", "word": "girl", "stimulus": "/static/audio/wordpool/GIRL.wav", "conditions": [18, 1200, "a", 18000], "internal_node_id": "0.0-23.0", "trial": 0, "time_elapsed": 519669, "serialpos": 11, "key_press": -1, "wordID": 636, "type": "PRES_AUD", "trial_index": 32}, "uniqueid": "MTK3084:3ZY8KE4ISKA8XYRRTTH8WU1DGBQVQB", "dateTime": 1520012556318}, {"current_trial": 33, "trialdata": {"rt": -1000, "trial_type": "single-audio", "word": "scallop", "stimulus": "/static/audio/wordpool/SCALLOP.wav", "conditions": [18, 1200, "a", 18000], "internal_node_id": "0.0-24.0", "trial": 0, "time_elapsed": 521774, "serialpos": 12, "key_press": -1, "wordID": 1241, "type": "PRES_AUD", "trial_index": 33}, "uniqueid": "MTK3084:3ZY8KE4ISKA8XYRRTTH8WU1DGBQVQB", "dateTime": 1520012558423}, {"current_trial": 34, "trialdata": {"rt": -1000, "trial_type": "single-audio", "word": "scarf", "stimulus": "/static/audio/wordpool/SCARF.wav", "conditions": [18, 1200, "a", 18000], "internal_node_id": "0.0-25.0", "trial": 0, "time_elapsed": 523986, "serialpos": 13, "key_press": -1, "wordID": 1245, "type": "PRES_AUD", "trial_index": 34}, "uniqueid": "MTK3084:3ZY8KE4ISKA8XYRRTTH8WU1DGBQVQB", "dateTime": 1520012560635}, {"current_trial": 35, "trialdata": {"rt": -1000, "trial_type": "single-audio", "word": "record", "stimulus": "/static/audio/wordpool/RECORD.wav", "conditions": [18, 1200, "a", 18000], "internal_node_id": "0.0-26.0", "trial": 0, "time_elapsed": 526232, "serialpos": 14, "key_press": -1, "wordID": 1175, "type": "PRES_AUD", "trial_index": 35}, "uniqueid": "MTK3084:3ZY8KE4ISKA8XYRRTTH8WU1DGBQVQB", "dateTime": 1520012562881}, {"current_trial": 36, "trialdata": {"rt": -1000, "trial_type": "single-audio", "word": "coffee", "stimulus": "/static/audio/wordpool/COFFEE.wav", "conditions": [18, 1200, "a", 18000], "internal_node_id": "0.0-27.0", "trial": 0, "time_elapsed": 528634, "serialpos": 15, "key_press": -1, "wordID": 340, "type": "PRES_AUD", "trial_index": 36}, "uniqueid": "MTK3084:3ZY8KE4ISKA8XYRRTTH8WU1DGBQVQB", "dateTime": 1520012565283}, {"current_trial": 37, "trialdata": {"rt": -1000, "trial_type": "single-audio", "word": "jelly", "stimulus": "/static/audio/wordpool/JELLY.wav", "conditions": [18, 1200, "a", 18000], "internal_node_id": "0.0-28.0", "trial": 0, "time_elapsed": 530735, "serialpos": 16, "key_press": -1, "wordID": 754, "type": "PRES_AUD", "trial_index": 37}, "uniqueid": "MTK3084:3ZY8KE4ISKA8XYRRTTH8WU1DGBQVQB", "dateTime": 1520012567384}, {"current_trial": 38, "trialdata": {"rt": -1000, "trial_type": "single-audio", "word": "stone", "stimulus": "/static/audio/wordpool/STONE.wav", "conditions": [18, 1200, "a", 18000], "internal_node_id": "0.0-29.0", "trial": 0, "time_elapsed": 532969, "serialpos": 17, "key_press": -1, "wordID": 1384, "type": "PRES_AUD", "trial_index": 38}, "uniqueid": "MTK3084:3ZY8KE4ISKA8XYRRTTH8WU1DGBQVQB", "dateTime": 1520012569618}, {"current_trial": 39, "trialdata": {"rt": -1, "trial_type": "single-stim", "stimulus": "", "internal_node_id": "0.0-30.0-0.0", "time_elapsed": 534298, "key_press": -1, "type": "PRE_RECALL_DELAY", "trial_index": 39}, "uniqueid": "MTK3084:3ZY8KE4ISKA8XYRRTTH8WU1DGBQVQB", "dateTime": 1520012570947}, {"current_trial": 40, "trialdata": {"rt": -1000, "trial_type": "single-audio", "stimulus": "/static/audio/400Hz.wav", "internal_node_id": "0.0-31.0", "time_elapsed": 534800, "key_press": -1, "type": "PRE_RECALL_ALERT", "trial_index": 40}, "uniqueid": "MTK3084:3ZY8KE4ISKA8XYRRTTH8WU1DGBQVQB", "dateTime": 1520012571451}, {"current_trial": 41, "trialdata": {"rt": [3388, 7426, 12242, 16154, 19919, 41218], "recwords": ["jelly", "stone", "possy", "number", "nightgown", "sunny"], "key_times": [2159, 2568, 2794, 2938, 3199, 3388, 3629, 5215, 5474, 5762, 6268, 7426, 9529, 9738, 9963, 10161, 11500, 12242, 14172, 14500, 14774, 15008, 15186, 15385, 16154, 17461, 17666, 17839, 17980, 18134, 18424, 18710, 19000, 19261, 19919, 39338, 39524, 39815, 39977, 40288, 41218], "trial_type": "free-recall", "conditions": [18, 1200, "a", 18000], "internal_node_id": "0.0-32.0-0.0", "key_presses": [74, 69, 76, 76, 89, 32, 83, 84, 79, 78, 69, 32, 80, 79, 83, 83, 89, 32, 78, 85, 77, 66, 69, 82, 32, 78, 73, 71, 72, 84, 71, 79, 87, 78, 32, 83, 85, 78, 78, 89, 32], "trial": 0, "time_elapsed": 594807, "type": "FREE_RECALL", "trial_index": 41}, "uniqueid": "MTK3084:3ZY8KE4ISKA8XYRRTTH8WU1DGBQVQB", "dateTime": 1520012631461}, {"current_trial": 42, "trialdata": {"rt": 1767, "trial_type": "text", "internal_node_id": "0.0-33.0", "time_elapsed": 598582, "key_press": 32, "type": "INSTRUCTIONS", "trial_index": 42}, "uniqueid": "MTK3084:3ZY8KE4ISKA8XYRRTTH8WU1DGBQVQB", "dateTime": 1520012635231}, {"current_trial": 43, "trialdata": {"rt": [6516, 16829], "trial_type": "math-distractor", "key_times": [5246, 5480, 6516, 13523, 13918, 14984, 15308, 15826, 16115, 16829], "responses": ["14", "23"], "num2": [2, 9, 1], "num3": [6, 7, 4], "conditions": [18, 1200, "a", 18000], "internal_node_id": "0.0-34.0", "key_presses": [97, 100, 13, 97, 99, 8, 8, 98, 99, 13], "trial": 1, "time_elapsed": 618590, "type": "DISTRACTOR", "trial_index": 43, "num1": [6, 7, 7]}, "uniqueid": "MTK3084:3ZY8KE4ISKA8XYRRTTH8WU1DGBQVQB", "dateTime": 1520012655239}, {"current_trial": 44, "trialdata": {"rt": -1, "trial_type": "single-stim", "stimulus": "<p id=\"stim\">10</p>", "internal_node_id": "0.0-35.0-0.0", "time_elapsed": 621595, "key_press": -1, "trial_index": 44}, "uniqueid": "MTK3084:3ZY8KE4ISKA8XYRRTTH8WU1DGBQVQB", "dateTime": 1520012658244}, {"current_trial": 45, "trialdata": {"rt": -1, "trial_type": "single-stim", "stimulus": "<p id=\"stim\">9</p>", "internal_node_id": "0.0-35.0-1.0", "time_elapsed": 622598, "key_press": -1, "trial_index": 45}, "uniqueid": "MTK3084:3ZY8KE4ISKA8XYRRTTH8WU1DGBQVQB", "dateTime": 1520012659247}, {"current_trial": 46, "trialdata": {"rt": -1, "trial_type": "single-stim", "stimulus": "<p id=\"stim\">8</p>", "internal_node_id": "0.0-35.0-2.0", "time_elapsed": 623601, "key_press": -1, "trial_index": 46}, "uniqueid": "MTK3084:3ZY8KE4ISKA8XYRRTTH8WU1DGBQVQB", "dateTime": 1520012660250}, {"current_trial": 47, "trialdata": {"rt": -1, "trial_type": "single-stim", "stimulus": "<p id=\"stim\">7</p>", "internal_node_id": "0.0-35.0-3.0", "time_elapsed": 624603, "key_press": -1, "trial_index": 47}, "uniqueid": "MTK3084:3ZY8KE4ISKA8XYRRTTH8WU1DGBQVQB", "dateTime": 1520012661253}, {"current_trial": 48, "trialdata": {"rt": -1, "trial_type": "single-stim", "stimulus": "<p id=\"stim\">6</p>", "internal_node_id": "0.0-35.0-4.0", "time_elapsed": 625605, "key_press": -1, "trial_index": 48}, "uniqueid": "MTK3084:3ZY8KE4ISKA8XYRRTTH8WU1DGBQVQB", "dateTime": 1520012662255}, {"current_trial": 49, "trialdata": {"rt": -1, "trial_type": "single-stim", "stimulus": "<p id=\"stim\">5</p>", "internal_node_id": "0.0-35.0-5.0", "time_elapsed": 626608, "key_press": -1, "trial_index": 49}, "uniqueid": "MTK3084:3ZY8KE4ISKA8XYRRTTH8WU1DGBQVQB", "dateTime": 1520012663257}, {"current_trial": 50, "trialdata": {"rt": -1, "trial_type": "single-stim", "stimulus": "<p id=\"stim\">4</p>", "internal_node_id": "0.0-35.0-6.0", "time_elapsed": 627611, "key_press": -1, "trial_index": 50}, "uniqueid": "MTK3084:3ZY8KE4ISKA8XYRRTTH8WU1DGBQVQB", "dateTime": 1520012664260}, {"current_trial": 51, "trialdata": {"rt": -1, "trial_type": "single-stim", "stimulus": "<p id=\"stim\">3</p>", "internal_node_id": "0.0-35.0-7.0", "time_elapsed": 628612, "key_press": -1, "trial_index": 51}, "uniqueid": "MTK3084:3ZY8KE4ISKA8XYRRTTH8WU1DGBQVQB", "dateTime": 1520012665261}, {"current_trial": 52, "trialdata": {"rt": -1, "trial_type": "single-stim", "stimulus": "<p id=\"stim\">2</p>", "internal_node_id": "0.0-35.0-8.0", "time_elapsed": 629615, "key_press": -1, "trial_index": 52}, "uniqueid": "MTK3084:3ZY8KE4ISKA8XYRRTTH8WU1DGBQVQB", "dateTime": 1520012666264}, {"current_trial": 53, "trialdata": {"rt": -1, "trial_type": "single-stim", "stimulus": "<p id=\"stim\">1</p>", "internal_node_id": "0.0-35.0-9.0", "time_elapsed": 630616, "key_press": -1, "trial_index": 53}, "uniqueid": "MTK3084:3ZY8KE4ISKA8XYRRTTH8WU1DGBQVQB", "dateTime": 1520012667265}, {"current_trial": 54, "trialdata": {"rt": -1, "trial_type": "single-stim", "stimulus": "<p id=\"stim\">+</p>", "internal_node_id": "0.0-36.0-0.0", "time_elapsed": 632119, "key_press": -1, "type": "FIXATION", "trial_index": 54}, "uniqueid": "MTK3084:3ZY8KE4ISKA8XYRRTTH8WU1DGBQVQB", "dateTime": 1520012668768}, {"current_trial": 55, "trialdata": {"rt": -1000, "trial_type": "single-audio", "word": "wasp", "stimulus": "/static/audio/wordpool/WASP.wav", "conditions": [18, 1200, "a", 18000], "internal_node_id": "0.0-37.0", "trial": 1, "time_elapsed": 634234, "serialpos": 0, "key_press": -1, "wordID": 1592, "type": "PRES_AUD", "trial_index": 55}, "uniqueid": "MTK3084:3ZY8KE4ISKA8XYRRTTH8WU1DGBQVQB", "dateTime": 1520012670883}, {"current_trial": 56, "trialdata": {"rt": -1000, "trial_type": "single-audio", "word": "oyster", "stimulus": "/static/audio/wordpool/OYSTER.wav", "conditions": [18, 1200, "a", 18000], "internal_node_id": "0.0-38.0", "trial": 1, "time_elapsed": 636589, "serialpos": 1, "key_press": -1, "wordID": 994, "type": "PRES_AUD", "trial_index": 56}, "uniqueid": "MTK3084:3ZY8KE4ISKA8XYRRTTH8WU1DGBQVQB", "dateTime": 1520012673238}, {"current_trial": 57, "trialdata": {"rt": -1000, "trial_type": "single-audio", "word": "permit", "stimulus": "/static/audio/wordpool/PERMIT.wav", "conditions": [18, 1200, "a", 18000], "internal_node_id": "0.0-39.0", "trial": 1, "time_elapsed": 638683, "serialpos": 2, "key_press": -1, "wordID": 1050, "type": "PRES_AUD", "trial_index": 57}, "uniqueid": "MTK3084:3ZY8KE4ISKA8XYRRTTH8WU1DGBQVQB", "dateTime": 1520012675333}, {"current_trial": 58, "trialdata": {"rt": -1000, "trial_type": "single-audio", "word": "omelet", "stimulus": "/static/audio/wordpool/OMELET.wav", "conditions": [18, 1200, "a", 18000], "internal_node_id": "0.0-40.0", "trial": 1, "time_elapsed": 641004, "serialpos": 3, "key_press": -1, "wordID": 975, "type": "PRES_AUD", "trial_index": 58}, "uniqueid": "MTK3084:3ZY8KE4ISKA8XYRRTTH8WU1DGBQVQB", "dateTime": 1520012677653}, {"current_trial": 59, "trialdata": {"rt": -1000, "trial_type": "single-audio", "word": "shelf", "stimulus": "/static/audio/wordpool/SHELF.wav", "conditions": [18, 1200, "a", 18000], "internal_node_id": "0.0-41.0", "trial": 1, "time_elapsed": 643285, "serialpos": 4, "key_press": -1, "wordID": 1279, "type": "PRES_AUD", "trial_index": 59}, "uniqueid": "MTK3084:3ZY8KE4ISKA8XYRRTTH8WU1DGBQVQB", "dateTime": 1520012679935}, {"current_trial": 60, "trialdata": {"rt": -1000, "trial_type": "single-audio", "word": "clothes", "stimulus": "/static/audio/wordpool/CLOTHES.wav", "conditions": [18, 1200, "a", 18000], "internal_node_id": "0.0-42.0", "trial": 1, "time_elapsed": 645442, "serialpos": 5, "key_press": -1, "wordID": 326, "type": "PRES_AUD", "trial_index": 60}, "uniqueid": "MTK3084:3ZY8KE4ISKA8XYRRTTH8WU1DGBQVQB", "dateTime": 1520012682092}, {"current_trial": 61, "trialdata": {"rt": -1000, "trial_type": "single-audio", "word": "cottage", "stimulus": "/static/audio/wordpool/COTTAGE.wav", "conditions": [18, 1200, "a", 18000], "internal_node_id": "0.0-43.0", "trial": 1, "time_elapsed": 647804, "serialpos": 6, "key_press": -1, "wordID": 383, "type": "PRES_AUD", "trial_index": 61}, "uniqueid": "MTK3084:3ZY8KE4ISKA8XYRRTTH8WU1DGBQVQB", "dateTime": 1520012684453}, {"current_trial": 62, "trialdata": {"rt": -1000, "trial_type": "single-audio", "word": "robber", "stimulus": "/static/audio/wordpool/ROBBER.wav", "conditions": [18, 1200, "a", 18000], "internal_node_id": "0.0-44.0", "trial": 1, "time_elapsed": 649905, "serialpos": 7, "key_press": -1, "wordID": 1196, "type": "PRES_AUD", "trial_index": 62}, "uniqueid": "MTK3084:3ZY8KE4ISKA8XYRRTTH8WU1DGBQVQB", "dateTime": 1520012686554}, {"current_trial": 63, "trialdata": {"rt": -1000, "trial_type": "single-audio", "word": "necklace", "stimulus": "/static/audio/wordpool/NECKLACE.wav", "conditions": [18, 1200, "a", 18000], "internal_node_id": "0.0-45.0", "trial": 1, "time_elapsed": 652275, "serialpos": 8, "key_press": -1, "wordID": 939, "type": "PRES_AUD", "trial_index": 63}, "uniqueid": "MTK3084:3ZY8KE4ISKA8XYRRTTH8WU1DGBQVQB", "dateTime": 1520012688924}, {"current_trial": 64, "trialdata": {"rt": -1000, "trial_type": "single-audio", "word": "machine", "stimulus": "/static/audio/wordpool/MACHINE.wav", "conditions": [18, 1200, "a", 18000], "internal_node_id": "0.0-46.0", "trial": 1, "time_elapsed": 654360, "serialpos": 9, "key_press": -1, "wordID": 851, "type": "PRES_AUD", "trial_index": 64}, "uniqueid": "MTK3084:3ZY8KE4ISKA8XYRRTTH8WU1DGBQVQB", "dateTime": 1520012691010}, {"current_trial": 65, "trialdata": {"rt": -1000, "trial_type": "single-audio", "word": "parrot", "stimulus": "/static/audio/wordpool/PARROT.wav", "conditions": [18, 1200, "a", 18000], "internal_node_id": "0.0-47.0", "trial": 1, "time_elapsed": 656765, "serialpos": 10, "key_press": -1, "wordID": 1014, "type": "PRES_AUD", "trial_index": 65}, "uniqueid": "MTK3084:3ZY8KE4ISKA8XYRRTTH8WU1DGBQVQB", "dateTime": 1520012693414}, {"current_trial": 66, "trialdata": {"rt": -1000, "trial_type": "single-audio", "word": "fiddle", "stimulus": "/static/audio/wordpool/FIDDLE.wav", "conditions": [18, 1200, "a", 18000], "internal_node_id": "0.0-48.0", "trial": 1, "time_elapsed": 658994, "serialpos": 11, "key_press": -1, "wordID": 560, "type": "PRES_AUD", "trial_index": 66}, "uniqueid": "MTK3084:3ZY8KE4ISKA8XYRRTTH8WU1DGBQVQB", "dateTime": 1520012695643}, {"current_trial": 67, "trialdata": {"rt": -1000, "trial_type": "single-audio", "word": "beaker", "stimulus": "/static/audio/wordpool/BEAKER.wav", "conditions": [18, 1200, "a", 18000], "internal_node_id": "0.0-49.0", "trial": 1, "time_elapsed": 661005, "serialpos": 12, "key_press": -1, "wordID": 103, "type": "PRES_AUD", "trial_index": 67}, "uniqueid": "MTK3084:3ZY8KE4ISKA8XYRRTTH8WU1DGBQVQB", "dateTime": 1520012697654}, {"current_trial": 68, "trialdata": {"rt": -1000, "trial_type": "single-audio", "word": "compass", "stimulus": "/static/audio/wordpool/COMPASS.wav", "conditions": [18, 1200, "a", 18000], "internal_node_id": "0.0-50.0", "trial": 1, "time_elapsed": 663096, "serialpos": 13, "key_press": -1, "wordID": 357, "type": "PRES_AUD", "trial_index": 68}, "uniqueid": "MTK3084:3ZY8KE4ISKA8XYRRTTH8WU1DGBQVQB", "dateTime": 1520012699748}, {"current_trial": 69, "trialdata": {"rt": -1000, "trial_type": "single-audio", "word": "teacher", "stimulus": "/static/audio/wordpool/TEACHER.wav", "conditions": [18, 1200, "a", 18000], "internal_node_id": "0.0-51.0", "trial": 1, "time_elapsed": 665206, "serialpos": 14, "key_press": -1, "wordID": 1439, "type": "PRES_AUD", "trial_index": 69}, "uniqueid": "MTK3084:3ZY8KE4ISKA8XYRRTTH8WU1DGBQVQB", "dateTime": 1520012701855}, {"current_trial": 70, "trialdata": {"rt": -1000, "trial_type": "single-audio", "word": "peanut", "stimulus": "/static/audio/wordpool/PEANUT.wav", "conditions": [18, 1200, "a", 18000], "internal_node_id": "0.0-52.0", "trial": 1, "time_elapsed": 667584, "serialpos": 15, "key_press": -1, "wordID": 1031, "type": "PRES_AUD", "trial_index": 70}, "uniqueid": "MTK3084:3ZY8KE4ISKA8XYRRTTH8WU1DGBQVQB", "dateTime": 1520012704233}, {"current_trial": 71, "trialdata": {"rt": -1000, "trial_type": "single-audio", "word": "london", "stimulus": "/static/audio/wordpool/LONDON.wav", "conditions": [18, 1200, "a", 18000], "internal_node_id": "0.0-53.0", "trial": 1, "time_elapsed": 669855, "serialpos": 16, "key_press": -1, "wordID": 842, "type": "PRES_AUD", "trial_index": 71}, "uniqueid": "MTK3084:3ZY8KE4ISKA8XYRRTTH8WU1DGBQVQB", "dateTime": 1520012706505}, {"current_trial": 72, "trialdata": {"rt": -1000, "trial_type": "single-audio", "word": "peach", "stimulus": "/static/audio/wordpool/PEACH.wav", "conditions": [18, 1200, "a", 18000], "internal_node_id": "0.0-54.0", "trial": 1, "time_elapsed": 672262, "serialpos": 17, "key_press": -1, "wordID": 1030, "type": "PRES_AUD", "trial_index": 72}, "uniqueid": "MTK3084:3ZY8KE4ISKA8XYRRTTH8WU1DGBQVQB", "dateTime": 1520012708911}, {"current_trial": 73, "trialdata": {"rt": -1, "trial_type": "single-stim", "stimulus": "", "internal_node_id": "0.0-55.0-0.0", "time_elapsed": 673514, "key_press": -1, "type": "PRE_RECALL_DELAY", "trial_index": 73}, "uniqueid": "MTK3084:3ZY8KE4ISKA8XYRRTTH8WU1DGBQVQB", "dateTime": 1520012710163}, {"current_trial": 74, "trialdata": {"rt": -1000, "trial_type": "single-audio", "stimulus": "/static/audio/400Hz.wav", "internal_node_id": "0.0-56.0", "time_elapsed": 674017, "key_press": -1, "type": "PRE_RECALL_ALERT", "trial_index": 74}, "uniqueid": "MTK3084:3ZY8KE4ISKA8XYRRTTH8WU1DGBQVQB", "dateTime": 1520012710666}, {"current_trial": 75, "trialdata": {"rt": [5338, 7256, 9377, 11342, 16435, 27703, 41106], "recwords": ["london", "peach", "fiddle", "compass", "wasp", "water", "possy"], "key_times": [1546, 1905, 2191, 2874, 3794, 5116, 5338, 5803, 6029, 6374, 6615, 6816, 7256, 7842, 8161, 8441, 8607, 8815, 9157, 9377, 9580, 9758, 9970, 10205, 10441, 10681, 10876, 11342, 15129, 15387, 15600, 15998, 16435, 26312, 26597, 26903, 27118, 27291, 27703, 40050, 40280, 40484, 40655, 40880, 41106, 58320, 58506, 58714, 58992, 59359], "trial_type": "free-recall", "conditions": [18, 1200, "a", 18000], "internal_node_id": "0.0-57.0-0.0", "key_presses": [76, 79, 78, 68, 79, 78, 32, 80, 69, 65, 67, 72, 32, 70, 73, 68, 68, 76, 69, 32, 67, 79, 77, 80, 65, 83, 83, 32, 87, 65, 83, 80, 32, 87, 65, 84, 69, 82, 32, 80, 79, 83, 83, 89, 32, 83, 72, 69, 76, 70], "trial": 1, "time_elapsed": 734024, "type": "FREE_RECALL", "trial_index": 75}, "uniqueid": "MTK3084:3ZY8KE4ISKA8XYRRTTH8WU1DGBQVQB", "dateTime": 1520012770676}, {"current_trial": 76, "trialdata": {"rt": 1535, "trial_type": "text", "internal_node_id": "0.0-58.0", "time_elapsed": 737563, "key_press": 32, "type": "INSTRUCTIONS", "trial_index": 76}, "uniqueid": "MTK3084:3ZY8KE4ISKA8XYRRTTH8WU1DGBQVQB", "dateTime": 1520012774212}, {"current_trial": 77, "trialdata": {"rt": [4926, 11633, 16050, 22220], "trial_type": "math-distractor", "key_times": [2371, 3185, 4926, 10289, 10868, 11633, 15322, 15606, 16050, 21499, 21812, 22220], "responses": ["16", "18", "12", "20"], "num2": [5, 5, 5, 3, 3], "num3": [6, 5, 1, 9, 5], "conditions": [12, 1600, "a", 24000], "internal_node_id": "0.0-59.0", "key_presses": [97, 102, 13, 97, 104, 13, 97, 98, 13, 98, 96, 13], "trial": 2, "time_elapsed": 762569, "type": "DISTRACTOR", "trial_index": 77, "num1": [5, 8, 6, 8, 8]}, "uniqueid": "MTK3084:3ZY8KE4ISKA8XYRRTTH8WU1DGBQVQB", "dateTime": 1520012799218}, {"current_trial": 78, "trialdata": {"rt": -1, "trial_type": "single-stim", "stimulus": "<p id=\"stim\">10</p>", "internal_node_id": "0.0-60.0-0.0", "time_elapsed": 765574, "key_press": -1, "trial_index": 78}, "uniqueid": "MTK3084:3ZY8KE4ISKA8XYRRTTH8WU1DGBQVQB", "dateTime": 1520012802223}, {"current_trial": 79, "trialdata": {"rt": -1, "trial_type": "single-stim", "stimulus": "<p id=\"stim\">9</p>", "internal_node_id": "0.0-60.0-1.0", "time_elapsed": 766576, "key_press": -1, "trial_index": 79}, "uniqueid": "MTK3084:3ZY8KE4ISKA8XYRRTTH8WU1DGBQVQB", "dateTime": 1520012803226}, {"current_trial": 80, "trialdata": {"rt": -1, "trial_type": "single-stim", "stimulus": "<p id=\"stim\">8</p>", "internal_node_id": "0.0-60.0-2.0", "time_elapsed": 767579, "key_press": -1, "trial_index": 80}, "uniqueid": "MTK3084:3ZY8KE4ISKA8XYRRTTH8WU1DGBQVQB", "dateTime": 1520012804228}, {"current_trial": 81, "trialdata": {"rt": -1, "trial_type": "single-stim", "stimulus": "<p id=\"stim\">7</p>", "internal_node_id": "0.0-60.0-3.0", "time_elapsed": 768582, "key_press": -1, "trial_index": 81}, "uniqueid": "MTK3084:3ZY8KE4ISKA8XYRRTTH8WU1DGBQVQB", "dateTime": 1520012805231}, {"current_trial": 82, "trialdata": {"rt": -1, "trial_type": "single-stim", "stimulus": "<p id=\"stim\">6</p>", "internal_node_id": "0.0-60.0-4.0", "time_elapsed": 769585, "key_press": -1, "trial_index": 82}, "uniqueid": "MTK3084:3ZY8KE4ISKA8XYRRTTH8WU1DGBQVQB", "dateTime": 1520012806235}, {"current_trial": 83, "trialdata": {"rt": -1, "trial_type": "single-stim", "stimulus": "<p id=\"stim\">5</p>", "internal_node_id": "0.0-60.0-5.0", "time_elapsed": 770589, "key_press": -1, "trial_index": 83}, "uniqueid": "MTK3084:3ZY8KE4ISKA8XYRRTTH8WU1DGBQVQB", "dateTime": 1520012807238}, {"current_trial": 84, "trialdata": {"rt": -1, "trial_type": "single-stim", "stimulus": "<p id=\"stim\">4</p>", "internal_node_id": "0.0-60.0-6.0", "time_elapsed": 771591, "key_press": -1, "trial_index": 84}, "uniqueid": "MTK3084:3ZY8KE4ISKA8XYRRTTH8WU1DGBQVQB", "dateTime": 1520012808240}, {"current_trial": 85, "trialdata": {"rt": -1, "trial_type": "single-stim", "stimulus": "<p id=\"stim\">3</p>", "internal_node_id": "0.0-60.0-7.0", "time_elapsed": 772594, "key_press": -1, "trial_index": 85}, "uniqueid": "MTK3084:3ZY8KE4ISKA8XYRRTTH8WU1DGBQVQB", "dateTime": 1520012809243}, {"current_trial": 86, "trialdata": {"rt": -1, "trial_type": "single-stim", "stimulus": "<p id=\"stim\">2</p>", "internal_node_id": "0.0-60.0-8.0", "time_elapsed": 773596, "key_press": -1, "trial_index": 86}, "uniqueid": "MTK3084:3ZY8KE4ISKA8XYRRTTH8WU1DGBQVQB", "dateTime": 1520012810245}, {"current_trial": 87, "trialdata": {"rt": -1, "trial_type": "single-stim", "stimulus": "<p id=\"stim\">1</p>", "internal_node_id": "0.0-60.0-9.0", "time_elapsed": 774598, "key_press": -1, "trial_index": 87}, "uniqueid": "MTK3084:3ZY8KE4ISKA8XYRRTTH8WU1DGBQVQB", "dateTime": 1520012811247}, {"current_trial": 88, "trialdata": {"rt": -1, "trial_type": "single-stim", "stimulus": "<p id=\"stim\">+</p>", "internal_node_id": "0.0-61.0-0.0", "time_elapsed": 776101, "key_press": -1, "type": "FIXATION", "trial_index": 88}, "uniqueid": "MTK3084:3ZY8KE4ISKA8XYRRTTH8WU1DGBQVQB", "dateTime": 1520012812750}, {"current_trial": 89, "trialdata": {"rt": -1000, "trial_type": "single-audio", "word": "pasta", "stimulus": "/static/audio/wordpool/PASTA.wav", "conditions": [12, 1600, "a", 24000], "internal_node_id": "0.0-62.0", "trial": 2, "time_elapsed": 778668, "serialpos": 0, "key_press": -1, "wordID": 1020, "type": "PRES_AUD", "trial_index": 89}, "uniqueid": "MTK3084:3ZY8KE4ISKA8XYRRTTH8WU1DGBQVQB", "dateTime": 1520012815317}, {"current_trial": 90, "trialdata": {"rt": -1000, "trial_type": "single-audio", "word": "ozone", "stimulus": "/static/audio/wordpool/OZONE.wav", "conditions": [12, 1600, "a", 24000], "internal_node_id": "0.0-63.0", "trial": 2, "time_elapsed": 781313, "serialpos": 1, "key_press": -1, "wordID": 995, "type": "PRES_AUD", "trial_index": 90}, "uniqueid": "MTK3084:3ZY8KE4ISKA8XYRRTTH8WU1DGBQVQB", "dateTime": 1520012817963}, {"current_trial": 91, "trialdata": {"rt": -1000, "trial_type": "single-audio", "word": "coin", "stimulus": "/static/audio/wordpool/COIN.wav", "conditions": [12, 1600, "a", 24000], "internal_node_id": "0.0-64.0", "trial": 2, "time_elapsed": 784088, "serialpos": 2, "key_press": -1, "wordID": 342, "type": "PRES_AUD", "trial_index": 91}, "uniqueid": "MTK3084:3ZY8KE4ISKA8XYRRTTH8WU1DGBQVQB", "dateTime": 1520012820737}, {"current_trial": 92, "trialdata": {"rt": -1000, "trial_type": "single-audio", "word": "actor", "stimulus": "/static/audio/wordpool/ACTOR.wav", "conditions": [12, 1600, "a", 24000], "internal_node_id": "0.0-65.0", "trial": 2, "time_elapsed": 786569, "serialpos": 3, "key_press": -1, "wordID": 4, "type": "PRES_AUD", "trial_index": 92}, "uniqueid": "MTK3084:3ZY8KE4ISKA8XYRRTTH8WU1DGBQVQB", "dateTime": 1520012823218}, {"current_trial": 93, "trialdata": {"rt": -1000, "trial_type": "single-audio", "word": "film", "stimulus": "/static/audio/wordpool/FILM.wav", "conditions": [12, 1600, "a", 24000], "internal_node_id": "0.0-66.0", "trial": 2, "time_elapsed": 789096, "serialpos": 4, "key_press": -1, "wordID": 564, "type": "PRES_AUD", "trial_index": 93}, "uniqueid": "MTK3084:3ZY8KE4ISKA8XYRRTTH8WU1DGBQVQB", "dateTime": 1520012825745}, {"current_trial": 94, "trialdata": {"rt": -1000, "trial_type": "single-audio", "word": "postage", "stimulus": "/static/audio/wordpool/POSTAGE.wav", "conditions": [12, 1600, "a", 24000], "internal_node_id": "0.0-67.0", "trial": 2, "time_elapsed": 791862, "serialpos": 5, "key_press": -1, "wordID": 1112, "type": "PRES_AUD", "trial_index": 94}, "uniqueid": "MTK3084:3ZY8KE4ISKA8XYRRTTH8WU1DGBQVQB", "dateTime": 1520012828511}, {"current_trial": 95, "trialdata": {"rt": -1000, "trial_type": "single-audio", "word": "sausage", "stimulus": "/static/audio/wordpool/SAUSAGE.wav", "conditions": [12, 1600, "a", 24000], "internal_node_id": "0.0-68.0", "trial": 2, "time_elapsed": 794454, "serialpos": 6, "key_press": -1, "wordID": 1237, "type": "PRES_AUD", "trial_index": 95}, "uniqueid": "MTK3084:3ZY8KE4ISKA8XYRRTTH8WU1DGBQVQB", "dateTime": 1520012831103}, {"current_trial": 96, "trialdata": {"rt": -1000, "trial_type": "single-audio", "word": "victim", "stimulus": "/static/audio/wordpool/VICTIM.wav", "conditions": [12, 1600, "a", 24000], "internal_node_id": "0.0-69.0", "trial": 2, "time_elapsed": 796872, "serialpos": 7, "key_press": -1, "wordID": 1561, "type": "PRES_AUD", "trial_index": 96}, "uniqueid": "MTK3084:3ZY8KE4ISKA8XYRRTTH8WU1DGBQVQB", "dateTime": 1520012833521}, {"current_trial": 97, "trialdata": {"rt": -1000, "trial_type": "single-audio", "word": "sunset", "stimulus": "/static/audio/wordpool/SUNSET.wav", "conditions": [12, 1600, "a", 24000], "internal_node_id": "0.0-70.0", "trial": 2, "time_elapsed": 799638, "serialpos": 8, "key_press": -1, "wordID": 1407, "type": "PRES_AUD", "trial_index": 97}, "uniqueid": "MTK3084:3ZY8KE4ISKA8XYRRTTH8WU1DGBQVQB", "dateTime": 1520012836287}, {"current_trial": 98, "trialdata": {"rt": -1000, "trial_type": "single-audio", "word": "mustard", "stimulus": "/static/audio/wordpool/MUSTARD.wav", "conditions": [12, 1600, "a", 24000], "internal_node_id": "0.0-71.0", "trial": 2, "time_elapsed": 802318, "serialpos": 9, "key_press": -1, "wordID": 934, "type": "PRES_AUD", "trial_index": 98}, "uniqueid": "MTK3084:3ZY8KE4ISKA8XYRRTTH8WU1DGBQVQB", "dateTime": 1520012838967}, {"current_trial": 99, "trialdata": {"rt": -1000, "trial_type": "single-audio", "word": "daisy", "stimulus": "/static/audio/wordpool/DAISY.wav", "conditions": [12, 1600, "a", 24000], "internal_node_id": "0.0-72.0", "trial": 2, "time_elapsed": 804922, "serialpos": 10, "key_press": -1, "wordID": 434, "type": "PRES_AUD", "trial_index": 99}, "uniqueid": "MTK3084:3ZY8KE4ISKA8XYRRTTH8WU1DGBQVQB", "dateTime": 1520012841571}, {"current_trial": 100, "trialdata": {"rt": -1000, "trial_type": "single-audio", "word": "elbow", "stimulus": "/static/audio/wordpool/ELBOW.wav", "conditions": [12, 1600, "a", 24000], "internal_node_id": "0.0-73.0", "trial": 2, "time_elapsed": 807691, "serialpos": 11, "key_press": -1, "wordID": 519, "type": "PRES_AUD", "trial_index": 100}, "uniqueid": "MTK3084:3ZY8KE4ISKA8XYRRTTH8WU1DGBQVQB", "dateTime": 1520012844341}, {"current_trial": 101, "trialdata": {"rt": -1, "trial_type": "single-stim", "stimulus": "", "internal_node_id": "0.0-74.0-0.0", "time_elapsed": 809034, "key_press": -1, "type": "PRE_RECALL_DELAY", "trial_index": 101}, "uniqueid": "MTK3084:3ZY8KE4ISKA8XYRRTTH8WU1DGBQVQB", "dateTime": 1520012845683}, {"current_trial": 102, "trialdata": {"rt": -1000, "trial_type": "single-audio", "stimulus": "/static/audio/400Hz.wav", "internal_node_id": "0.0-75.0", "time_elapsed": 809536, "key_press": -1, "type": "PRE_RECALL_ALERT", "trial_index": 102}, "uniqueid": "MTK3084:3ZY8KE4ISKA8XYRRTTH8WU1DGBQVQB", "dateTime": 1520012846185}, {"current_trial": 103, "trialdata": {"rt": [6512, 8767, 11997, 24045], "recwords": ["elbow", "pasta", "postage", "hostage"], "key_times": [2734, 3713, 4143, 4742, 5439, 6512, 6982, 7173, 7419, 7747, 8138, 8767, 9628, 9811, 9981, 10237, 10505, 10736, 10998, 11997, 21678, 22147, 22413, 22719, 23043, 23275, 23516, 24045, 58747, 59030, 59600, 59796], "trial_type": "free-recall", "conditions": [12, 1600, "a", 24000], "internal_node_id": "0.0-76.0-0.0", "key_presses": [69, 76, 66, 79, 87, 32, 80, 65, 83, 84, 65, 32, 80, 79, 83, 84, 65, 71, 69, 32, 72, 79, 83, 84, 65, 71, 69, 32, 67, 79, 70, 70], "trial": 2, "time_elapsed": 869541, "type": "FREE_RECALL", "trial_index": 103}, "uniqueid": "MTK3084:3ZY8KE4ISKA8XYRRTTH8WU1DGBQVQB", "dateTime": 1520012906194}, {"current_trial": 104, "trialdata": {"rt": 1848, "trial_type": "text", "internal_node_id": "0.0-77.0", "time_elapsed": 873395, "key_press": 32, "type": "INSTRUCTIONS", "trial_index": 104}, "uniqueid": "MTK3084:3ZY8KE4ISKA8XYRRTTH8WU1DGBQVQB", "dateTime": 1520012910044}, {"current_trial": 105, "trialdata": {"rt": [9447, 14564, 21821], "trial_type": "math-distractor", "key_times": [4689, 4906, 6587, 6775, 7351, 7553, 7770, 8678, 9447, 14048, 14294, 14564, 20987, 21196, 21821], "responses": ["12", "15", "23"], "num2": [3, 4, 8, 1], "num3": [8, 3, 6, 9], "conditions": [24, 1600, "a", 24000], "internal_node_id": "0.0-78.0", "key_presses": [97, 96, 8, 8, 97, 98, 96, 8, 13, 97, 101, 13, 98, 99, 13], "trial": 3, "time_elapsed": 899401, "type": "DISTRACTOR", "trial_index": 105, "num1": [1, 8, 9, 7]}, "uniqueid": "MTK3084:3ZY8KE4ISKA8XYRRTTH8WU1DGBQVQB", "dateTime": 1520012936050}, {"current_trial": 106, "trialdata": {"rt": -1, "trial_type": "single-stim", "stimulus": "<p id=\"stim\">10</p>", "internal_node_id": "0.0-79.0-0.0", "time_elapsed": 902403, "key_press": -1, "trial_index": 106}, "uniqueid": "MTK3084:3ZY8KE4ISKA8XYRRTTH8WU1DGBQVQB", "dateTime": 1520012939053}, {"current_trial": 107, "trialdata": {"rt": -1, "trial_type": "single-stim", "stimulus": "<p id=\"stim\">9</p>", "internal_node_id": "0.0-79.0-1.0", "time_elapsed": 903406, "key_press": -1, "trial_index": 107}, "uniqueid": "MTK3084:3ZY8KE4ISKA8XYRRTTH8WU1DGBQVQB", "dateTime": 1520012940055}, {"current_trial": 108, "trialdata": {"rt": -1, "trial_type": "single-stim", "stimulus": "<p id=\"stim\">8</p>", "internal_node_id": "0.0-79.0-2.0", "time_elapsed": 904408, "key_press": -1, "trial_index": 108}, "uniqueid": "MTK3084:3ZY8KE4ISKA8XYRRTTH8WU1DGBQVQB", "dateTime": 1520012941057}, {"current_trial": 109, "trialdata": {"rt": -1, "trial_type": "single-stim", "stimulus": "<p id=\"stim\">7</p>", "internal_node_id": "0.0-79.0-3.0", "time_elapsed": 905411, "key_press": -1, "trial_index": 109}, "uniqueid": "MTK3084:3ZY8KE4ISKA8XYRRTTH8WU1DGBQVQB", "dateTime": 1520012942060}, {"current_trial": 110, "trialdata": {"rt": -1, "trial_type": "single-stim", "stimulus": "<p id=\"stim\">6</p>", "internal_node_id": "0.0-79.0-4.0", "time_elapsed": 906415, "key_press": -1, "trial_index": 110}, "uniqueid": "MTK3084:3ZY8KE4ISKA8XYRRTTH8WU1DGBQVQB", "dateTime": 1520012943064}, {"current_trial": 111, "trialdata": {"rt": -1, "trial_type": "single-stim", "stimulus": "<p id=\"stim\">5</p>", "internal_node_id": "0.0-79.0-5.0", "time_elapsed": 907417, "key_press": -1, "trial_index": 111}, "uniqueid": "MTK3084:3ZY8KE4ISKA8XYRRTTH8WU1DGBQVQB", "dateTime": 1520012944066}, {"current_trial": 112, "trialdata": {"rt": -1, "trial_type": "single-stim", "stimulus": "<p id=\"stim\">4</p>", "internal_node_id": "0.0-79.0-6.0", "time_elapsed": 908419, "key_press": -1, "trial_index": 112}, "uniqueid": "MTK3084:3ZY8KE4ISKA8XYRRTTH8WU1DGBQVQB", "dateTime": 1520012945068}, {"current_trial": 113, "trialdata": {"rt": -1, "trial_type": "single-stim", "stimulus": "<p id=\"stim\">3</p>", "internal_node_id": "0.0-79.0-7.0", "time_elapsed": 909422, "key_press": -1, "trial_index": 113}, "uniqueid": "MTK3084:3ZY8KE4ISKA8XYRRTTH8WU1DGBQVQB", "dateTime": 1520012946072}, {"current_trial": 114, "trialdata": {"rt": -1, "trial_type": "single-stim", "stimulus": "<p id=\"stim\">2</p>", "internal_node_id": "0.0-79.0-8.0", "time_elapsed": 910424, "key_press": -1, "trial_index": 114}, "uniqueid": "MTK3084:3ZY8KE4ISKA8XYRRTTH8WU1DGBQVQB", "dateTime": 1520012947073}, {"current_trial": 115, "trialdata": {"rt": -1, "trial_type": "single-stim", "stimulus": "<p id=\"stim\">1</p>", "internal_node_id": "0.0-79.0-9.0", "time_elapsed": 911427, "key_press": -1, "trial_index": 115}, "uniqueid": "MTK3084:3ZY8KE4ISKA8XYRRTTH8WU1DGBQVQB", "dateTime": 1520012948077}, {"current_trial": 116, "trialdata": {"rt": -1, "trial_type": "single-stim", "stimulus": "<p id=\"stim\">+</p>", "internal_node_id": "0.0-80.0-0.0", "time_elapsed": 912930, "key_press": -1, "type": "FIXATION", "trial_index": 116}, "uniqueid": "MTK3084:3ZY8KE4ISKA8XYRRTTH8WU1DGBQVQB", "dateTime": 1520012949579}, {"current_trial": 117, "trialdata": {"rt": -1000, "trial_type": "single-audio", "word": "novel", "stimulus": "/static/audio/wordpool/NOVEL.wav", "conditions": [24, 1600, "a", 24000], "internal_node_id": "0.0-81.0", "trial": 3, "time_elapsed": 915712, "serialpos": 0, "key_press": -1, "wordID": 959, "type": "PRES_AUD", "trial_index": 117}, "uniqueid": "MTK3084:3ZY8KE4ISKA8XYRRTTH8WU1DGBQVQB", "dateTime": 1520012952361}, {"current_trial": 118, "trialdata": {"rt": -1000, "trial_type": "single-audio", "word": "mildew", "stimulus": "/static/audio/wordpool/MILDEW.wav", "conditions": [24, 1600, "a", 24000], "internal_node_id": "0.0-82.0", "trial": 3, "time_elapsed": 918174, "serialpos": 1, "key_press": -1, "wordID": 892, "type": "PRES_AUD", "trial_index": 118}, "uniqueid": "MTK3084:3ZY8KE4ISKA8XYRRTTH8WU1DGBQVQB", "dateTime": 1520012954823}, {"current_trial": 119, "trialdata": {"rt": -1000, "trial_type": "single-audio", "word": "garlic", "stimulus": "/static/audio/wordpool/GARLIC.wav", "conditions": [24, 1600, "a", 24000], "internal_node_id": "0.0-83.0", "trial": 3, "time_elapsed": 920774, "serialpos": 2, "key_press": -1, "wordID": 623, "type": "PRES_AUD", "trial_index": 119}, "uniqueid": "MTK3084:3ZY8KE4ISKA8XYRRTTH8WU1DGBQVQB", "dateTime": 1520012957424}, {"current_trial": 120, "trialdata": {"rt": -1000, "trial_type": "single-audio", "word": "parsley", "stimulus": "/static/audio/wordpool/PARSLEY.wav", "conditions": [24, 1600, "a", 24000], "internal_node_id": "0.0-84.0", "trial": 3, "time_elapsed": 923464, "serialpos": 3, "key_press": -1, "wordID": 1015, "type": "PRES_AUD", "trial_index": 120}, "uniqueid": "MTK3084:3ZY8KE4ISKA8XYRRTTH8WU1DGBQVQB", "dateTime": 1520012960113}, {"current_trial": 121, "trialdata": {"rt": -1000, "trial_type": "single-audio", "word": "rabbit", "stimulus": "/static/audio/wordpool/RABBIT.wav", "conditions": [24, 1600, "a", 24000], "internal_node_id": "0.0-85.0", "trial": 3, "time_elapsed": 925915, "serialpos": 4, "key_press": -1, "wordID": 1151, "type": "PRES_AUD", "trial_index": 121}, "uniqueid": "MTK3084:3ZY8KE4ISKA8XYRRTTH8WU1DGBQVQB", "dateTime": 1520012962564}, {"current_trial": 122, "trialdata": {"rt": -1000, "trial_type": "single-audio", "word": "softball", "stimulus": "/static/audio/wordpool/SOFTBALL.wav", "conditions": [24, 1600, "a", 24000], "internal_node_id": "0.0-86.0", "trial": 3, "time_elapsed": 928715, "serialpos": 5, "key_press": -1, "wordID": 1342, "type": "PRES_AUD", "trial_index": 122}, "uniqueid": "MTK3084:3ZY8KE4ISKA8XYRRTTH8WU1DGBQVQB", "dateTime": 1520012965364}, {"current_trial": 123, "trialdata": {"rt": -1000, "trial_type": "single-audio", "word": "dancer", "stimulus": "/static/audio/wordpool/DANCER.wav", "conditions": [24, 1600, "a", 24000], "internal_node_id": "0.0-87.0", "trial": 3, "time_elapsed": 931468, "serialpos": 6, "key_press": -1, "wordID": 436, "type": "PRES_AUD", "trial_index": 123}, "uniqueid": "MTK3084:3ZY8KE4ISKA8XYRRTTH8WU1DGBQVQB", "dateTime": 1520012968117}, {"current_trial": 124, "trialdata": {"rt": -1000, "trial_type": "single-audio", "word": "friend", "stimulus": "/static/audio/wordpool/FRIEND.wav", "conditions": [24, 1600, "a", 24000], "internal_node_id": "0.0-88.0", "trial": 3, "time_elapsed": 934078, "serialpos": 7, "key_press": -1, "wordID": 605, "type": "PRES_AUD", "trial_index": 124}, "uniqueid": "MTK3084:3ZY8KE4ISKA8XYRRTTH8WU1DGBQVQB", "dateTime": 1520012970727}, {"current_trial": 125, "trialdata": {"rt": -1000, "trial_type": "single-audio", "word": "cashier", "stimulus": "/static/audio/wordpool/CASHIER.wav", "conditions": [24, 1600, "a", 24000], "internal_node_id": "0.0-89.0", "trial": 3, "time_elapsed": 936819, "serialpos": 8, "key_press": -1, "wordID": 253, "type": "PRES_AUD", "trial_index": 125}, "uniqueid": "MTK3084:3ZY8KE4ISKA8XYRRTTH8WU1DGBQVQB", "dateTime": 1520012973468}, {"current_trial": 126, "trialdata": {"rt": -1000, "trial_type": "single-audio", "word": "scalpel", "stimulus": "/static/audio/wordpool/SCALPEL.wav", "conditions": [24, 1600, "a", 24000], "internal_node_id": "0.0-90.0", "trial": 3, "time_elapsed": 939483, "serialpos": 9, "key_press": -1, "wordID": 1242, "type": "PRES_AUD", "trial_index": 126}, "uniqueid": "MTK3084:3ZY8KE4ISKA8XYRRTTH8WU1DGBQVQB", "dateTime": 1520012976133}, {"current_trial": 127, "trialdata": {"rt": -1000, "trial_type": "single-audio", "word": "fungus", "stimulus": "/static/audio/wordpool/FUNGUS.wav", "conditions": [24, 1600, "a", 24000], "internal_node_id": "0.0-91.0", "trial": 3, "time_elapsed": 942098, "serialpos": 10, "key_press": -1, "wordID": 613, "type": "PRES_AUD", "trial_index": 127}, "uniqueid": "MTK3084:3ZY8KE4ISKA8XYRRTTH8WU1DGBQVQB", "dateTime": 1520012978747}, {"current_trial": 128, "trialdata": {"rt": -1000, "trial_type": "single-audio", "word": "baby", "stimulus": "/static/audio/wordpool/BABY.wav", "conditions": [24, 1600, "a", 24000], "internal_node_id": "0.0-92.0", "trial": 3, "time_elapsed": 944706, "serialpos": 11, "key_press": -1, "wordID": 63, "type": "PRES_AUD", "trial_index": 128}, "uniqueid": "MTK3084:3ZY8KE4ISKA8XYRRTTH8WU1DGBQVQB", "dateTime": 1520012981355}, {"current_trial": 129, "trialdata": {"rt": -1000, "trial_type": "single-audio", "word": "finger", "stimulus": "/static/audio/wordpool/FINGER.wav", "conditions": [24, 1600, "a", 24000], "internal_node_id": "0.0-93.0", "trial": 3, "time_elapsed": 947165, "serialpos": 12, "key_press": -1, "wordID": 566, "type": "PRES_AUD", "trial_index": 129}, "uniqueid": "MTK3084:3ZY8KE4ISKA8XYRRTTH8WU1DGBQVQB", "dateTime": 1520012983814}, {"current_trial": 130, "trialdata": {"rt": -1000, "trial_type": "single-audio", "word": "bacon", "stimulus": "/static/audio/wordpool/BACON.wav", "conditions": [24, 1600, "a", 24000], "internal_node_id": "0.0-94.0", "trial": 3, "time_elapsed": 949734, "serialpos": 13, "key_press": -1, "wordID": 66, "type": "PRES_AUD", "trial_index": 130}, "uniqueid": "MTK3084:3ZY8KE4ISKA8XYRRTTH8WU1DGBQVQB", "dateTime": 1520012986383}, {"current_trial": 131, "trialdata": {"rt": -1000, "trial_type": "single-audio", "word": "sidewalk", "stimulus": "/static/audio/wordpool/SIDEWALK.wav", "conditions": [24, 1600, "a", 24000], "internal_node_id": "0.0-95.0", "trial": 3, "time_elapsed": 952347, "serialpos": 14, "key_press": -1, "wordID": 1302, "type": "PRES_AUD", "trial_index": 131}, "uniqueid": "MTK3084:3ZY8KE4ISKA8XYRRTTH8WU1DGBQVQB", "dateTime": 1520012988996}, {"current_trial": 132, "trialdata": {"rt": -1000, "trial_type": "single-audio", "word": "flower", "stimulus": "/static/audio/wordpool/FLOWER.wav", "conditions": [24, 1600, "a", 24000], "internal_node_id": "0.0-96.0", "trial": 3, "time_elapsed": 954800, "serialpos": 15, "key_press": -1, "wordID": 583, "type": "PRES_AUD", "trial_index": 132}, "uniqueid": "MTK3084:3ZY8KE4ISKA8XYRRTTH8WU1DGBQVQB", "dateTime": 1520012991449}, {"current_trial": 133, "trialdata": {"rt": -1000, "trial_type": "single-audio", "word": "cabbage", "stimulus": "/static/audio/wordpool/CABBAGE.wav", "conditions": [24, 1600, "a", 24000], "internal_node_id": "0.0-97.0", "trial": 3, "time_elapsed": 957415, "serialpos": 16, "key_press": -1, "wordID": 209, "type": "PRES_AUD", "trial_index": 133}, "uniqueid": "MTK3084:3ZY8KE4ISKA8XYRRTTH8WU1DGBQVQB", "dateTime": 1520012994065}, {"current_trial": 134, "trialdata": {"rt": -1000, "trial_type": "single-audio", "word": "wrist", "stimulus": "/static/audio/wordpool/WRIST.wav", "conditions": [24, 1600, "a", 24000], "internal_node_id": "0.0-98.0", "trial": 3, "time_elapsed": 960075, "serialpos": 17, "key_press": -1, "wordID": 1625, "type": "PRES_AUD", "trial_index": 134}, "uniqueid": "MTK3084:3ZY8KE4ISKA8XYRRTTH8WU1DGBQVQB", "dateTime": 1520012996724}, {"current_trial": 135, "trialdata": {"rt": -1000, "trial_type": "single-audio", "word": "money", "stimulus": "/static/audio/wordpool/MONEY.wav", "conditions": [24, 1600, "a", 24000], "internal_node_id": "0.0-99.0", "trial": 3, "time_elapsed": 962542, "serialpos": 18, "key_press": -1, "wordID": 907, "type": "PRES_AUD", "trial_index": 135}, "uniqueid": "MTK3084:3ZY8KE4ISKA8XYRRTTH8WU1DGBQVQB", "dateTime": 1520012999192}, {"current_trial": 136, "trialdata": {"rt": -1000, "trial_type": "single-audio", "word": "flask", "stimulus": "/static/audio/wordpool/FLASK.wav", "conditions": [24, 1600, "a", 24000], "internal_node_id": "0.0-100.0", "trial": 3, "time_elapsed": 965338, "serialpos": 19, "key_press": -1, "wordID": 575, "type": "PRES_AUD", "trial_index": 136}, "uniqueid": "MTK3084:3ZY8KE4ISKA8XYRRTTH8WU1DGBQVQB", "dateTime": 1520013001987}, {"current_trial": 137, "trialdata": {"rt": -1000, "trial_type": "single-audio", "word": "suitcase", "stimulus": "/static/audio/wordpool/SUITCASE.wav", "conditions": [24, 1600, "a", 24000], "internal_node_id": "0.0-101.0", "trial": 3, "time_elapsed": 968096, "serialpos": 20, "key_press": -1, "wordID": 1402, "type": "PRES_AUD", "trial_index": 137}, "uniqueid": "MTK3084:3ZY8KE4ISKA8XYRRTTH8WU1DGBQVQB", "dateTime": 1520013004746}, {"current_trial": 138, "trialdata": {"rt": -1000, "trial_type": "single-audio", "word": "briefcase", "stimulus": "/static/audio/wordpool/BRIEFCASE.wav", "conditions": [24, 1600, "a", 24000], "internal_node_id": "0.0-102.0", "trial": 3, "time_elapsed": 970553, "serialpos": 21, "key_press": -1, "wordID": 174, "type": "PRES_AUD", "trial_index": 138}, "uniqueid": "MTK3084:3ZY8KE4ISKA8XYRRTTH8WU1DGBQVQB", "dateTime": 1520013007202}, {"current_trial": 139, "trialdata": {"rt": -1000, "trial_type": "single-audio", "word": "camel", "stimulus": "/static/audio/wordpool/CAMEL.wav", "conditions": [24, 1600, "a", 24000], "internal_node_id": "0.0-103.0", "trial": 3, "time_elapsed": 973221, "serialpos": 22, "key_press": -1, "wordID": 222, "type": "PRES_AUD", "trial_index": 139}, "uniqueid": "MTK3084:3ZY8KE4ISKA8XYRRTTH8WU1DGBQVQB", "dateTime": 1520013009871}, {"current_trial": 140, "trialdata": {"rt": -1000, "trial_type": "single-audio", "word": "thief", "stimulus": "/static/audio/wordpool/THIEF.wav", "conditions": [24, 1600, "a", 24000], "internal_node_id": "0.0-104.0", "trial": 3, "time_elapsed": 975801, "serialpos": 23, "key_press": -1, "wordID": 1455, "type": "PRES_AUD", "trial_index": 140}, "uniqueid": "MTK3084:3ZY8KE4ISKA8XYRRTTH8WU1DGBQVQB", "dateTime": 1520013012450}, {"current_trial": 141, "trialdata": {"rt": -1, "trial_type": "single-stim", "stimulus": "", "internal_node_id": "0.0-105.0-0.0", "time_elapsed": 977176, "key_press": -1, "type": "PRE_RECALL_DELAY", "trial_index": 141}, "uniqueid": "MTK3084:3ZY8KE4ISKA8XYRRTTH8WU1DGBQVQB", "dateTime": 1520013013825}, {"current_trial": 142, "trialdata": {"rt": -1000, "trial_type": "single-audio", "stimulus": "/static/audio/400Hz.wav", "internal_node_id": "0.0-106.0", "time_elapsed": 977683, "key_press": -1, "type": "PRE_RECALL_ALERT", "trial_index": 142}, "uniqueid": "MTK3084:3ZY8KE4ISKA8XYRRTTH8WU1DGBQVQB", "dateTime": 1520013014332}, {"current_trial": 143, "trialdata": {"rt": [1741, 4528, 8157, 12553, 16382, 19729, 22185, 24821, 26137, 27850, 30186, 35945, 50077], "recwords": ["beef", "garlic", "cabbage", "parsly", "suitcase", "novel", "mildew", "fungus", "baby", "bacon", "finger", "blast", "finger"], "key_times": [816, 1062, 1215, 1479, 1741, 2037, 2447, 2741, 3112, 3391, 4176, 4528, 6408, 6681, 6989, 7121, 7257, 7542, 7834, 8157, 9103, 9263, 9475, 10026, 10325, 11458, 12553, 13508, 13805, 13994, 14216, 14569, 14849, 15069, 15295, 16382, 18325, 18764, 18957, 19232, 19509, 19729, 20755, 20963, 21189, 21434, 21680, 21899, 22185, 23171, 23400, 23632, 23884, 24105, 24594, 24821, 25151, 25372, 25570, 25893, 26137, 26695, 26952, 27206, 27431, 27658, 27850, 28156, 28378, 28575, 28803, 29023, 29252, 30186, 34156, 34645, 34918, 35111, 35455, 35945, 48072, 48227, 48425, 48722, 48954, 49667, 50077], "trial_type": "free-recall", "conditions": [24, 1600, "a", 24000], "internal_node_id": "0.0-107.0-0.0", "key_presses": [66, 69, 69, 70, 32, 71, 65, 82, 76, 73, 67, 32, 67, 65, 66, 66, 65, 71, 69, 32, 80, 65, 82, 83, 76, 89, 32, 83, 85, 73, 84, 67, 65, 83, 69, 32, 78, 79, 86, 69, 76, 32, 77, 73, 76, 68, 69, 87, 32, 70, 85, 78, 71, 85, 83, 32, 66, 65, 66, 89, 32, 66, 65, 67, 79, 78, 32, 70, 73, 78, 71, 69, 82, 32, 66, 76, 65, 83, 84, 32, 70, 73, 78, 71, 69, 82, 32], "trial": 3, "time_elapsed": 1037688, "type": "FREE_RECALL", "trial_index": 143}, "uniqueid": "MTK3084:3ZY8KE4ISKA8XYRRTTH8WU1DGBQVQB", "dateTime": 1520013074340}, {"current_trial": 144, "trialdata": {"rt": 5327, "trial_type": "text", "internal_node_id": "0.0-108.0", "time_elapsed": 1045022, "key_press": 32, "type": "INSTRUCTIONS", "trial_index": 144}, "uniqueid": "MTK3084:3ZY8KE4ISKA8XYRRTTH8WU1DGBQVQB", "dateTime": 1520013081671}, {"current_trial": 145, "trialdata": {"rt": [5919, 8772, 11909], "trial_type": "math-distractor", "key_times": [5233, 5556, 5919, 8390, 8772, 11418, 11608, 11909], "responses": ["20", "8", "11"], "num2": [9, 2, 8, 2], "num3": [6, 3, 2, 1], "conditions": [12, 1600, "a", 12000], "internal_node_id": "0.0-109.0", "key_presses": [98, 96, 13, 104, 13, 97, 97, 13], "trial": 4, "time_elapsed": 1059027, "type": "DISTRACTOR", "trial_index": 145, "num1": [8, 3, 1, 9]}, "uniqueid": "MTK3084:3ZY8KE4ISKA8XYRRTTH8WU1DGBQVQB", "dateTime": 1520013095676}, {"current_trial": 146, "trialdata": {"rt": -1, "trial_type": "single-stim", "stimulus": "<p id=\"stim\">10</p>", "internal_node_id": "0.0-110.0-0.0", "time_elapsed": 1062032, "key_press": -1, "trial_index": 146}, "uniqueid": "MTK3084:3ZY8KE4ISKA8XYRRTTH8WU1DGBQVQB", "dateTime": 1520013098681}, {"current_trial": 147, "trialdata": {"rt": -1, "trial_type": "single-stim", "stimulus": "<p id=\"stim\">9</p>", "internal_node_id": "0.0-110.0-1.0", "time_elapsed": 1063034, "key_press": -1, "trial_index": 147}, "uniqueid": "MTK3084:3ZY8KE4ISKA8XYRRTTH8WU1DGBQVQB", "dateTime": 1520013099683}, {"current_trial": 148, "trialdata": {"rt": -1, "trial_type": "single-stim", "stimulus": "<p id=\"stim\">8</p>", "internal_node_id": "0.0-110.0-2.0", "time_elapsed": 1064037, "key_press": -1, "trial_index": 148}, "uniqueid": "MTK3084:3ZY8KE4ISKA8XYRRTTH8WU1DGBQVQB", "dateTime": 1520013100686}, {"current_trial": 149, "trialdata": {"rt": -1, "trial_type": "single-stim", "stimulus": "<p id=\"stim\">7</p>", "internal_node_id": "0.0-110.0-3.0", "time_elapsed": 1065038, "key_press": -1, "trial_index": 149}, "uniqueid": "MTK3084:3ZY8KE4ISKA8XYRRTTH8WU1DGBQVQB", "dateTime": 1520013101688}, {"current_trial": 150, "trialdata": {"rt": -1, "trial_type": "single-stim", "stimulus": "<p id=\"stim\">6</p>", "internal_node_id": "0.0-110.0-4.0", "time_elapsed": 1066041, "key_press": -1, "trial_index": 150}, "uniqueid": "MTK3084:3ZY8KE4ISKA8XYRRTTH8WU1DGBQVQB", "dateTime": 1520013102690}, {"current_trial": 151, "trialdata": {"rt": -1, "trial_type": "single-stim", "stimulus": "<p id=\"stim\">5</p>", "internal_node_id": "0.0-110.0-5.0", "time_elapsed": 1067044, "key_press": -1, "trial_index": 151}, "uniqueid": "MTK3084:3ZY8KE4ISKA8XYRRTTH8WU1DGBQVQB", "dateTime": 1520013103693}, {"current_trial": 152, "trialdata": {"rt": -1, "trial_type": "single-stim", "stimulus": "<p id=\"stim\">4</p>", "internal_node_id": "0.0-110.0-6.0", "time_elapsed": 1068047, "key_press": -1, "trial_index": 152}, "uniqueid": "MTK3084:3ZY8KE4ISKA8XYRRTTH8WU1DGBQVQB", "dateTime": 1520013104697}, {"current_trial": 153, "trialdata": {"rt": -1, "trial_type": "single-stim", "stimulus": "<p id=\"stim\">3</p>", "internal_node_id": "0.0-110.0-7.0", "time_elapsed": 1069049, "key_press": -1, "trial_index": 153}, "uniqueid": "MTK3084:3ZY8KE4ISKA8XYRRTTH8WU1DGBQVQB", "dateTime": 1520013105698}, {"current_trial": 154, "trialdata": {"rt": -1, "trial_type": "single-stim", "stimulus": "<p id=\"stim\">2</p>", "internal_node_id": "0.0-110.0-8.0", "time_elapsed": 1070052, "key_press": -1, "trial_index": 154}, "uniqueid": "MTK3084:3ZY8KE4ISKA8XYRRTTH8WU1DGBQVQB", "dateTime": 1520013106701}, {"current_trial": 155, "trialdata": {"rt": -1, "trial_type": "single-stim", "stimulus": "<p id=\"stim\">1</p>", "internal_node_id": "0.0-110.0-9.0", "time_elapsed": 1071054, "key_press": -1, "trial_index": 155}, "uniqueid": "MTK3084:3ZY8KE4ISKA8XYRRTTH8WU1DGBQVQB", "dateTime": 1520013107703}, {"current_trial": 156, "trialdata": {"rt": -1, "trial_type": "single-stim", "stimulus": "<p id=\"stim\">+</p>", "internal_node_id": "0.0-111.0-0.0", "time_elapsed": 1072557, "key_press": -1, "type": "FIXATION", "trial_index": 156}, "uniqueid": "MTK3084:3ZY8KE4ISKA8XYRRTTH8WU1DGBQVQB", "dateTime": 1520013109206}, {"current_trial": 157, "trialdata": {"rt": -1000, "trial_type": "single-audio", "word": "ointment", "stimulus": "/static/audio/wordpool/OINTMENT.wav", "conditions": [12, 1600, "a", 12000], "internal_node_id": "0.0-112.0", "trial": 4, "time_elapsed": 1075100, "serialpos": 0, "key_press": -1, "wordID": 973, "type": "PRES_AUD", "trial_index": 157}, "uniqueid": "MTK3084:3ZY8KE4ISKA8XYRRTTH8WU1DGBQVQB", "dateTime": 1520013111749}, {"current_trial": 158, "trialdata": {"rt": -1000, "trial_type": "single-audio", "word": "sandwich", "stimulus": "/static/audio/wordpool/SANDWICH.wav", "conditions": [12, 1600, "a", 12000], "internal_node_id": "0.0-113.0", "trial": 4, "time_elapsed": 1077618, "serialpos": 1, "key_press": -1, "wordID": 1231, "type": "PRES_AUD", "trial_index": 158}, "uniqueid": "MTK3084:3ZY8KE4ISKA8XYRRTTH8WU1DGBQVQB", "dateTime": 1520013114269}, {"current_trial": 159, "trialdata": {"rt": -1000, "trial_type": "single-audio", "word": "lady", "stimulus": "/static/audio/wordpool/LADY.wav", "conditions": [12, 1600, "a", 12000], "internal_node_id": "0.0-114.0", "trial": 4, "time_elapsed": 1080070, "serialpos": 2, "key_press": -1, "wordID": 793, "type": "PRES_AUD", "trial_index": 159}, "uniqueid": "MTK3084:3ZY8KE4ISKA8XYRRTTH8WU1DGBQVQB", "dateTime": 1520013116719}, {"current_trial": 160, "trialdata": {"rt": -1000, "trial_type": "single-audio", "word": "woman", "stimulus": "/static/audio/wordpool/WOMAN.wav", "conditions": [12, 1600, "a", 12000], "internal_node_id": "0.0-115.0", "trial": 4, "time_elapsed": 1082551, "serialpos": 3, "key_press": -1, "wordID": 1619, "type": "PRES_AUD", "trial_index": 160}, "uniqueid": "MTK3084:3ZY8KE4ISKA8XYRRTTH8WU1DGBQVQB", "dateTime": 1520013119200}, {"current_trial": 161, "trialdata": {"rt": -1000, "trial_type": "single-audio", "word": "lipstick", "stimulus": "/static/audio/wordpool/LIPSTICK.wav", "conditions": [12, 1600, "a", 12000], "internal_node_id": "0.0-116.0", "trial": 4, "time_elapsed": 1085030, "serialpos": 4, "key_press": -1, "wordID": 828, "type": "PRES_AUD", "trial_index": 161}, "uniqueid": "MTK3084:3ZY8KE4ISKA8XYRRTTH8WU1DGBQVQB", "dateTime": 1520013121679}, {"current_trial": 162, "trialdata": {"rt": -1000, "trial_type": "single-audio", "word": "antler", "stimulus": "/static/audio/wordpool/ANTLER.wav", "conditions": [12, 1600, "a", 12000], "internal_node_id": "0.0-117.0", "trial": 4, "time_elapsed": 1087525, "serialpos": 5, "key_press": -1, "wordID": 28, "type": "PRES_AUD", "trial_index": 162}, "uniqueid": "MTK3084:3ZY8KE4ISKA8XYRRTTH8WU1DGBQVQB", "dateTime": 1520013124174}, {"current_trial": 163, "trialdata": {"rt": -1000, "trial_type": "single-audio", "word": "muffin", "stimulus": "/static/audio/wordpool/MUFFIN.wav", "conditions": [12, 1600, "a", 12000], "internal_node_id": "0.0-118.0", "trial": 4, "time_elapsed": 1090267, "serialpos": 6, "key_press": -1, "wordID": 928, "type": "PRES_AUD", "trial_index": 163}, "uniqueid": "MTK3084:3ZY8KE4ISKA8XYRRTTH8WU1DGBQVQB", "dateTime": 1520013126916}, {"current_trial": 164, "trialdata": {"rt": -1000, "trial_type": "single-audio", "word": "bubble", "stimulus": "/static/audio/wordpool/BUBBLE.wav", "conditions": [12, 1600, "a", 12000], "internal_node_id": "0.0-119.0", "trial": 4, "time_elapsed": 1092938, "serialpos": 7, "key_press": -1, "wordID": 182, "type": "PRES_AUD", "trial_index": 164}, "uniqueid": "MTK3084:3ZY8KE4ISKA8XYRRTTH8WU1DGBQVQB", "dateTime": 1520013129588}, {"current_trial": 165, "trialdata": {"rt": -1000, "trial_type": "single-audio", "word": "picture", "stimulus": "/static/audio/wordpool/PICTURE.wav", "conditions": [12, 1600, "a", 12000], "internal_node_id": "0.0-120.0", "trial": 4, "time_elapsed": 1095468, "serialpos": 8, "key_press": -1, "wordID": 1060, "type": "PRES_AUD", "trial_index": 165}, "uniqueid": "MTK3084:3ZY8KE4ISKA8XYRRTTH8WU1DGBQVQB", "dateTime": 1520013132118}, {"current_trial": 166, "trialdata": {"rt": -1000, "trial_type": "single-audio", "word": "turkey", "stimulus": "/static/audio/wordpool/TURKEY.wav", "conditions": [12, 1600, "a", 12000], "internal_node_id": "0.0-121.0", "trial": 4, "time_elapsed": 1098061, "serialpos": 9, "key_press": -1, "wordID": 1519, "type": "PRES_AUD", "trial_index": 166}, "uniqueid": "MTK3084:3ZY8KE4ISKA8XYRRTTH8WU1DGBQVQB", "dateTime": 1520013134710}, {"current_trial": 167, "trialdata": {"rt": -1000, "trial_type": "single-audio", "word": "shrub", "stimulus": "/static/audio/wordpool/SHRUB.wav", "conditions": [12, 1600, "a", 12000], "internal_node_id": "0.0-122.0", "trial": 4, "time_elapsed": 1100700, "serialpos": 10, "key_press": -1, "wordID": 1298, "type": "PRES_AUD", "trial_index": 167}, "uniqueid": "MTK3084:3ZY8KE4ISKA8XYRRTTH8WU1DGBQVQB", "dateTime": 1520013137349}, {"current_trial": 168, "trialdata": {"rt": -1000, "trial_type": "single-audio", "word": "forest", "stimulus": "/static/audio/wordpool/FOREST.wav", "conditions": [12, 1600, "a", 12000], "internal_node_id": "0.0-123.0", "trial": 4, "time_elapsed": 1103222, "serialpos": 11, "key_press": -1, "wordID": 592, "type": "PRES_AUD", "trial_index": 168}, "uniqueid": "MTK3084:3ZY8KE4ISKA8XYRRTTH8WU1DGBQVQB", "dateTime": 1520013139871}, {"current_trial": 169, "trialdata": {"rt": -1, "trial_type": "single-stim", "stimulus": "", "internal_node_id": "0.0-124.0-0.0", "time_elapsed": 1104508, "key_press": -1, "type": "PRE_RECALL_DELAY", "trial_index": 169}, "uniqueid": "MTK3084:3ZY8KE4ISKA8XYRRTTH8WU1DGBQVQB", "dateTime": 1520013141158}, {"current_trial": 170, "trialdata": {"rt": -1000, "trial_type": "single-audio", "stimulus": "/static/audio/400Hz.wav", "internal_node_id": "0.0-125.0", "time_elapsed": 1105011, "key_press": -1, "type": "PRE_RECALL_ALERT", "trial_index": 170}, "uniqueid": "MTK3084:3ZY8KE4ISKA8XYRRTTH8WU1DGBQVQB", "dateTime": 1520013141660}, {"current_trial": 171, "trialdata": {"rt": [3811, 5766, 7891, 10891, 16964, 21870, 23791, 29783, 32425, 45234, 51000], "recwords": ["shrub", "forest", "baby", "woman", "picture", "shrub", "forest", "antler", "finger", "ointment", "lipstick"], "key_times": [2419, 2589, 2919, 3154, 3486, 3811, 4033, 4521, 4738, 5025, 5264, 5511, 5766, 6011, 6261, 6465, 6699, 7891, 8794, 8988, 9207, 9413, 9735, 10891, 15299, 15521, 15703, 15969, 16237, 16481, 16684, 16964, 20021, 20809, 21056, 21255, 21563, 21870, 22207, 22421, 22596, 22801, 23148, 23424, 23791, 27606, 27803, 28044, 28304, 28500, 28699, 29783, 30570, 30788, 30970, 31385, 31603, 31795, 32425, 42917, 43210, 43474, 44277, 44619, 44788, 44912, 45078, 45234, 45614, 46123, 46364, 47187, 47368, 47760, 48301, 48533, 48780, 49043, 49297, 49454, 49684, 50117, 51000, 56140, 56356, 56562, 56855, 57100, 57638, 58007, 58579, 58797, 59465, 59830], "trial_type": "free-recall", "conditions": [12, 1600, "a", 12000], "internal_node_id": "0.0-126.0-0.0", "key_presses": [83, 72, 82, 85, 66, 32, 70, 79, 82, 69, 83, 84, 32, 66, 65, 66, 89, 32, 87, 79, 77, 65, 78, 32, 80, 73, 67, 84, 85, 82, 69, 32, 83, 72, 82, 85, 66, 32, 70, 79, 82, 69, 83, 84, 32, 65, 78, 84, 76, 69, 82, 32, 70, 73, 78, 71, 69, 82, 32, 79, 73, 78, 84, 77, 69, 78, 84, 32, 70, 73, 76, 8, 8, 8, 76, 73, 80, 83, 84, 73, 67, 75, 32, 83, 65, 78, 68, 87, 67, 72, 8, 8, 73, 84], "trial": 4, "time_elapsed": 1165015, "type": "FREE_RECALL", "trial_index": 171}, "uniqueid": "MTK3084:3ZY8KE4ISKA8XYRRTTH8WU1DGBQVQB", "dateTime": 1520013201669}, {"current_trial": 172, "trialdata": {"rt": 2841, "trial_type": "text", "internal_node_id": "0.0-127.0", "time_elapsed": 1169863, "key_press": 32, "type": "INSTRUCTIONS", "trial_index": 172}, "uniqueid": "MTK3084:3ZY8KE4ISKA8XYRRTTH8WU1DGBQVQB", "dateTime": 1520013206512}, {"current_trial": 173, "trialdata": {"rt": [4312, 6630, 13324, 18317, 21567], "trial_type": "math-distractor", "key_times": [3291, 3532, 4312, 6115, 6255, 6630, 12759, 12945, 13324, 17616, 17978, 18317, 20848, 21130, 21567], "responses": ["18", "11", "18", "16", "18"], "num2": [3, 5, 9, 8, 7, 4], "num3": [9, 1, 3, 5, 8, 5], "conditions": [12, 800, "a", 24000], "internal_node_id": "0.0-128.0", "key_presses": [97, 104, 13, 97, 97, 13, 97, 104, 13, 97, 102, 13, 97, 104, 13], "trial": 5, "time_elapsed": 1195870, "type": "DISTRACTOR", "trial_index": 173, "num1": [6, 5, 6, 3, 3, 2]}, "uniqueid": "MTK3084:3ZY8KE4ISKA8XYRRTTH8WU1DGBQVQB", "dateTime": 1520013232519}, {"current_trial": 174, "trialdata": {"rt": -1, "trial_type": "single-stim", "stimulus": "<p id=\"stim\">10</p>", "internal_node_id": "0.0-129.0-0.0", "time_elapsed": 1198873, "key_press": -1, "trial_index": 174}, "uniqueid": "MTK3084:3ZY8KE4ISKA8XYRRTTH8WU1DGBQVQB", "dateTime": 1520013235522}, {"current_trial": 175, "trialdata": {"rt": -1, "trial_type": "single-stim", "stimulus": "<p id=\"stim\">9</p>", "internal_node_id": "0.0-129.0-1.0", "time_elapsed": 1199875, "key_press": -1, "trial_index": 175}, "uniqueid": "MTK3084:3ZY8KE4ISKA8XYRRTTH8WU1DGBQVQB", "dateTime": 1520013236525}, {"current_trial": 176, "trialdata": {"rt": -1, "trial_type": "single-stim", "stimulus": "<p id=\"stim\">8</p>", "internal_node_id": "0.0-129.0-2.0", "time_elapsed": 1200879, "key_press": -1, "trial_index": 176}, "uniqueid": "MTK3084:3ZY8KE4ISKA8XYRRTTH8WU1DGBQVQB", "dateTime": 1520013237528}, {"current_trial": 177, "trialdata": {"rt": -1, "trial_type": "single-stim", "stimulus": "<p id=\"stim\">7</p>", "internal_node_id": "0.0-129.0-3.0", "time_elapsed": 1201883, "key_press": -1, "trial_index": 177}, "uniqueid": "MTK3084:3ZY8KE4ISKA8XYRRTTH8WU1DGBQVQB", "dateTime": 1520013238532}, {"current_trial": 178, "trialdata": {"rt": -1, "trial_type": "single-stim", "stimulus": "<p id=\"stim\">6</p>", "internal_node_id": "0.0-129.0-4.0", "time_elapsed": 1202885, "key_press": -1, "trial_index": 178}, "uniqueid": "MTK3084:3ZY8KE4ISKA8XYRRTTH8WU1DGBQVQB", "dateTime": 1520013239534}, {"current_trial": 179, "trialdata": {"rt": -1, "trial_type": "single-stim", "stimulus": "<p id=\"stim\">5</p>", "internal_node_id": "0.0-129.0-5.0", "time_elapsed": 1203889, "key_press": -1, "trial_index": 179}, "uniqueid": "MTK3084:3ZY8KE4ISKA8XYRRTTH8WU1DGBQVQB", "dateTime": 1520013240538}, {"current_trial": 180, "trialdata": {"rt": -1, "trial_type": "single-stim", "stimulus": "<p id=\"stim\">4</p>", "internal_node_id": "0.0-129.0-6.0", "time_elapsed": 1204892, "key_press": -1, "trial_index": 180}, "uniqueid": "MTK3084:3ZY8KE4ISKA8XYRRTTH8WU1DGBQVQB", "dateTime": 1520013241541}, {"current_trial": 181, "trialdata": {"rt": -1, "trial_type": "single-stim", "stimulus": "<p id=\"stim\">3</p>", "internal_node_id": "0.0-129.0-7.0", "time_elapsed": 1205894, "key_press": -1, "trial_index": 181}, "uniqueid": "MTK3084:3ZY8KE4ISKA8XYRRTTH8WU1DGBQVQB", "dateTime": 1520013242543}, {"current_trial": 182, "trialdata": {"rt": -1, "trial_type": "single-stim", "stimulus": "<p id=\"stim\">2</p>", "internal_node_id": "0.0-129.0-8.0", "time_elapsed": 1206897, "key_press": -1, "trial_index": 182}, "uniqueid": "MTK3084:3ZY8KE4ISKA8XYRRTTH8WU1DGBQVQB", "dateTime": 1520013243547}, {"current_trial": 183, "trialdata": {"rt": -1, "trial_type": "single-stim", "stimulus": "<p id=\"stim\">1</p>", "internal_node_id": "0.0-129.0-9.0", "time_elapsed": 1207899, "key_press": -1, "trial_index": 183}, "uniqueid": "MTK3084:3ZY8KE4ISKA8XYRRTTH8WU1DGBQVQB", "dateTime": 1520013244548}, {"current_trial": 184, "trialdata": {"rt": -1, "trial_type": "single-stim", "stimulus": "<p id=\"stim\">+</p>", "internal_node_id": "0.0-130.0-0.0", "time_elapsed": 1209402, "key_press": -1, "type": "FIXATION", "trial_index": 184}, "uniqueid": "MTK3084:3ZY8KE4ISKA8XYRRTTH8WU1DGBQVQB", "dateTime": 1520013246051}, {"current_trial": 185, "trialdata": {"rt": -1000, "trial_type": "single-audio", "word": "lightning", "stimulus": "/static/audio/wordpool/LIGHTNING.wav", "conditions": [12, 800, "a", 24000], "internal_node_id": "0.0-131.0", "trial": 5, "time_elapsed": 1211128, "serialpos": 0, "key_press": -1, "wordID": 819, "type": "PRES_AUD", "trial_index": 185}, "uniqueid": "MTK3084:3ZY8KE4ISKA8XYRRTTH8WU1DGBQVQB", "dateTime": 1520013247777}, {"current_trial": 186, "trialdata": {"rt": -1000, "trial_type": "single-audio", "word": "partner", "stimulus": "/static/audio/wordpool/PARTNER.wav", "conditions": [12, 800, "a", 24000], "internal_node_id": "0.0-132.0", "trial": 5, "time_elapsed": 1212931, "serialpos": 1, "key_press": -1, "wordID": 1016, "type": "PRES_AUD", "trial_index": 186}, "uniqueid": "MTK3084:3ZY8KE4ISKA8XYRRTTH8WU1DGBQVQB", "dateTime": 1520013249580}, {"current_trial": 187, "trialdata": {"rt": -1000, "trial_type": "single-audio", "word": "brother", "stimulus": "/static/audio/wordpool/BROTHER.wav", "conditions": [12, 800, "a", 24000], "internal_node_id": "0.0-133.0", "trial": 5, "time_elapsed": 1214742, "serialpos": 2, "key_press": -1, "wordID": 178, "type": "PRES_AUD", "trial_index": 187}, "uniqueid": "MTK3084:3ZY8KE4ISKA8XYRRTTH8WU1DGBQVQB", "dateTime": 1520013251391}, {"current_trial": 188, "trialdata": {"rt": -1000, "trial_type": "single-audio", "word": "glove", "stimulus": "/static/audio/wordpool/GLOVE.wav", "conditions": [12, 800, "a", 24000], "internal_node_id": "0.0-134.0", "trial": 5, "time_elapsed": 1216704, "serialpos": 3, "key_press": -1, "wordID": 641, "type": "PRES_AUD", "trial_index": 188}, "uniqueid": "MTK3084:3ZY8KE4ISKA8XYRRTTH8WU1DGBQVQB", "dateTime": 1520013253353}, {"current_trial": 189, "trialdata": {"rt": -1000, "trial_type": "single-audio", "word": "female", "stimulus": "/static/audio/wordpool/FEMALE.wav", "conditions": [12, 800, "a", 24000], "internal_node_id": "0.0-135.0", "trial": 5, "time_elapsed": 1218669, "serialpos": 4, "key_press": -1, "wordID": 558, "type": "PRES_AUD", "trial_index": 189}, "uniqueid": "MTK3084:3ZY8KE4ISKA8XYRRTTH8WU1DGBQVQB", "dateTime": 1520013255318}, {"current_trial": 190, "trialdata": {"rt": -1000, "trial_type": "single-audio", "word": "husband", "stimulus": "/static/audio/wordpool/HUSBAND.wav", "conditions": [12, 800, "a", 24000], "internal_node_id": "0.0-136.0", "trial": 5, "time_elapsed": 1220661, "serialpos": 5, "key_press": -1, "wordID": 727, "type": "PRES_AUD", "trial_index": 190}, "uniqueid": "MTK3084:3ZY8KE4ISKA8XYRRTTH8WU1DGBQVQB", "dateTime": 1520013257311}, {"current_trial": 191, "trialdata": {"rt": -1000, "trial_type": "single-audio", "word": "boyfriend", "stimulus": "/static/audio/wordpool/BOYFRIEND.wav", "conditions": [12, 800, "a", 24000], "internal_node_id": "0.0-137.0", "trial": 5, "time_elapsed": 1222638, "serialpos": 6, "key_press": -1, "wordID": 161, "type": "PRES_AUD", "trial_index": 191}, "uniqueid": "MTK3084:3ZY8KE4ISKA8XYRRTTH8WU1DGBQVQB", "dateTime": 1520013259289}, {"current_trial": 192, "trialdata": {"rt": -1000, "trial_type": "single-audio", "word": "widow", "stimulus": "/static/audio/wordpool/WIDOW.wav", "conditions": [12, 800, "a", 24000], "internal_node_id": "0.0-138.0", "trial": 5, "time_elapsed": 1224371, "serialpos": 7, "key_press": -1, "wordID": 1607, "type": "PRES_AUD", "trial_index": 192}, "uniqueid": "MTK3084:3ZY8KE4ISKA8XYRRTTH8WU1DGBQVQB", "dateTime": 1520013261021}, {"current_trial": 193, "trialdata": {"rt": -1000, "trial_type": "single-audio", "word": "canyon", "stimulus": "/static/audio/wordpool/CANYON.wav", "conditions": [12, 800, "a", 24000], "internal_node_id": "0.0-139.0", "trial": 5, "time_elapsed": 1226221, "serialpos": 8, "key_press": -1, "wordID": 234, "type": "PRES_AUD", "trial_index": 193}, "uniqueid": "MTK3084:3ZY8KE4ISKA8XYRRTTH8WU1DGBQVQB", "dateTime": 1520013262870}, {"current_trial": 194, "trialdata": {"rt": -1000, "trial_type": "single-audio", "word": "hawk", "stimulus": "/static/audio/wordpool/HAWK.wav", "conditions": [12, 800, "a", 24000], "internal_node_id": "0.0-140.0", "trial": 5, "time_elapsed": 1228166, "serialpos": 9, "key_press": -1, "wordID": 691, "type": "PRES_AUD", "trial_index": 194}, "uniqueid": "MTK3084:3ZY8KE4ISKA8XYRRTTH8WU1DGBQVQB", "dateTime": 1520013264815}, {"current_trial": 195, "trialdata": {"rt": -1000, "trial_type": "single-audio", "word": "student", "stimulus": "/static/audio/wordpool/STUDENT.wav", "conditions": [12, 800, "a", 24000], "internal_node_id": "0.0-141.0", "trial": 5, "time_elapsed": 1229915, "serialpos": 10, "key_press": -1, "wordID": 1394, "type": "PRES_AUD", "trial_index": 195}, "uniqueid": "MTK3084:3ZY8KE4ISKA8XYRRTTH8WU1DGBQVQB", "dateTime": 1520013266564}, {"current_trial": 196, "trialdata": {"rt": -1000, "trial_type": "single-audio", "word": "wife", "stimulus": "/static/audio/wordpool/WIFE.wav", "conditions": [12, 800, "a", 24000], "internal_node_id": "0.0-142.0", "trial": 5, "time_elapsed": 1231589, "serialpos": 11, "key_press": -1, "wordID": 1608, "type": "PRES_AUD", "trial_index": 196}, "uniqueid": "MTK3084:3ZY8KE4ISKA8XYRRTTH8WU1DGBQVQB", "dateTime": 1520013268238}, {"current_trial": 197, "trialdata": {"rt": -1, "trial_type": "single-stim", "stimulus": "", "internal_node_id": "0.0-143.0-0.0", "time_elapsed": 1232861, "key_press": -1, "type": "PRE_RECALL_DELAY", "trial_index": 197}, "uniqueid": "MTK3084:3ZY8KE4ISKA8XYRRTTH8WU1DGBQVQB", "dateTime": 1520013269510}, {"current_trial": 198, "trialdata": {"rt": -1000, "trial_type": "single-audio", "stimulus": "/static/audio/400Hz.wav", "internal_node_id": "0.0-144.0", "time_elapsed": 1233368, "key_press": -1, "type": "PRE_RECALL_ALERT", "trial_index": 198}, "uniqueid": "MTK3084:3ZY8KE4ISKA8XYRRTTH8WU1DGBQVQB", "dateTime": 1520013270017}, {"current_trial": 199, "trialdata": {"rt": [3019, 6147, 8799, 10839, 25695, 34460], "recwords": ["husband", "boyfriend", "student", "wife", "hoss", "widow"], "key_times": [1475, 1730, 2077, 2388, 2542, 2683, 2843, 3019, 3296, 3680, 4026, 4419, 4690, 4873, 5037, 5246, 5409, 6147, 6491, 6986, 7217, 7671, 7865, 8012, 8211, 8799, 9072, 9351, 9699, 9930, 10839, 18464, 21750, 24294, 24498, 25695, 32016, 32244, 32510, 33432, 33754, 34460], "trial_type": "free-recall", "conditions": [12, 800, "a", 24000], "internal_node_id": "0.0-145.0-0.0", "key_presses": [72, 85, 83, 66, 65, 78, 68, 32, 66, 79, 89, 70, 82, 73, 69, 78, 68, 32, 83, 84, 85, 68, 69, 78, 84, 32, 87, 73, 70, 69, 32, 72, 79, 83, 83, 32, 87, 73, 68, 79, 87, 32], "trial": 5, "time_elapsed": 1293376, "type": "FREE_RECALL", "trial_index": 199}, "uniqueid": "MTK3084:3ZY8KE4ISKA8XYRRTTH8WU1DGBQVQB", "dateTime": 1520013330030}, {"current_trial": 200, "trialdata": {"rt": 5119, "trial_type": "text", "internal_node_id": "0.0-146.0", "time_elapsed": 1300503, "key_press": 32, "type": "INSTRUCTIONS", "trial_index": 200}, "uniqueid": "MTK3084:3ZY8KE4ISKA8XYRRTTH8WU1DGBQVQB", "dateTime": 1520013337152}, {"current_trial": 201, "trialdata": {"rt": [2651, 11383, 14459, 19725, 23322], "trial_type": "math-distractor", "key_times": [1780, 1982, 2651, 10772, 10946, 11383, 13889, 14073, 14459, 19302, 19438, 19725, 22642, 22856, 23322], "responses": ["15", "20", "10", "11", "12"], "num2": [5, 8, 2, 6, 3, 8], "num3": [5, 7, 3, 2, 8, 4], "conditions": [12, 800, "a", 24000], "internal_node_id": "0.0-147.0", "key_presses": [97, 101, 13, 98, 96, 13, 97, 96, 13, 97, 97, 13, 97, 98, 13], "trial": 6, "time_elapsed": 1326509, "type": "DISTRACTOR", "trial_index": 201, "num1": [5, 5, 5, 3, 2, 2]}, "uniqueid": "MTK3084:3ZY8KE4ISKA8XYRRTTH8WU1DGBQVQB", "dateTime": 1520013363159}, {"current_trial": 202, "trialdata": {"rt": -1, "trial_type": "single-stim", "stimulus": "<p id=\"stim\">10</p>", "internal_node_id": "0.0-148.0-0.0", "time_elapsed": 1329514, "key_press": -1, "trial_index": 202}, "uniqueid": "MTK3084:3ZY8KE4ISKA8XYRRTTH8WU1DGBQVQB", "dateTime": 1520013366163}, {"current_trial": 203, "trialdata": {"rt": -1, "trial_type": "single-stim", "stimulus": "<p id=\"stim\">9</p>", "internal_node_id": "0.0-148.0-1.0", "time_elapsed": 1330516, "key_press": -1, "trial_index": 203}, "uniqueid": "MTK3084:3ZY8KE4ISKA8XYRRTTH8WU1DGBQVQB", "dateTime": 1520013367165}, {"current_trial": 204, "trialdata": {"rt": -1, "trial_type": "single-stim", "stimulus": "<p id=\"stim\">8</p>", "internal_node_id": "0.0-148.0-2.0", "time_elapsed": 1331519, "key_press": -1, "trial_index": 204}, "uniqueid": "MTK3084:3ZY8KE4ISKA8XYRRTTH8WU1DGBQVQB", "dateTime": 1520013368168}, {"current_trial": 205, "trialdata": {"rt": -1, "trial_type": "single-stim", "stimulus": "<p id=\"stim\">7</p>", "internal_node_id": "0.0-148.0-3.0", "time_elapsed": 1332522, "key_press": -1, "trial_index": 205}, "uniqueid": "MTK3084:3ZY8KE4ISKA8XYRRTTH8WU1DGBQVQB", "dateTime": 1520013369171}, {"current_trial": 206, "trialdata": {"rt": -1, "trial_type": "single-stim", "stimulus": "<p id=\"stim\">6</p>", "internal_node_id": "0.0-148.0-4.0", "time_elapsed": 1333525, "key_press": -1, "trial_index": 206}, "uniqueid": "MTK3084:3ZY8KE4ISKA8XYRRTTH8WU1DGBQVQB", "dateTime": 1520013370175}, {"current_trial": 207, "trialdata": {"rt": -1, "trial_type": "single-stim", "stimulus": "<p id=\"stim\">5</p>", "internal_node_id": "0.0-148.0-5.0", "time_elapsed": 1334527, "key_press": -1, "trial_index": 207}, "uniqueid": "MTK3084:3ZY8KE4ISKA8XYRRTTH8WU1DGBQVQB", "dateTime": 1520013371177}, {"current_trial": 208, "trialdata": {"rt": -1, "trial_type": "single-stim", "stimulus": "<p id=\"stim\">4</p>", "internal_node_id": "0.0-148.0-6.0", "time_elapsed": 1335530, "key_press": -1, "trial_index": 208}, "uniqueid": "MTK3084:3ZY8KE4ISKA8XYRRTTH8WU1DGBQVQB", "dateTime": 1520013372180}, {"current_trial": 209, "trialdata": {"rt": -1, "trial_type": "single-stim", "stimulus": "<p id=\"stim\">3</p>", "internal_node_id": "0.0-148.0-7.0", "time_elapsed": 1336533, "key_press": -1, "trial_index": 209}, "uniqueid": "MTK3084:3ZY8KE4ISKA8XYRRTTH8WU1DGBQVQB", "dateTime": 1520013373182}, {"current_trial": 210, "trialdata": {"rt": -1, "trial_type": "single-stim", "stimulus": "<p id=\"stim\">2</p>", "internal_node_id": "0.0-148.0-8.0", "time_elapsed": 1337536, "key_press": -1, "trial_index": 210}, "uniqueid": "MTK3084:3ZY8KE4ISKA8XYRRTTH8WU1DGBQVQB", "dateTime": 1520013374185}, {"current_trial": 211, "trialdata": {"rt": -1, "trial_type": "single-stim", "stimulus": "<p id=\"stim\">1</p>", "internal_node_id": "0.0-148.0-9.0", "time_elapsed": 1338538, "key_press": -1, "trial_index": 211}, "uniqueid": "MTK3084:3ZY8KE4ISKA8XYRRTTH8WU1DGBQVQB", "dateTime": 1520013375188}, {"current_trial": 212, "trialdata": {"rt": -1, "trial_type": "single-stim", "stimulus": "<p id=\"stim\">+</p>", "internal_node_id": "0.0-149.0-0.0", "time_elapsed": 1340041, "key_press": -1, "type": "FIXATION", "trial_index": 212}, "uniqueid": "MTK3084:3ZY8KE4ISKA8XYRRTTH8WU1DGBQVQB", "dateTime": 1520013376690}, {"current_trial": 213, "trialdata": {"rt": -1000, "trial_type": "single-audio", "word": "orchid", "stimulus": "/static/audio/wordpool/ORCHID.wav", "conditions": [12, 800, "a", 24000], "internal_node_id": "0.0-150.0", "trial": 6, "time_elapsed": 1341916, "serialpos": 0, "key_press": -1, "wordID": 981, "type": "PRES_AUD", "trial_index": 213}, "uniqueid": "MTK3084:3ZY8KE4ISKA8XYRRTTH8WU1DGBQVQB", "dateTime": 1520013378565}, {"current_trial": 214, "trialdata": {"rt": -1000, "trial_type": "single-audio", "word": "award", "stimulus": "/static/audio/wordpool/AWARD.wav", "conditions": [12, 800, "a", 24000], "internal_node_id": "0.0-151.0", "trial": 6, "time_elapsed": 1343650, "serialpos": 1, "key_press": -1, "wordID": 62, "type": "PRES_AUD", "trial_index": 214}, "uniqueid": "MTK3084:3ZY8KE4ISKA8XYRRTTH8WU1DGBQVQB", "dateTime": 1520013380299}, {"current_trial": 215, "trialdata": {"rt": -1000, "trial_type": "single-audio", "word": "marrow", "stimulus": "/static/audio/wordpool/MARROW.wav", "conditions": [12, 800, "a", 24000], "internal_node_id": "0.0-152.0", "trial": 6, "time_elapsed": 1345314, "serialpos": 2, "key_press": -1, "wordID": 871, "type": "PRES_AUD", "trial_index": 215}, "uniqueid": "MTK3084:3ZY8KE4ISKA8XYRRTTH8WU1DGBQVQB", "dateTime": 1520013381963}, {"current_trial": 216, "trialdata": {"rt": -1000, "trial_type": "single-audio", "word": "garden", "stimulus": "/static/audio/wordpool/GARDEN.wav", "conditions": [12, 800, "a", 24000], "internal_node_id": "0.0-153.0", "trial": 6, "time_elapsed": 1347139, "serialpos": 3, "key_press": -1, "wordID": 622, "type": "PRES_AUD", "trial_index": 216}, "uniqueid": "MTK3084:3ZY8KE4ISKA8XYRRTTH8WU1DGBQVQB", "dateTime": 1520013383788}, {"current_trial": 217, "trialdata": {"rt": -1000, "trial_type": "single-audio", "word": "banquet", "stimulus": "/static/audio/wordpool/BANQUET.wav", "conditions": [12, 800, "a", 24000], "internal_node_id": "0.0-154.0", "trial": 6, "time_elapsed": 1349097, "serialpos": 4, "key_press": -1, "wordID": 85, "type": "PRES_AUD", "trial_index": 217}, "uniqueid": "MTK3084:3ZY8KE4ISKA8XYRRTTH8WU1DGBQVQB", "dateTime": 1520013385746}, {"current_trial": 218, "trialdata": {"rt": -1000, "trial_type": "single-audio", "word": "mister", "stimulus": "/static/audio/wordpool/MISTER.wav", "conditions": [12, 800, "a", 24000], "internal_node_id": "0.0-155.0", "trial": 6, "time_elapsed": 1350877, "serialpos": 5, "key_press": -1, "wordID": 900, "type": "PRES_AUD", "trial_index": 218}, "uniqueid": "MTK3084:3ZY8KE4ISKA8XYRRTTH8WU1DGBQVQB", "dateTime": 1520013387526}, {"current_trial": 219, "trialdata": {"rt": -1000, "trial_type": "single-audio", "word": "valve", "stimulus": "/static/audio/wordpool/VALVE.wav", "conditions": [12, 800, "a", 24000], "internal_node_id": "0.0-156.0", "trial": 6, "time_elapsed": 1352544, "serialpos": 6, "key_press": -1, "wordID": 1545, "type": "PRES_AUD", "trial_index": 219}, "uniqueid": "MTK3084:3ZY8KE4ISKA8XYRRTTH8WU1DGBQVQB", "dateTime": 1520013389194}, {"current_trial": 220, "trialdata": {"rt": -1000, "trial_type": "single-audio", "word": "piston", "stimulus": "/static/audio/wordpool/PISTON.wav", "conditions": [12, 800, "a", 24000], "internal_node_id": "0.0-157.0", "trial": 6, "time_elapsed": 1354345, "serialpos": 7, "key_press": -1, "wordID": 1075, "type": "PRES_AUD", "trial_index": 220}, "uniqueid": "MTK3084:3ZY8KE4ISKA8XYRRTTH8WU1DGBQVQB", "dateTime": 1520013390995}, {"current_trial": 221, "trialdata": {"rt": -1000, "trial_type": "single-audio", "word": "barley", "stimulus": "/static/audio/wordpool/BARLEY.wav", "conditions": [12, 800, "a", 24000], "internal_node_id": "0.0-158.0", "trial": 6, "time_elapsed": 1356085, "serialpos": 8, "key_press": -1, "wordID": 87, "type": "PRES_AUD", "trial_index": 221}, "uniqueid": "MTK3084:3ZY8KE4ISKA8XYRRTTH8WU1DGBQVQB", "dateTime": 1520013392734}, {"current_trial": 222, "trialdata": {"rt": -1000, "trial_type": "single-audio", "word": "hedge", "stimulus": "/static/audio/wordpool/HEDGE.wav", "conditions": [12, 800, "a", 24000], "internal_node_id": "0.0-159.0", "trial": 6, "time_elapsed": 1358000, "serialpos": 9, "key_press": -1, "wordID": 698, "type": "PRES_AUD", "trial_index": 222}, "uniqueid": "MTK3084:3ZY8KE4ISKA8XYRRTTH8WU1DGBQVQB", "dateTime": 1520013394649}, {"current_trial": 223, "trialdata": {"rt": -1000, "trial_type": "single-audio", "word": "chest", "stimulus": "/static/audio/wordpool/CHEST.wav", "conditions": [12, 800, "a", 24000], "internal_node_id": "0.0-160.0", "trial": 6, "time_elapsed": 1359637, "serialpos": 10, "key_press": -1, "wordID": 294, "type": "PRES_AUD", "trial_index": 223}, "uniqueid": "MTK3084:3ZY8KE4ISKA8XYRRTTH8WU1DGBQVQB", "dateTime": 1520013396286}, {"current_trial": 224, "trialdata": {"rt": -1000, "trial_type": "single-audio", "word": "gift", "stimulus": "/static/audio/wordpool/GIFT.wav", "conditions": [12, 800, "a", 24000], "internal_node_id": "0.0-161.0", "trial": 6, "time_elapsed": 1361407, "serialpos": 11, "key_press": -1, "wordID": 634, "type": "PRES_AUD", "trial_index": 224}, "uniqueid": "MTK3084:3ZY8KE4ISKA8XYRRTTH8WU1DGBQVQB", "dateTime": 1520013398057}, {"current_trial": 225, "trialdata": {"rt": -1, "trial_type": "single-stim", "stimulus": "", "internal_node_id": "0.0-162.0-0.0", "time_elapsed": 1362784, "key_press": -1, "type": "PRE_RECALL_DELAY", "trial_index": 225}, "uniqueid": "MTK3084:3ZY8KE4ISKA8XYRRTTH8WU1DGBQVQB", "dateTime": 1520013399434}, {"current_trial": 226, "trialdata": {"rt": -1000, "trial_type": "single-audio", "stimulus": "/static/audio/400Hz.wav", "internal_node_id": "0.0-163.0", "time_elapsed": 1363287, "key_press": -1, "type": "PRE_RECALL_ALERT", "trial_index": 226}, "uniqueid": "MTK3084:3ZY8KE4ISKA8XYRRTTH8WU1DGBQVQB", "dateTime": 1520013399936}, {"current_trial": 227, "trialdata": {"rt": [2984, 4602, 7395, 9837, 15238, 17924, 21402, 24650, 27450, 32241], "recwords": ["hen", "chest", "gift", "barly", "marrow", "banquet", "marrow", "mister", "piston", "valve"], "key_times": [2021, 2248, 2562, 2984, 3552, 3716, 3903, 4151, 4432, 4602, 5812, 6074, 6483, 6752, 7395, 7747, 8006, 8557, 8796, 9070, 9837, 13181, 13408, 13794, 13965, 14189, 14681, 15238, 15481, 15695, 15880, 16464, 16696, 16910, 17298, 17924, 19641, 19817, 20085, 20262, 20476, 20707, 21402, 22936, 23421, 23735, 24000, 24220, 24395, 24650, 26108, 26344, 26536, 26786, 26974, 27207, 27450, 27869, 28168, 28382, 28883, 29132, 32241], "trial_type": "free-recall", "conditions": [12, 800, "a", 24000], "internal_node_id": "0.0-164.0-0.0", "key_presses": [72, 69, 78, 32, 67, 72, 69, 83, 84, 32, 71, 73, 70, 84, 32, 66, 65, 82, 76, 89, 32, 77, 65, 82, 82, 79, 87, 32, 66, 65, 78, 81, 85, 69, 84, 32, 77, 65, 82, 82, 79, 87, 32, 77, 73, 83, 84, 69, 82, 32, 80, 73, 83, 84, 79, 78, 32, 86, 65, 76, 86, 69, 32], "trial": 6, "time_elapsed": 1423296, "type": "FREE_RECALL", "trial_index": 227}, "uniqueid": "MTK3084:3ZY8KE4ISKA8XYRRTTH8WU1DGBQVQB", "dateTime": 1520013459950}, {"current_trial": 228, "trialdata": {"rt": 4436, "trial_type": "text", "internal_node_id": "0.0-165.0", "time_elapsed": 1429740, "key_press": 32, "type": "INSTRUCTIONS", "trial_index": 228}, "uniqueid": "MTK3084:3ZY8KE4ISKA8XYRRTTH8WU1DGBQVQB", "dateTime": 1520013466391}, {"current_trial": 229, "trialdata": {"rt": [5158, 9373], "trial_type": "math-distractor", "key_times": [4386, 4779, 5158, 8794, 9103, 9373], "responses": ["13", "13"], "num2": [1, 5, 3], "num3": [4, 2, 7], "conditions": [24, 1600, "a", 12000], "internal_node_id": "0.0-166.0", "key_presses": [97, 99, 13, 97, 99, 13], "trial": 7, "time_elapsed": 1443749, "type": "DISTRACTOR", "trial_index": 229, "num1": [8, 6, 5]}, "uniqueid": "MTK3084:3ZY8KE4ISKA8XYRRTTH8WU1DGBQVQB", "dateTime": 1520013480398}, {"current_trial": 230, "trialdata": {"rt": -1, "trial_type": "single-stim", "stimulus": "<p id=\"stim\">10</p>", "internal_node_id": "0.0-167.0-0.0", "time_elapsed": 1446753, "key_press": -1, "trial_index": 230}, "uniqueid": "MTK3084:3ZY8KE4ISKA8XYRRTTH8WU1DGBQVQB", "dateTime": 1520013483402}, {"current_trial": 231, "trialdata": {"rt": -1, "trial_type": "single-stim", "stimulus": "<p id=\"stim\">9</p>", "internal_node_id": "0.0-167.0-1.0", "time_elapsed": 1447756, "key_press": -1, "trial_index": 231}, "uniqueid": "MTK3084:3ZY8KE4ISKA8XYRRTTH8WU1DGBQVQB", "dateTime": 1520013484405}, {"current_trial": 232, "trialdata": {"rt": -1, "trial_type": "single-stim", "stimulus": "<p id=\"stim\">8</p>", "internal_node_id": "0.0-167.0-2.0", "time_elapsed": 1448759, "key_press": -1, "trial_index": 232}, "uniqueid": "MTK3084:3ZY8KE4ISKA8XYRRTTH8WU1DGBQVQB", "dateTime": 1520013485408}, {"current_trial": 233, "trialdata": {"rt": -1, "trial_type": "single-stim", "stimulus": "<p id=\"stim\">7</p>", "internal_node_id": "0.0-167.0-3.0", "time_elapsed": 1449762, "key_press": -1, "trial_index": 233}, "uniqueid": "MTK3084:3ZY8KE4ISKA8XYRRTTH8WU1DGBQVQB", "dateTime": 1520013486411}, {"current_trial": 234, "trialdata": {"rt": -1, "trial_type": "single-stim", "stimulus": "<p id=\"stim\">6</p>", "internal_node_id": "0.0-167.0-4.0", "time_elapsed": 1450765, "key_press": -1, "trial_index": 234}, "uniqueid": "MTK3084:3ZY8KE4ISKA8XYRRTTH8WU1DGBQVQB", "dateTime": 1520013487414}, {"current_trial": 235, "trialdata": {"rt": -1, "trial_type": "single-stim", "stimulus": "<p id=\"stim\">5</p>", "internal_node_id": "0.0-167.0-5.0", "time_elapsed": 1451768, "key_press": -1, "trial_index": 235}, "uniqueid": "MTK3084:3ZY8KE4ISKA8XYRRTTH8WU1DGBQVQB", "dateTime": 1520013488418}, {"current_trial": 236, "trialdata": {"rt": -1, "trial_type": "single-stim", "stimulus": "<p id=\"stim\">4</p>", "internal_node_id": "0.0-167.0-6.0", "time_elapsed": 1452771, "key_press": -1, "trial_index": 236}, "uniqueid": "MTK3084:3ZY8KE4ISKA8XYRRTTH8WU1DGBQVQB", "dateTime": 1520013489420}, {"current_trial": 237, "trialdata": {"rt": -1, "trial_type": "single-stim", "stimulus": "<p id=\"stim\">3</p>", "internal_node_id": "0.0-167.0-7.0", "time_elapsed": 1453773, "key_press": -1, "trial_index": 237}, "uniqueid": "MTK3084:3ZY8KE4ISKA8XYRRTTH8WU1DGBQVQB", "dateTime": 1520013490422}, {"current_trial": 238, "trialdata": {"rt": -1, "trial_type": "single-stim", "stimulus": "<p id=\"stim\">2</p>", "internal_node_id": "0.0-167.0-8.0", "time_elapsed": 1454776, "key_press": -1, "trial_index": 238}, "uniqueid": "MTK3084:3ZY8KE4ISKA8XYRRTTH8WU1DGBQVQB", "dateTime": 1520013491425}, {"current_trial": 239, "trialdata": {"rt": -1, "trial_type": "single-stim", "stimulus": "<p id=\"stim\">1</p>", "internal_node_id": "0.0-167.0-9.0", "time_elapsed": 1455779, "key_press": -1, "trial_index": 239}, "uniqueid": "MTK3084:3ZY8KE4ISKA8XYRRTTH8WU1DGBQVQB", "dateTime": 1520013492428}, {"current_trial": 240, "trialdata": {"rt": -1, "trial_type": "single-stim", "stimulus": "<p id=\"stim\">+</p>", "internal_node_id": "0.0-168.0-0.0", "time_elapsed": 1457281, "key_press": -1, "type": "FIXATION", "trial_index": 240}, "uniqueid": "MTK3084:3ZY8KE4ISKA8XYRRTTH8WU1DGBQVQB", "dateTime": 1520013493931}, {"current_trial": 241, "trialdata": {"rt": -1000, "trial_type": "single-audio", "word": "suspect", "stimulus": "/static/audio/wordpool/SUSPECT.wav", "conditions": [24, 1600, "a", 12000], "internal_node_id": "0.0-169.0", "trial": 7, "time_elapsed": 1459938, "serialpos": 0, "key_press": -1, "wordID": 1414, "type": "PRES_AUD", "trial_index": 241}, "uniqueid": "MTK3084:3ZY8KE4ISKA8XYRRTTH8WU1DGBQVQB", "dateTime": 1520013496588}, {"current_trial": 242, "trialdata": {"rt": -1000, "trial_type": "single-audio", "word": "mailman", "stimulus": "/static/audio/wordpool/MAILMAN.wav", "conditions": [24, 1600, "a", 12000], "internal_node_id": "0.0-170.0", "trial": 7, "time_elapsed": 1462388, "serialpos": 1, "key_press": -1, "wordID": 857, "type": "PRES_AUD", "trial_index": 242}, "uniqueid": "MTK3084:3ZY8KE4ISKA8XYRRTTH8WU1DGBQVQB", "dateTime": 1520013499037}, {"current_trial": 243, "trialdata": {"rt": -1000, "trial_type": "single-audio", "word": "xerox", "stimulus": "/static/audio/wordpool/XEROX.wav", "conditions": [24, 1600, "a", 12000], "internal_node_id": "0.0-171.0", "trial": 7, "time_elapsed": 1464974, "serialpos": 2, "key_press": -1, "wordID": 1627, "type": "PRES_AUD", "trial_index": 243}, "uniqueid": "MTK3084:3ZY8KE4ISKA8XYRRTTH8WU1DGBQVQB", "dateTime": 1520013501623}, {"current_trial": 244, "trialdata": {"rt": -1000, "trial_type": "single-audio", "word": "apple", "stimulus": "/static/audio/wordpool/APPLE.wav", "conditions": [24, 1600, "a", 12000], "internal_node_id": "0.0-172.0", "trial": 7, "time_elapsed": 1467442, "serialpos": 3, "key_press": -1, "wordID": 32, "type": "PRES_AUD", "trial_index": 244}, "uniqueid": "MTK3084:3ZY8KE4ISKA8XYRRTTH8WU1DGBQVQB", "dateTime": 1520013504091}, {"current_trial": 245, "trialdata": {"rt": -1000, "trial_type": "single-audio", "word": "cod", "stimulus": "/static/audio/wordpool/COD.wav", "conditions": [24, 1600, "a", 12000], "internal_node_id": "0.0-173.0", "trial": 7, "time_elapsed": 1470072, "serialpos": 4, "key_press": -1, "wordID": 339, "type": "PRES_AUD", "trial_index": 245}, "uniqueid": "MTK3084:3ZY8KE4ISKA8XYRRTTH8WU1DGBQVQB", "dateTime": 1520013506721}, {"current_trial": 246, "trialdata": {"rt": -1000, "trial_type": "single-audio", "word": "lagoon", "stimulus": "/static/audio/wordpool/LAGOON.wav", "conditions": [24, 1600, "a", 12000], "internal_node_id": "0.0-174.0", "trial": 7, "time_elapsed": 1472615, "serialpos": 5, "key_press": -1, "wordID": 794, "type": "PRES_AUD", "trial_index": 246}, "uniqueid": "MTK3084:3ZY8KE4ISKA8XYRRTTH8WU1DGBQVQB", "dateTime": 1520013509265}, {"current_trial": 247, "trialdata": {"rt": -1000, "trial_type": "single-audio", "word": "marsh", "stimulus": "/static/audio/wordpool/MARSH.wav", "conditions": [24, 1600, "a", 12000], "internal_node_id": "0.0-175.0", "trial": 7, "time_elapsed": 1475132, "serialpos": 6, "key_press": -1, "wordID": 873, "type": "PRES_AUD", "trial_index": 247}, "uniqueid": "MTK3084:3ZY8KE4ISKA8XYRRTTH8WU1DGBQVQB", "dateTime": 1520013511781}, {"current_trial": 248, "trialdata": {"rt": -1000, "trial_type": "single-audio", "word": "salmon", "stimulus": "/static/audio/wordpool/SALMON.wav", "conditions": [24, 1600, "a", 12000], "internal_node_id": "0.0-176.0", "trial": 7, "time_elapsed": 1477907, "serialpos": 7, "key_press": -1, "wordID": 1226, "type": "PRES_AUD", "trial_index": 248}, "uniqueid": "MTK3084:3ZY8KE4ISKA8XYRRTTH8WU1DGBQVQB", "dateTime": 1520013514556}, {"current_trial": 249, "trialdata": {"rt": -1000, "trial_type": "single-audio", "word": "expert", "stimulu