{"assignmentId": "37QW5D2ZRHTMZ2ARD4V3ZGW6OSC8ST", "workerId": "MTK3461", "questiondata": {"origin": "United States", "strat-rehearsal": "97", "marital": "Single", "education": "High school diploma", "ethnicity": "Not Hispanic", "color_depth": 24, "distracted": "No", "wrote-notes": "Yes", "strat-other": "", "screen_width": 1366, "avail_screen_width": 1299, "avail_screen_height": 768, "strat-image": "79", "language": "English", "gender": "Female", "age": "20", "gender_other": "", "race": ["White"], "strat-categorize": "94", "pixel_depth": 24, "strat-spatial": "40", "strat-story": "92", "race_other": "", "screen_height": 768}, "bonus": 0, "hitId": "3C8QQOM6JP8QXBTKCF5RBZG5ELVLI8", "counterbalance": 329, "useragent": "Mozilla/5.0 (Windows NT 10.0; Win64; x64) AppleWebKit/537.36 (KHTML, like Gecko) Chrome/64.0.3282.186 Safari/537.36", "eventdata": [{"eventtype": "initialized", "interval": 0, "value": null, "timestamp": 1520613382829}, {"eventtype": "window_resize", "interval": 0, "value": [1299, 721], "timestamp": 1520613382829}, {"eventtype": "focus", "interval": 1450572, "value": "off", "timestamp": 1520614833401}, {"eventtype": "focus", "interval": 10402, "value": "on", "timestamp": 1520614843803}, {"eventtype": "focus", "interval": 3350, "value": "off", "timestamp": 1520614847153}, {"eventtype": "focus", "interval": 170, "value": "on", "timestamp": 1520614847323}, {"eventtype": "focus", "interval": 266833, "value": "off", "timestamp": 1520615114156}, {"eventtype": "focus", "interval": 7991, "value": "on", "timestamp": 1520615122147}, {"eventtype": "focus", "interval": 10606, "value": "off", "timestamp": 1520615132753}, {"eventtype": "focus", "interval": 7032, "value": "on", "timestamp": 1520615139785}, {"eventtype": "window_resize", "interval": 1548, "value": [1299, 717], "timestamp": 1520615141333}, {"eventtype": "window_resize", "interval": 913465, "value": [1299, 721], "timestamp": 1520616054798}, {"eventtype": "focus", "interval": 2034, "value": "off", "timestamp": 1520616056832}, {"eventtype": "focus", "interval": 18198, "value": "on", "timestamp": 1520616075030}], "data": [{"current_trial": 0, "trialdata": {"rt": 4022, "trial_type": "text", "internal_node_id": "0.0-0.0", "time_elapsed": 4027, "key_press": 75, "type": "INSTRUCTIONS", "trial_index": 0}, "uniqueid": "MTK3461:37QW5D2ZRHTMZ2ARD4V3ZGW6OSC8ST", "dateTime": 1520613414765}, {"current_trial": 1, "trialdata": {"rt": 55919, "trial_type": "text", "internal_node_id": "0.0-1.0", "time_elapsed": 59950, "key_press": 32, "type": "INSTRUCTIONS", "trial_index": 1}, "uniqueid": "MTK3461:37QW5D2ZRHTMZ2ARD4V3ZGW6OSC8ST", "dateTime": 1520613470685}, {"current_trial": 2, "trialdata": {"rt": [8096], "trial_type": "audio-test", "responses": ["ocean"], "internal_node_id": "0.0-2.0", "time_elapsed": 68087, "type": "AUDIO_TEST", "trial_index": 2}, "uniqueid": "MTK3461:37QW5D2ZRHTMZ2ARD4V3ZGW6OSC8ST", "dateTime": 1520613478823}, {"current_trial": 3, "trialdata": {"rt": [10166], "trial_type": "audio-test", "responses": ["crystal"], "internal_node_id": "0.0-3.0", "time_elapsed": 78265, "type": "AUDIO_TEST", "trial_index": 3}, "uniqueid": "MTK3461:37QW5D2ZRHTMZ2ARD4V3ZGW6OSC8ST", "dateTime": 1520613489001}, {"current_trial": 4, "trialdata": {"rt": [6827], "trial_type": "audio-test", "responses": ["spice"], "internal_node_id": "0.0-4.0", "time_elapsed": 85102, "type": "AUDIO_TEST", "trial_index": 4}, "uniqueid": "MTK3461:37QW5D2ZRHTMZ2ARD4V3ZGW6OSC8ST", "dateTime": 1520613495837}, {"current_trial": 5, "trialdata": {"rt": 40643, "trial_type": "survey-text", "responses": "{\"Q0\":\"1 am\",\"Q1\":\"7 am\",\"Q2\":\"4\"}", "internal_node_id": "0.0-5.0", "time_elapsed": 126500, "type": "SLEEP_SURVEY", "trial_index": 5}, "uniqueid": "MTK3461:37QW5D2ZRHTMZ2ARD4V3ZGW6OSC8ST", "dateTime": 1520613537235}, {"current_trial": 6, "trialdata": {"rt": 90091, "trial_type": "text", "internal_node_id": "0.0-6.0", "time_elapsed": 217595, "key_press": 32, "type": "INSTRUCTIONS", "trial_index": 6}, "uniqueid": "MTK3461:37QW5D2ZRHTMZ2ARD4V3ZGW6OSC8ST", "dateTime": 1520613628330}, {"current_trial": 7, "trialdata": {"rt": 40109, "trial_type": "text", "internal_node_id": "0.0-7.0", "time_elapsed": 258208, "key_press": 32, "type": "INSTRUCTIONS", "trial_index": 7}, "uniqueid": "MTK3461:37QW5D2ZRHTMZ2ARD4V3ZGW6OSC8ST", "dateTime": 1520613668944}, {"current_trial": 8, "trialdata": {"rt": 15223, "trial_type": "text", "internal_node_id": "0.0-8.0", "time_elapsed": 273937, "key_press": 32, "type": "INSTRUCTIONS", "trial_index": 8}, "uniqueid": "MTK3461:37QW5D2ZRHTMZ2ARD4V3ZGW6OSC8ST", "dateTime": 1520613684672}, {"current_trial": 9, "trialdata": {"rt": [4751, 10048], "trial_type": "math-distractor", "key_times": [3778, 4751, 9084, 9447, 10048], "responses": ["9", "14"], "num2": [3, 8, 7], "num3": [2, 1, 8], "conditions": [18, 1200, "a", 18000], "internal_node_id": "0.0-9.0", "key_presses": [105, 13, 97, 100, 13], "trial": 0, "time_elapsed": 292954, "type": "DISTRACTOR", "trial_index": 9, "num1": [4, 5, 9]}, "uniqueid": "MTK3461:37QW5D2ZRHTMZ2ARD4V3ZGW6OSC8ST", "dateTime": 1520613703689}, {"current_trial": 10, "trialdata": {"rt": -1, "trial_type": "single-stim", "stimulus": "<p id=\"stim\">10</p>", "internal_node_id": "0.0-10.0-0.0", "time_elapsed": 295961, "key_press": -1, "trial_index": 10}, "uniqueid": "MTK3461:37QW5D2ZRHTMZ2ARD4V3ZGW6OSC8ST", "dateTime": 1520613706696}, {"current_trial": 11, "trialdata": {"rt": -1, "trial_type": "single-stim", "stimulus": "<p id=\"stim\">9</p>", "internal_node_id": "0.0-10.0-1.0", "time_elapsed": 296964, "key_press": -1, "trial_index": 11}, "uniqueid": "MTK3461:37QW5D2ZRHTMZ2ARD4V3ZGW6OSC8ST", "dateTime": 1520613707700}, {"current_trial": 12, "trialdata": {"rt": -1, "trial_type": "single-stim", "stimulus": "<p id=\"stim\">8</p>", "internal_node_id": "0.0-10.0-2.0", "time_elapsed": 297968, "key_press": -1, "trial_index": 12}, "uniqueid": "MTK3461:37QW5D2ZRHTMZ2ARD4V3ZGW6OSC8ST", "dateTime": 1520613708703}, {"current_trial": 13, "trialdata": {"rt": -1, "trial_type": "single-stim", "stimulus": "<p id=\"stim\">7</p>", "internal_node_id": "0.0-10.0-3.0", "time_elapsed": 298972, "key_press": -1, "trial_index": 13}, "uniqueid": "MTK3461:37QW5D2ZRHTMZ2ARD4V3ZGW6OSC8ST", "dateTime": 1520613709707}, {"current_trial": 14, "trialdata": {"rt": -1, "trial_type": "single-stim", "stimulus": "<p id=\"stim\">6</p>", "internal_node_id": "0.0-10.0-4.0", "time_elapsed": 299976, "key_press": -1, "trial_index": 14}, "uniqueid": "MTK3461:37QW5D2ZRHTMZ2ARD4V3ZGW6OSC8ST", "dateTime": 1520613710711}, {"current_trial": 15, "trialdata": {"rt": -1, "trial_type": "single-stim", "stimulus": "<p id=\"stim\">5</p>", "internal_node_id": "0.0-10.0-5.0", "time_elapsed": 300981, "key_press": -1, "trial_index": 15}, "uniqueid": "MTK3461:37QW5D2ZRHTMZ2ARD4V3ZGW6OSC8ST", "dateTime": 1520613711716}, {"current_trial": 16, "trialdata": {"rt": -1, "trial_type": "single-stim", "stimulus": "<p id=\"stim\">4</p>", "internal_node_id": "0.0-10.0-6.0", "time_elapsed": 301984, "key_press": -1, "trial_index": 16}, "uniqueid": "MTK3461:37QW5D2ZRHTMZ2ARD4V3ZGW6OSC8ST", "dateTime": 1520613712720}, {"current_trial": 17, "trialdata": {"rt": -1, "trial_type": "single-stim", "stimulus": "<p id=\"stim\">3</p>", "internal_node_id": "0.0-10.0-7.0", "time_elapsed": 302988, "key_press": -1, "trial_index": 17}, "uniqueid": "MTK3461:37QW5D2ZRHTMZ2ARD4V3ZGW6OSC8ST", "dateTime": 1520613713723}, {"current_trial": 18, "trialdata": {"rt": -1, "trial_type": "single-stim", "stimulus": "<p id=\"stim\">2</p>", "internal_node_id": "0.0-10.0-8.0", "time_elapsed": 303991, "key_press": -1, "trial_index": 18}, "uniqueid": "MTK3461:37QW5D2ZRHTMZ2ARD4V3ZGW6OSC8ST", "dateTime": 1520613714726}, {"current_trial": 19, "trialdata": {"rt": -1, "trial_type": "single-stim", "stimulus": "<p id=\"stim\">1</p>", "internal_node_id": "0.0-10.0-9.0", "time_elapsed": 304996, "key_press": -1, "trial_index": 19}, "uniqueid": "MTK3461:37QW5D2ZRHTMZ2ARD4V3ZGW6OSC8ST", "dateTime": 1520613715731}, {"current_trial": 20, "trialdata": {"rt": -1, "trial_type": "single-stim", "stimulus": "<p id=\"stim\">+</p>", "internal_node_id": "0.0-11.0-0.0", "time_elapsed": 306500, "key_press": -1, "type": "FIXATION", "trial_index": 20}, "uniqueid": "MTK3461:37QW5D2ZRHTMZ2ARD4V3ZGW6OSC8ST", "dateTime": 1520613717235}, {"current_trial": 21, "trialdata": {"rt": -1000, "trial_type": "single-audio", "word": "ghetto", "stimulus": "/static/audio/wordpool/GHETTO.wav", "conditions": [18, 1200, "a", 18000], "internal_node_id": "0.0-12.0", "trial": 0, "time_elapsed": 308625, "serialpos": 0, "key_press": -1, "wordID": 632, "type": "PRES_AUD", "trial_index": 21}, "uniqueid": "MTK3461:37QW5D2ZRHTMZ2ARD4V3ZGW6OSC8ST", "dateTime": 1520613719360}, {"current_trial": 22, "trialdata": {"rt": 1681.3333333333276, "trial_type": "single-audio", "word": "pastry", "stimulus": "/static/audio/wordpool/PASTRY.wav", "conditions": [18, 1200, "a", 18000], "internal_node_id": "0.0-13.0", "trial": 0, "time_elapsed": 310897, "serialpos": 1, "key_press": 175, "wordID": 1021, "type": "PRES_AUD", "trial_index": 22}, "uniqueid": "MTK3461:37QW5D2ZRHTMZ2ARD4V3ZGW6OSC8ST", "dateTime": 1520613721632}, {"current_trial": 23, "trialdata": {"rt": -1000, "trial_type": "single-audio", "word": "grave", "stimulus": "/static/audio/wordpool/GRAVE.wav", "conditions": [18, 1200, "a", 18000], "internal_node_id": "0.0-14.0", "trial": 0, "time_elapsed": 313079, "serialpos": 2, "key_press": -1, "wordID": 657, "type": "PRES_AUD", "trial_index": 23}, "uniqueid": "MTK3461:37QW5D2ZRHTMZ2ARD4V3ZGW6OSC8ST", "dateTime": 1520613723814}, {"current_trial": 24, "trialdata": {"rt": -1000, "trial_type": "single-audio", "word": "hiker", "stimulus": "/static/audio/wordpool/HIKER.wav", "conditions": [18, 1200, "a", 18000], "internal_node_id": "0.0-15.0", "trial": 0, "time_elapsed": 315433, "serialpos": 3, "key_press": -1, "wordID": 707, "type": "PRES_AUD", "trial_index": 24}, "uniqueid": "MTK3461:37QW5D2ZRHTMZ2ARD4V3ZGW6OSC8ST", "dateTime": 1520613726168}, {"current_trial": 25, "trialdata": {"rt": -1000, "trial_type": "single-audio", "word": "velvet", "stimulus": "/static/audio/wordpool/VELVET.wav", "conditions": [18, 1200, "a", 18000], "internal_node_id": "0.0-16.0", "trial": 0, "time_elapsed": 317804, "serialpos": 4, "key_press": -1, "wordID": 1554, "type": "PRES_AUD", "trial_index": 25}, "uniqueid": "MTK3461:37QW5D2ZRHTMZ2ARD4V3ZGW6OSC8ST", "dateTime": 1520613728539}, {"current_trial": 26, "trialdata": {"rt": -1000, "trial_type": "single-audio", "word": "maple", "stimulus": "/static/audio/wordpool/MAPLE.wav", "conditions": [18, 1200, "a", 18000], "internal_node_id": "0.0-17.0", "trial": 0, "time_elapsed": 320150, "serialpos": 5, "key_press": -1, "wordID": 865, "type": "PRES_AUD", "trial_index": 26}, "uniqueid": "MTK3461:37QW5D2ZRHTMZ2ARD4V3ZGW6OSC8ST", "dateTime": 1520613730885}, {"current_trial": 27, "trialdata": {"rt": -1000, "trial_type": "single-audio", "word": "mildew", "stimulus": "/static/audio/wordpool/MILDEW.wav", "conditions": [18, 1200, "a", 18000], "internal_node_id": "0.0-18.0", "trial": 0, "time_elapsed": 322381, "serialpos": 6, "key_press": -1, "wordID": 892, "type": "PRES_AUD", "trial_index": 27}, "uniqueid": "MTK3461:37QW5D2ZRHTMZ2ARD4V3ZGW6OSC8ST", "dateTime": 1520613733116}, {"current_trial": 28, "trialdata": {"rt": -1000, "trial_type": "single-audio", "word": "staple", "stimulus": "/static/audio/wordpool/STAPLE.wav", "conditions": [18, 1200, "a", 18000], "internal_node_id": "0.0-19.0", "trial": 0, "time_elapsed": 324634, "serialpos": 7, "key_press": -1, "wordID": 1370, "type": "PRES_AUD", "trial_index": 28}, "uniqueid": "MTK3461:37QW5D2ZRHTMZ2ARD4V3ZGW6OSC8ST", "dateTime": 1520613735370}, {"current_trial": 29, "trialdata": {"rt": -1000, "trial_type": "single-audio", "word": "arm", "stimulus": "/static/audio/wordpool/ARM.wav", "conditions": [18, 1200, "a", 18000], "internal_node_id": "0.0-20.0", "trial": 0, "time_elapsed": 326797, "serialpos": 8, "key_press": -1, "wordID": 37, "type": "PRES_AUD", "trial_index": 29}, "uniqueid": "MTK3461:37QW5D2ZRHTMZ2ARD4V3ZGW6OSC8ST", "dateTime": 1520613737532}, {"current_trial": 30, "trialdata": {"rt": -1000, "trial_type": "single-audio", "word": "blade", "stimulus": "/static/audio/wordpool/BLADE.wav", "conditions": [18, 1200, "a", 18000], "internal_node_id": "0.0-21.0", "trial": 0, "time_elapsed": 328828, "serialpos": 9, "key_press": -1, "wordID": 133, "type": "PRES_AUD", "trial_index": 30}, "uniqueid": "MTK3461:37QW5D2ZRHTMZ2ARD4V3ZGW6OSC8ST", "dateTime": 1520613739563}, {"current_trial": 31, "trialdata": {"rt": -1000, "trial_type": "single-audio", "word": "mailman", "stimulus": "/static/audio/wordpool/MAILMAN.wav", "conditions": [18, 1200, "a", 18000], "internal_node_id": "0.0-22.0", "trial": 0, "time_elapsed": 331033, "serialpos": 10, "key_press": -1, "wordID": 857, "type": "PRES_AUD", "trial_index": 31}, "uniqueid": "MTK3461:37QW5D2ZRHTMZ2ARD4V3ZGW6OSC8ST", "dateTime": 1520613741768}, {"current_trial": 32, "trialdata": {"rt": -1000, "trial_type": "single-audio", "word": "helmet", "stimulus": "/static/audio/wordpool/HELMET.wav", "conditions": [18, 1200, "a", 18000], "internal_node_id": "0.0-23.0", "trial": 0, "time_elapsed": 333417, "serialpos": 11, "key_press": -1, "wordID": 701, "type": "PRES_AUD", "trial_index": 32}, "uniqueid": "MTK3461:37QW5D2ZRHTMZ2ARD4V3ZGW6OSC8ST", "dateTime": 1520613744152}, {"current_trial": 33, "trialdata": {"rt": -1000, "trial_type": "single-audio", "word": "child", "stimulus": "/static/audio/wordpool/CHILD.wav", "conditions": [18, 1200, "a", 18000], "internal_node_id": "0.0-24.0", "trial": 0, "time_elapsed": 335634, "serialpos": 12, "key_press": -1, "wordID": 298, "type": "PRES_AUD", "trial_index": 33}, "uniqueid": "MTK3461:37QW5D2ZRHTMZ2ARD4V3ZGW6OSC8ST", "dateTime": 1520613746369}, {"current_trial": 34, "trialdata": {"rt": -1000, "trial_type": "single-audio", "word": "trench", "stimulus": "/static/audio/wordpool/TRENCH.wav", "conditions": [18, 1200, "a", 18000], "internal_node_id": "0.0-25.0", "trial": 0, "time_elapsed": 337819, "serialpos": 13, "key_press": -1, "wordID": 1502, "type": "PRES_AUD", "trial_index": 34}, "uniqueid": "MTK3461:37QW5D2ZRHTMZ2ARD4V3ZGW6OSC8ST", "dateTime": 1520613748554}, {"current_trial": 35, "trialdata": {"rt": -1000, "trial_type": "single-audio", "word": "record", "stimulus": "/static/audio/wordpool/RECORD.wav", "conditions": [18, 1200, "a", 18000], "internal_node_id": "0.0-26.0", "trial": 0, "time_elapsed": 339969, "serialpos": 14, "key_press": -1, "wordID": 1175, "type": "PRES_AUD", "trial_index": 35}, "uniqueid": "MTK3461:37QW5D2ZRHTMZ2ARD4V3ZGW6OSC8ST", "dateTime": 1520613750705}, {"current_trial": 36, "trialdata": {"rt": -1000, "trial_type": "single-audio", "word": "baby", "stimulus": "/static/audio/wordpool/BABY.wav", "conditions": [18, 1200, "a", 18000], "internal_node_id": "0.0-27.0", "trial": 0, "time_elapsed": 342274, "serialpos": 15, "key_press": -1, "wordID": 63, "type": "PRES_AUD", "trial_index": 36}, "uniqueid": "MTK3461:37QW5D2ZRHTMZ2ARD4V3ZGW6OSC8ST", "dateTime": 1520613753009}, {"current_trial": 37, "trialdata": {"rt": -1000, "trial_type": "single-audio", "word": "cocktail", "stimulus": "/static/audio/wordpool/COCKTAIL.wav", "conditions": [18, 1200, "a", 18000], "internal_node_id": "0.0-28.0", "trial": 0, "time_elapsed": 344298, "serialpos": 16, "key_press": -1, "wordID": 337, "type": "PRES_AUD", "trial_index": 37}, "uniqueid": "MTK3461:37QW5D2ZRHTMZ2ARD4V3ZGW6OSC8ST", "dateTime": 1520613755034}, {"current_trial": 38, "trialdata": {"rt": -1000, "trial_type": "single-audio", "word": "flower", "stimulus": "/static/audio/wordpool/FLOWER.wav", "conditions": [18, 1200, "a", 18000], "internal_node_id": "0.0-29.0", "trial": 0, "time_elapsed": 346643, "serialpos": 17, "key_press": -1, "wordID": 583, "type": "PRES_AUD", "trial_index": 38}, "uniqueid": "MTK3461:37QW5D2ZRHTMZ2ARD4V3ZGW6OSC8ST", "dateTime": 1520613757379}, {"current_trial": 39, "trialdata": {"rt": -1, "trial_type": "single-stim", "stimulus": "", "internal_node_id": "0.0-30.0-0.0", "time_elapsed": 347859, "key_press": -1, "type": "PRE_RECALL_DELAY", "trial_index": 39}, "uniqueid": "MTK3461:37QW5D2ZRHTMZ2ARD4V3ZGW6OSC8ST", "dateTime": 1520613758594}, {"current_trial": 40, "trialdata": {"rt": -1000, "trial_type": "single-audio", "stimulus": "/static/audio/400Hz.wav", "internal_node_id": "0.0-31.0", "time_elapsed": 348369, "key_press": -1, "type": "PRE_RECALL_ALERT", "trial_index": 40}, "uniqueid": "MTK3461:37QW5D2ZRHTMZ2ARD4V3ZGW6OSC8ST", "dateTime": 1520613759104}, {"current_trial": 41, "trialdata": {"rt": [2979, 6486, 8013, 10281, 13928, 27421, 36430, 41961, 46472], "recwords": ["flower", "cocktail", "baby", "hiker", "child", "spice", "arm", "blade", "chair"], "key_times": [1530, 1721, 1971, 2196, 2372, 2597, 2979, 3512, 3768, 4615, 5313, 5495, 5639, 5834, 6095, 6486, 6971, 7132, 7252, 7531, 8013, 9079, 9321, 9572, 9653, 9820, 10281, 12752, 12913, 13143, 13424, 13632, 13928, 26427, 26535, 26813, 26953, 27228, 27421, 35631, 35839, 36012, 36430, 40640, 41231, 41390, 41596, 41810, 41961, 44094, 44264, 45766, 45925, 46140, 46472], "trial_type": "free-recall", "conditions": [18, 1200, "a", 18000], "internal_node_id": "0.0-32.0-0.0", "key_presses": [70, 76, 79, 87, 69, 82, 13, 67, 79, 67, 75, 84, 65, 73, 76, 13, 66, 65, 66, 89, 13, 72, 73, 75, 69, 82, 13, 67, 72, 73, 76, 68, 13, 83, 80, 73, 67, 69, 13, 65, 82, 77, 13, 66, 76, 65, 68, 69, 13, 67, 72, 65, 73, 82, 13], "trial": 0, "time_elapsed": 408378, "type": "FREE_RECALL", "trial_index": 41}, "uniqueid": "MTK3461:37QW5D2ZRHTMZ2ARD4V3ZGW6OSC8ST", "dateTime": 1520613819118}, {"current_trial": 42, "trialdata": {"rt": 7961, "trial_type": "text", "internal_node_id": "0.0-33.0", "time_elapsed": 418347, "key_press": 32, "type": "INSTRUCTIONS", "trial_index": 42}, "uniqueid": "MTK3461:37QW5D2ZRHTMZ2ARD4V3ZGW6OSC8ST", "dateTime": 1520613829082}, {"current_trial": 43, "trialdata": {"rt": [3613, 10625, 13620], "trial_type": "math-distractor", "key_times": [2576, 2716, 3613, 9283, 9986, 10625, 12945, 13192, 13620], "responses": ["10", "21", "15"], "num2": [2, 5, 1, 5], "num3": [8, 7, 7, 8], "conditions": [18, 1200, "a", 18000], "internal_node_id": "0.0-34.0", "key_presses": [97, 96, 13, 98, 97, 13, 97, 101, 13], "trial": 1, "time_elapsed": 438355, "type": "DISTRACTOR", "trial_index": 43, "num1": [2, 6, 7, 8]}, "uniqueid": "MTK3461:37QW5D2ZRHTMZ2ARD4V3ZGW6OSC8ST", "dateTime": 1520613849090}, {"current_trial": 44, "trialdata": {"rt": -1, "trial_type": "single-stim", "stimulus": "<p id=\"stim\">10</p>", "internal_node_id": "0.0-35.0-0.0", "time_elapsed": 441362, "key_press": -1, "trial_index": 44}, "uniqueid": "MTK3461:37QW5D2ZRHTMZ2ARD4V3ZGW6OSC8ST", "dateTime": 1520613852098}, {"current_trial": 45, "trialdata": {"rt": -1, "trial_type": "single-stim", "stimulus": "<p id=\"stim\">9</p>", "internal_node_id": "0.0-35.0-1.0", "time_elapsed": 442367, "key_press": -1, "trial_index": 45}, "uniqueid": "MTK3461:37QW5D2ZRHTMZ2ARD4V3ZGW6OSC8ST", "dateTime": 1520613853102}, {"current_trial": 46, "trialdata": {"rt": -1, "trial_type": "single-stim", "stimulus": "<p id=\"stim\">8</p>", "internal_node_id": "0.0-35.0-2.0", "time_elapsed": 443371, "key_press": -1, "trial_index": 46}, "uniqueid": "MTK3461:37QW5D2ZRHTMZ2ARD4V3ZGW6OSC8ST", "dateTime": 1520613854106}, {"current_trial": 47, "trialdata": {"rt": -1, "trial_type": "single-stim", "stimulus": "<p id=\"stim\">7</p>", "internal_node_id": "0.0-35.0-3.0", "time_elapsed": 444375, "key_press": -1, "trial_index": 47}, "uniqueid": "MTK3461:37QW5D2ZRHTMZ2ARD4V3ZGW6OSC8ST", "dateTime": 1520613855110}, {"current_trial": 48, "trialdata": {"rt": -1, "trial_type": "single-stim", "stimulus": "<p id=\"stim\">6</p>", "internal_node_id": "0.0-35.0-4.0", "time_elapsed": 445379, "key_press": -1, "trial_index": 48}, "uniqueid": "MTK3461:37QW5D2ZRHTMZ2ARD4V3ZGW6OSC8ST", "dateTime": 1520613856115}, {"current_trial": 49, "trialdata": {"rt": -1, "trial_type": "single-stim", "stimulus": "<p id=\"stim\">5</p>", "internal_node_id": "0.0-35.0-5.0", "time_elapsed": 446383, "key_press": -1, "trial_index": 49}, "uniqueid": "MTK3461:37QW5D2ZRHTMZ2ARD4V3ZGW6OSC8ST", "dateTime": 1520613857119}, {"current_trial": 50, "trialdata": {"rt": -1, "trial_type": "single-stim", "stimulus": "<p id=\"stim\">4</p>", "internal_node_id": "0.0-35.0-6.0", "time_elapsed": 447388, "key_press": -1, "trial_index": 50}, "uniqueid": "MTK3461:37QW5D2ZRHTMZ2ARD4V3ZGW6OSC8ST", "dateTime": 1520613858123}, {"current_trial": 51, "trialdata": {"rt": -1, "trial_type": "single-stim", "stimulus": "<p id=\"stim\">3</p>", "internal_node_id": "0.0-35.0-7.0", "time_elapsed": 448391, "key_press": -1, "trial_index": 51}, "uniqueid": "MTK3461:37QW5D2ZRHTMZ2ARD4V3ZGW6OSC8ST", "dateTime": 1520613859126}, {"current_trial": 52, "trialdata": {"rt": -1, "trial_type": "single-stim", "stimulus": "<p id=\"stim\">2</p>", "internal_node_id": "0.0-35.0-8.0", "time_elapsed": 449395, "key_press": -1, "trial_index": 52}, "uniqueid": "MTK3461:37QW5D2ZRHTMZ2ARD4V3ZGW6OSC8ST", "dateTime": 1520613860130}, {"current_trial": 53, "trialdata": {"rt": -1, "trial_type": "single-stim", "stimulus": "<p id=\"stim\">1</p>", "internal_node_id": "0.0-35.0-9.0", "time_elapsed": 450399, "key_press": -1, "trial_index": 53}, "uniqueid": "MTK3461:37QW5D2ZRHTMZ2ARD4V3ZGW6OSC8ST", "dateTime": 1520613861135}, {"current_trial": 54, "trialdata": {"rt": -1, "trial_type": "single-stim", "stimulus": "<p id=\"stim\">+</p>", "internal_node_id": "0.0-36.0-0.0", "time_elapsed": 451912, "key_press": -1, "type": "FIXATION", "trial_index": 54}, "uniqueid": "MTK3461:37QW5D2ZRHTMZ2ARD4V3ZGW6OSC8ST", "dateTime": 1520613862648}, {"current_trial": 55, "trialdata": {"rt": -1000, "trial_type": "single-audio", "word": "zipper", "stimulus": "/static/audio/wordpool/ZIPPER.wav", "conditions": [18, 1200, "a", 18000], "internal_node_id": "0.0-37.0", "trial": 1, "time_elapsed": 453969, "serialpos": 0, "key_press": -1, "wordID": 1635, "type": "PRES_AUD", "trial_index": 55}, "uniqueid": "MTK3461:37QW5D2ZRHTMZ2ARD4V3ZGW6OSC8ST", "dateTime": 1520613864704}, {"current_trial": 56, "trialdata": {"rt": -1000, "trial_type": "single-audio", "word": "kleenex", "stimulus": "/static/audio/wordpool/KLEENEX.wav", "conditions": [18, 1200, "a", 18000], "internal_node_id": "0.0-38.0", "trial": 1, "time_elapsed": 456060, "serialpos": 1, "key_press": -1, "wordID": 781, "type": "PRES_AUD", "trial_index": 56}, "uniqueid": "MTK3461:37QW5D2ZRHTMZ2ARD4V3ZGW6OSC8ST", "dateTime": 1520613866796}, {"current_trial": 57, "trialdata": {"rt": -1000, "trial_type": "single-audio", "word": "elbow", "stimulus": "/static/audio/wordpool/ELBOW.wav", "conditions": [18, 1200, "a", 18000], "internal_node_id": "0.0-39.0", "trial": 1, "time_elapsed": 458309, "serialpos": 2, "key_press": -1, "wordID": 519, "type": "PRES_AUD", "trial_index": 57}, "uniqueid": "MTK3461:37QW5D2ZRHTMZ2ARD4V3ZGW6OSC8ST", "dateTime": 1520613869044}, {"current_trial": 58, "trialdata": {"rt": -1000, "trial_type": "single-audio", "word": "handbag", "stimulus": "/static/audio/wordpool/HANDBAG.wav", "conditions": [18, 1200, "a", 18000], "internal_node_id": "0.0-40.0", "trial": 1, "time_elapsed": 460583, "serialpos": 3, "key_press": -1, "wordID": 683, "type": "PRES_AUD", "trial_index": 58}, "uniqueid": "MTK3461:37QW5D2ZRHTMZ2ARD4V3ZGW6OSC8ST", "dateTime": 1520613871318}, {"current_trial": 59, "trialdata": {"rt": -1000, "trial_type": "single-audio", "word": "quail", "stimulus": "/static/audio/wordpool/QUAIL.wav", "conditions": [18, 1200, "a", 18000], "internal_node_id": "0.0-41.0", "trial": 1, "time_elapsed": 462799, "serialpos": 4, "key_press": -1, "wordID": 1146, "type": "PRES_AUD", "trial_index": 59}, "uniqueid": "MTK3461:37QW5D2ZRHTMZ2ARD4V3ZGW6OSC8ST", "dateTime": 1520613873534}, {"current_trial": 60, "trialdata": {"rt": -1000, "trial_type": "single-audio", "word": "hero", "stimulus": "/static/audio/wordpool/HERO.wav", "conditions": [18, 1200, "a", 18000], "internal_node_id": "0.0-42.0", "trial": 1, "time_elapsed": 464821, "serialpos": 5, "key_press": -1, "wordID": 705, "type": "PRES_AUD", "trial_index": 60}, "uniqueid": "MTK3461:37QW5D2ZRHTMZ2ARD4V3ZGW6OSC8ST", "dateTime": 1520613875556}, {"current_trial": 61, "trialdata": {"rt": -1000, "trial_type": "single-audio", "word": "asia", "stimulus": "/static/audio/wordpool/ASIA.wav", "conditions": [18, 1200, "a", 18000], "internal_node_id": "0.0-43.0", "trial": 1, "time_elapsed": 466834, "serialpos": 6, "key_press": -1, "wordID": 45, "type": "PRES_AUD", "trial_index": 61}, "uniqueid": "MTK3461:37QW5D2ZRHTMZ2ARD4V3ZGW6OSC8ST", "dateTime": 1520613877569}, {"current_trial": 62, "trialdata": {"rt": -1000, "trial_type": "single-audio", "word": "shrub", "stimulus": "/static/audio/wordpool/SHRUB.wav", "conditions": [18, 1200, "a", 18000], "internal_node_id": "0.0-44.0", "trial": 1, "time_elapsed": 469065, "serialpos": 7, "key_press": -1, "wordID": 1298, "type": "PRES_AUD", "trial_index": 62}, "uniqueid": "MTK3461:37QW5D2ZRHTMZ2ARD4V3ZGW6OSC8ST", "dateTime": 1520613879800}, {"current_trial": 63, "trialdata": {"rt": -1000, "trial_type": "single-audio", "word": "pigeon", "stimulus": "/static/audio/wordpool/PIGEON.wav", "conditions": [18, 1200, "a", 18000], "internal_node_id": "0.0-45.0", "trial": 1, "time_elapsed": 471141, "serialpos": 8, "key_press": -1, "wordID": 1064, "type": "PRES_AUD", "trial_index": 63}, "uniqueid": "MTK3461:37QW5D2ZRHTMZ2ARD4V3ZGW6OSC8ST", "dateTime": 1520613881876}, {"current_trial": 64, "trialdata": {"rt": -1000, "trial_type": "single-audio", "word": "police", "stimulus": "/static/audio/wordpool/POLICE.wav", "conditions": [18, 1200, "a", 18000], "internal_node_id": "0.0-46.0", "trial": 1, "time_elapsed": 473329, "serialpos": 9, "key_press": -1, "wordID": 1097, "type": "PRES_AUD", "trial_index": 64}, "uniqueid": "MTK3461:37QW5D2ZRHTMZ2ARD4V3ZGW6OSC8ST", "dateTime": 1520613884064}, {"current_trial": 65, "trialdata": {"rt": -1000, "trial_type": "single-audio", "word": "apron", "stimulus": "/static/audio/wordpool/APRON.wav", "conditions": [18, 1200, "a", 18000], "internal_node_id": "0.0-47.0", "trial": 1, "time_elapsed": 475728, "serialpos": 10, "key_press": -1, "wordID": 34, "type": "PRES_AUD", "trial_index": 65}, "uniqueid": "MTK3461:37QW5D2ZRHTMZ2ARD4V3ZGW6OSC8ST", "dateTime": 1520613886464}, {"current_trial": 66, "trialdata": {"rt": -1000, "trial_type": "single-audio", "word": "tourist", "stimulus": "/static/audio/wordpool/TOURIST.wav", "conditions": [18, 1200, "a", 18000], "internal_node_id": "0.0-48.0", "trial": 1, "time_elapsed": 477807, "serialpos": 11, "key_press": -1, "wordID": 1487, "type": "PRES_AUD", "trial_index": 66}, "uniqueid": "MTK3461:37QW5D2ZRHTMZ2ARD4V3ZGW6OSC8ST", "dateTime": 1520613888543}, {"current_trial": 67, "trialdata": {"rt": -1000, "trial_type": "single-audio", "word": "bouquet", "stimulus": "/static/audio/wordpool/BOUQUET.wav", "conditions": [18, 1200, "a", 18000], "internal_node_id": "0.0-49.0", "trial": 1, "time_elapsed": 479834, "serialpos": 12, "key_press": -1, "wordID": 156, "type": "PRES_AUD", "trial_index": 67}, "uniqueid": "MTK3461:37QW5D2ZRHTMZ2ARD4V3ZGW6OSC8ST", "dateTime": 1520613890569}, {"current_trial": 68, "trialdata": {"rt": -1000, "trial_type": "single-audio", "word": "mister", "stimulus": "/static/audio/wordpool/MISTER.wav", "conditions": [18, 1200, "a", 18000], "internal_node_id": "0.0-50.0", "trial": 1, "time_elapsed": 482105, "serialpos": 13, "key_press": -1, "wordID": 900, "type": "PRES_AUD", "trial_index": 68}, "uniqueid": "MTK3461:37QW5D2ZRHTMZ2ARD4V3ZGW6OSC8ST", "dateTime": 1520613892844}, {"current_trial": 69, "trialdata": {"rt": -1000, "trial_type": "single-audio", "word": "bike", "stimulus": "/static/audio/wordpool/BIKE.wav", "conditions": [18, 1200, "a", 18000], "internal_node_id": "0.0-51.0", "trial": 1, "time_elapsed": 484237, "serialpos": 14, "key_press": -1, "wordID": 124, "type": "PRES_AUD", "trial_index": 69}, "uniqueid": "MTK3461:37QW5D2ZRHTMZ2ARD4V3ZGW6OSC8ST", "dateTime": 1520613894972}, {"current_trial": 70, "trialdata": {"rt": -1000, "trial_type": "single-audio", "word": "lake", "stimulus": "/static/audio/wordpool/LAKE.wav", "conditions": [18, 1200, "a", 18000], "internal_node_id": "0.0-52.0", "trial": 1, "time_elapsed": 486642, "serialpos": 15, "key_press": -1, "wordID": 795, "type": "PRES_AUD", "trial_index": 70}, "uniqueid": "MTK3461:37QW5D2ZRHTMZ2ARD4V3ZGW6OSC8ST", "dateTime": 1520613897377}, {"current_trial": 71, "trialdata": {"rt": -1000, "trial_type": "single-audio", "word": "robber", "stimulus": "/static/audio/wordpool/ROBBER.wav", "conditions": [18, 1200, "a", 18000], "internal_node_id": "0.0-53.0", "trial": 1, "time_elapsed": 488703, "serialpos": 16, "key_press": -1, "wordID": 1196, "type": "PRES_AUD", "trial_index": 71}, "uniqueid": "MTK3461:37QW5D2ZRHTMZ2ARD4V3ZGW6OSC8ST", "dateTime": 1520613899438}, {"current_trial": 72, "trialdata": {"rt": -1000, "trial_type": "single-audio", "word": "clock", "stimulus": "/static/audio/wordpool/CLOCK.wav", "conditions": [18, 1200, "a", 18000], "internal_node_id": "0.0-54.0", "trial": 1, "time_elapsed": 491030, "serialpos": 17, "key_press": -1, "wordID": 324, "type": "PRES_AUD", "trial_index": 72}, "uniqueid": "MTK3461:37QW5D2ZRHTMZ2ARD4V3ZGW6OSC8ST", "dateTime": 1520613901765}, {"current_trial": 73, "trialdata": {"rt": -1, "trial_type": "single-stim", "stimulus": "", "internal_node_id": "0.0-55.0-0.0", "time_elapsed": 492430, "key_press": -1, "type": "PRE_RECALL_DELAY", "trial_index": 73}, "uniqueid": "MTK3461:37QW5D2ZRHTMZ2ARD4V3ZGW6OSC8ST", "dateTime": 1520613903165}, {"current_trial": 74, "trialdata": {"rt": -1000, "trial_type": "single-audio", "stimulus": "/static/audio/400Hz.wav", "internal_node_id": "0.0-56.0", "time_elapsed": 492933, "key_press": -1, "type": "PRE_RECALL_ALERT", "trial_index": 74}, "uniqueid": "MTK3461:37QW5D2ZRHTMZ2ARD4V3ZGW6OSC8ST", "dateTime": 1520613903668}, {"current_trial": 75, "trialdata": {"rt": [2083, 3607, 6842, 9786, 19896, 31189, 36547, 56371], "recwords": ["clock", "robber", "police", "asia", "quail", "duck", "police", "alarm"], "key_times": [887, 1075, 1305, 1518, 1654, 2083, 2453, 2643, 2931, 3100, 3189, 3342, 3607, 4136, 4937, 5605, 5833, 6052, 6261, 6397, 6665, 6842, 8679, 8906, 9149, 9331, 9786, 18392, 18565, 18908, 19098, 19424, 19896, 30140, 30486, 30662, 30799, 31189, 35206, 35451, 35659, 35890, 36030, 36307, 36547, 55076, 55335, 55491, 55722, 55909, 56371], "trial_type": "free-recall", "conditions": [18, 1200, "a", 18000], "internal_node_id": "0.0-57.0-0.0", "key_presses": [67, 76, 79, 67, 75, 13, 82, 79, 66, 66, 69, 82, 13, 66, 8, 80, 79, 76, 73, 67, 69, 13, 65, 83, 73, 65, 13, 81, 85, 65, 73, 76, 13, 68, 85, 67, 75, 13, 80, 79, 76, 73, 67, 69, 13, 65, 76, 65, 82, 77, 13], "trial": 1, "time_elapsed": 552940, "type": "FREE_RECALL", "trial_index": 75}, "uniqueid": "MTK3461:37QW5D2ZRHTMZ2ARD4V3ZGW6OSC8ST", "dateTime": 1520613963680}, {"current_trial": 76, "trialdata": {"rt": 8014, "trial_type": "text", "internal_node_id": "0.0-58.0", "time_elapsed": 562962, "key_press": 32, "type": "INSTRUCTIONS", "trial_index": 76}, "uniqueid": "MTK3461:37QW5D2ZRHTMZ2ARD4V3ZGW6OSC8ST", "dateTime": 1520613973697}, {"current_trial": 77, "trialdata": {"rt": [4238, 8940], "trial_type": "math-distractor", "key_times": [3182, 3493, 4238, 8162, 8336, 8940], "responses": ["13", "15"], "num2": [1, 7, 2], "num3": [4, 4, 1], "conditions": [12, 800, "a", 12000], "internal_node_id": "0.0-59.0", "key_presses": [97, 99, 13, 97, 101, 13], "trial": 2, "time_elapsed": 575968, "type": "DISTRACTOR", "trial_index": 77, "num1": [8, 4, 4]}, "uniqueid": "MTK3461:37QW5D2ZRHTMZ2ARD4V3ZGW6OSC8ST", "dateTime": 1520613986703}, {"current_trial": 78, "trialdata": {"rt": -1, "trial_type": "single-stim", "stimulus": "<p id=\"stim\">10</p>", "internal_node_id": "0.0-60.0-0.0", "time_elapsed": 578973, "key_press": -1, "trial_index": 78}, "uniqueid": "MTK3461:37QW5D2ZRHTMZ2ARD4V3ZGW6OSC8ST", "dateTime": 1520613989709}, {"current_trial": 79, "trialdata": {"rt": -1, "trial_type": "single-stim", "stimulus": "<p id=\"stim\">9</p>", "internal_node_id": "0.0-60.0-1.0", "time_elapsed": 579977, "key_press": -1, "trial_index": 79}, "uniqueid": "MTK3461:37QW5D2ZRHTMZ2ARD4V3ZGW6OSC8ST", "dateTime": 1520613990712}, {"current_trial": 80, "trialdata": {"rt": -1, "trial_type": "single-stim", "stimulus": "<p id=\"stim\">8</p>", "internal_node_id": "0.0-60.0-2.0", "time_elapsed": 580981, "key_press": -1, "trial_index": 80}, "uniqueid": "MTK3461:37QW5D2ZRHTMZ2ARD4V3ZGW6OSC8ST", "dateTime": 1520613991716}, {"current_trial": 81, "trialdata": {"rt": -1, "trial_type": "single-stim", "stimulus": "<p id=\"stim\">7</p>", "internal_node_id": "0.0-60.0-3.0", "time_elapsed": 581985, "key_press": -1, "trial_index": 81}, "uniqueid": "MTK3461:37QW5D2ZRHTMZ2ARD4V3ZGW6OSC8ST", "dateTime": 1520613992720}, {"current_trial": 82, "trialdata": {"rt": -1, "trial_type": "single-stim", "stimulus": "<p id=\"stim\">6</p>", "internal_node_id": "0.0-60.0-4.0", "time_elapsed": 582988, "key_press": -1, "trial_index": 82}, "uniqueid": "MTK3461:37QW5D2ZRHTMZ2ARD4V3ZGW6OSC8ST", "dateTime": 1520613993723}, {"current_trial": 83, "trialdata": {"rt": -1, "trial_type": "single-stim", "stimulus": "<p id=\"stim\">5</p>", "internal_node_id": "0.0-60.0-5.0", "time_elapsed": 583991, "key_press": -1, "trial_index": 83}, "uniqueid": "MTK3461:37QW5D2ZRHTMZ2ARD4V3ZGW6OSC8ST", "dateTime": 1520613994726}, {"current_trial": 84, "trialdata": {"rt": -1, "trial_type": "single-stim", "stimulus": "<p id=\"stim\">4</p>", "internal_node_id": "0.0-60.0-6.0", "time_elapsed": 584995, "key_press": -1, "trial_index": 84}, "uniqueid": "MTK3461:37QW5D2ZRHTMZ2ARD4V3ZGW6OSC8ST", "dateTime": 1520613995730}, {"current_trial": 85, "trialdata": {"rt": -1, "trial_type": "single-stim", "stimulus": "<p id=\"stim\">3</p>", "internal_node_id": "0.0-60.0-7.0", "time_elapsed": 585999, "key_press": -1, "trial_index": 85}, "uniqueid": "MTK3461:37QW5D2ZRHTMZ2ARD4V3ZGW6OSC8ST", "dateTime": 1520613996734}, {"current_trial": 86, "trialdata": {"rt": -1, "trial_type": "single-stim", "stimulus": "<p id=\"stim\">2</p>", "internal_node_id": "0.0-60.0-8.0", "time_elapsed": 587003, "key_press": -1, "trial_index": 86}, "uniqueid": "MTK3461:37QW5D2ZRHTMZ2ARD4V3ZGW6OSC8ST", "dateTime": 1520613997738}, {"current_trial": 87, "trialdata": {"rt": -1, "trial_type": "single-stim", "stimulus": "<p id=\"stim\">1</p>", "internal_node_id": "0.0-60.0-9.0", "time_elapsed": 588007, "key_press": -1, "trial_index": 87}, "uniqueid": "MTK3461:37QW5D2ZRHTMZ2ARD4V3ZGW6OSC8ST", "dateTime": 1520613998742}, {"current_trial": 88, "trialdata": {"rt": -1, "trial_type": "single-stim", "stimulus": "<p id=\"stim\">+</p>", "internal_node_id": "0.0-61.0-0.0", "time_elapsed": 589511, "key_press": -1, "type": "FIXATION", "trial_index": 88}, "uniqueid": "MTK3461:37QW5D2ZRHTMZ2ARD4V3ZGW6OSC8ST", "dateTime": 1520614000247}, {"current_trial": 89, "trialdata": {"rt": -1000, "trial_type": "single-audio", "word": "wife", "stimulus": "/static/audio/wordpool/WIFE.wav", "conditions": [12, 800, "a", 12000], "internal_node_id": "0.0-62.0", "trial": 2, "time_elapsed": 591158, "serialpos": 0, "key_press": -1, "wordID": 1608, "type": "PRES_AUD", "trial_index": 89}, "uniqueid": "MTK3461:37QW5D2ZRHTMZ2ARD4V3ZGW6OSC8ST", "dateTime": 1520614001893}, {"current_trial": 90, "trialdata": {"rt": -1000, "trial_type": "single-audio", "word": "tortoise", "stimulus": "/static/audio/wordpool/TORTOISE.wav", "conditions": [12, 800, "a", 12000], "internal_node_id": "0.0-63.0", "trial": 2, "time_elapsed": 592966, "serialpos": 1, "key_press": -1, "wordID": 1485, "type": "PRES_AUD", "trial_index": 90}, "uniqueid": "MTK3461:37QW5D2ZRHTMZ2ARD4V3ZGW6OSC8ST", "dateTime": 1520614003701}, {"current_trial": 91, "trialdata": {"rt": -1000, "trial_type": "single-audio", "word": "daisy", "stimulus": "/static/audio/wordpool/DAISY.wav", "conditions": [12, 800, "a", 12000], "internal_node_id": "0.0-64.0", "trial": 2, "time_elapsed": 594945, "serialpos": 2, "key_press": -1, "wordID": 434, "type": "PRES_AUD", "trial_index": 91}, "uniqueid": "MTK3461:37QW5D2ZRHTMZ2ARD4V3ZGW6OSC8ST", "dateTime": 1520614005680}, {"current_trial": 92, "trialdata": {"rt": -1000, "trial_type": "single-audio", "word": "couch", "stimulus": "/static/audio/wordpool/COUCH.wav", "conditions": [12, 800, "a", 12000], "internal_node_id": "0.0-65.0", "trial": 2, "time_elapsed": 596933, "serialpos": 3, "key_press": -1, "wordID": 385, "type": "PRES_AUD", "trial_index": 92}, "uniqueid": "MTK3461:37QW5D2ZRHTMZ2ARD4V3ZGW6OSC8ST", "dateTime": 1520614007668}, {"current_trial": 93, "trialdata": {"rt": -1000, "trial_type": "single-audio", "word": "film", "stimulus": "/static/audio/wordpool/FILM.wav", "conditions": [12, 800, "a", 12000], "internal_node_id": "0.0-66.0", "trial": 2, "time_elapsed": 598634, "serialpos": 4, "key_press": -1, "wordID": 564, "type": "PRES_AUD", "trial_index": 93}, "uniqueid": "MTK3461:37QW5D2ZRHTMZ2ARD4V3ZGW6OSC8ST", "dateTime": 1520614009369}, {"current_trial": 94, "trialdata": {"rt": -1000, "trial_type": "single-audio", "word": "butcher", "stimulus": "/static/audio/wordpool/BUTCHER.wav", "conditions": [12, 800, "a", 12000], "internal_node_id": "0.0-67.0", "trial": 2, "time_elapsed": 600318, "serialpos": 5, "key_press": -1, "wordID": 202, "type": "PRES_AUD", "trial_index": 94}, "uniqueid": "MTK3461:37QW5D2ZRHTMZ2ARD4V3ZGW6OSC8ST", "dateTime": 1520614011053}, {"current_trial": 95, "trialdata": {"rt": -1000, "trial_type": "single-audio", "word": "popcorn", "stimulus": "/static/audio/wordpool/POPCORN.wav", "conditions": [12, 800, "a", 12000], "internal_node_id": "0.0-68.0", "trial": 2, "time_elapsed": 602316, "serialpos": 6, "key_press": -1, "wordID": 1103, "type": "PRES_AUD", "trial_index": 95}, "uniqueid": "MTK3461:37QW5D2ZRHTMZ2ARD4V3ZGW6OSC8ST", "dateTime": 1520614013051}, {"current_trial": 96, "trialdata": {"rt": -1000, "trial_type": "single-audio", "word": "peach", "stimulus": "/static/audio/wordpool/PEACH.wav", "conditions": [12, 800, "a", 12000], "internal_node_id": "0.0-69.0", "trial": 2, "time_elapsed": 604211, "serialpos": 7, "key_press": -1, "wordID": 1030, "type": "PRES_AUD", "trial_index": 96}, "uniqueid": "MTK3461:37QW5D2ZRHTMZ2ARD4V3ZGW6OSC8ST", "dateTime": 1520614014946}, {"current_trial": 97, "trialdata": {"rt": -1000, "trial_type": "single-audio", "word": "citrus", "stimulus": "/static/audio/wordpool/CITRUS.wav", "conditions": [12, 800, "a", 12000], "internal_node_id": "0.0-70.0", "trial": 2, "time_elapsed": 605841, "serialpos": 8, "key_press": -1, "wordID": 312, "type": "PRES_AUD", "trial_index": 97}, "uniqueid": "MTK3461:37QW5D2ZRHTMZ2ARD4V3ZGW6OSC8ST", "dateTime": 1520614016576}, {"current_trial": 98, "trialdata": {"rt": -1000, "trial_type": "single-audio", "word": "empire", "stimulus": "/static/audio/wordpool/EMPIRE.wav", "conditions": [12, 800, "a", 12000], "internal_node_id": "0.0-71.0", "trial": 2, "time_elapsed": 607701, "serialpos": 9, "key_press": -1, "wordID": 529, "type": "PRES_AUD", "trial_index": 98}, "uniqueid": "MTK3461:37QW5D2ZRHTMZ2ARD4V3ZGW6OSC8ST", "dateTime": 1520614018436}, {"current_trial": 99, "trialdata": {"rt": -1000, "trial_type": "single-audio", "word": "machine", "stimulus": "/static/audio/wordpool/MACHINE.wav", "conditions": [12, 800, "a", 12000], "internal_node_id": "0.0-72.0", "trial": 2, "time_elapsed": 609580, "serialpos": 10, "key_press": -1, "wordID": 851, "type": "PRES_AUD", "trial_index": 99}, "uniqueid": "MTK3461:37QW5D2ZRHTMZ2ARD4V3ZGW6OSC8ST", "dateTime": 1520614020315}, {"current_trial": 100, "trialdata": {"rt": -1000, "trial_type": "single-audio", "word": "spouse", "stimulus": "/static/audio/wordpool/SPOUSE.wav", "conditions": [12, 800, "a", 12000], "internal_node_id": "0.0-73.0", "trial": 2, "time_elapsed": 611380, "serialpos": 11, "key_press": -1, "wordID": 1357, "type": "PRES_AUD", "trial_index": 100}, "uniqueid": "MTK3461:37QW5D2ZRHTMZ2ARD4V3ZGW6OSC8ST", "dateTime": 1520614022115}, {"current_trial": 101, "trialdata": {"rt": -1, "trial_type": "single-stim", "stimulus": "", "internal_node_id": "0.0-74.0-0.0", "time_elapsed": 612685, "key_press": -1, "type": "PRE_RECALL_DELAY", "trial_index": 101}, "uniqueid": "MTK3461:37QW5D2ZRHTMZ2ARD4V3ZGW6OSC8ST", "dateTime": 1520614023420}, {"current_trial": 102, "trialdata": {"rt": -1000, "trial_type": "single-audio", "stimulus": "/static/audio/400Hz.wav", "internal_node_id": "0.0-75.0", "time_elapsed": 613188, "key_press": -1, "type": "PRE_RECALL_ALERT", "trial_index": 102}, "uniqueid": "MTK3461:37QW5D2ZRHTMZ2ARD4V3ZGW6OSC8ST", "dateTime": 1520614023923}, {"current_trial": 103, "trialdata": {"rt": [2606, 4281, 6106, 7886, 59216], "recwords": ["empire", "machine", "spouse", "citrus", "wife"], "key_times": [1221, 1484, 1767, 2018, 2147, 2274, 2606, 2969, 3104, 3389, 3486, 3660, 3794, 3896, 4281, 4600, 4813, 5317, 5524, 5696, 5856, 6106, 6461, 6633, 6864, 7102, 7216, 7456, 7886, 34146, 34394, 34640, 34846, 35857, 36058, 36215, 36352, 58510, 58694, 58861, 59058, 59216], "trial_type": "free-recall", "conditions": [12, 800, "a", 12000], "internal_node_id": "0.0-76.0-0.0", "key_presses": [69, 77, 80, 73, 82, 69, 13, 77, 65, 67, 72, 73, 78, 69, 13, 83, 80, 79, 85, 83, 69, 13, 67, 73, 84, 82, 85, 83, 13, 87, 73, 70, 69, 8, 8, 8, 8, 87, 73, 70, 69, 13], "trial": 2, "time_elapsed": 673193, "type": "FREE_RECALL", "trial_index": 103}, "uniqueid": "MTK3461:37QW5D2ZRHTMZ2ARD4V3ZGW6OSC8ST", "dateTime": 1520614083931}, {"current_trial": 104, "trialdata": {"rt": 2465, "trial_type": "text", "internal_node_id": "0.0-77.0", "time_elapsed": 677667, "key_press": 32, "type": "INSTRUCTIONS", "trial_index": 104}, "uniqueid": "MTK3461:37QW5D2ZRHTMZ2ARD4V3ZGW6OSC8ST", "dateTime": 1520614088402}, {"current_trial": 105, "trialdata": {"rt": [3303, 6303, 9533, 18006, 21015], "trial_type": "math-distractor", "key_times": [2812, 3303, 5567, 5800, 6303, 8969, 9141, 9533, 16417, 16697, 18006, 20104, 20392, 21015], "responses": ["8", "16", "11", "20", "16"], "num2": [1, 2, 1, 9, 9, 5], "num3": [5, 8, 5, 4, 1, 7], "conditions": [12, 800, "a", 24000], "internal_node_id": "0.0-78.0", "key_presses": [104, 13, 97, 102, 13, 97, 97, 13, 98, 96, 13, 97, 102, 13], "trial": 3, "time_elapsed": 703675, "type": "DISTRACTOR", "trial_index": 105, "num1": [2, 6, 5, 8, 6, 9]}, "uniqueid": "MTK3461:37QW5D2ZRHTMZ2ARD4V3ZGW6OSC8ST", "dateTime": 1520614114410}, {"current_trial": 106, "trialdata": {"rt": -1, "trial_type": "single-stim", "stimulus": "<p id=\"stim\">10</p>", "internal_node_id": "0.0-79.0-0.0", "time_elapsed": 706682, "key_press": -1, "trial_index": 106}, "uniqueid": "MTK3461:37QW5D2ZRHTMZ2ARD4V3ZGW6OSC8ST", "dateTime": 1520614117417}, {"current_trial": 107, "trialdata": {"rt": -1, "trial_type": "single-stim", "stimulus": "<p id=\"stim\">9</p>", "internal_node_id": "0.0-79.0-1.0", "time_elapsed": 707686, "key_press": -1, "trial_index": 107}, "uniqueid": "MTK3461:37QW5D2ZRHTMZ2ARD4V3ZGW6OSC8ST", "dateTime": 1520614118421}, {"current_trial": 108, "trialdata": {"rt": -1, "trial_type": "single-stim", "stimulus": "<p id=\"stim\">8</p>", "internal_node_id": "0.0-79.0-2.0", "time_elapsed": 708690, "key_press": -1, "trial_index": 108}, "uniqueid": "MTK3461:37QW5D2ZRHTMZ2ARD4V3ZGW6OSC8ST", "dateTime": 1520614119425}, {"current_trial": 109, "trialdata": {"rt": -1, "trial_type": "single-stim", "stimulus": "<p id=\"stim\">7</p>", "internal_node_id": "0.0-79.0-3.0", "time_elapsed": 709694, "key_press": -1, "trial_index": 109}, "uniqueid": "MTK3461:37QW5D2ZRHTMZ2ARD4V3ZGW6OSC8ST", "dateTime": 1520614120429}, {"current_trial": 110, "trialdata": {"rt": -1, "trial_type": "single-stim", "stimulus": "<p id=\"stim\">6</p>", "internal_node_id": "0.0-79.0-4.0", "time_elapsed": 710697, "key_press": -1, "trial_index": 110}, "uniqueid": "MTK3461:37QW5D2ZRHTMZ2ARD4V3ZGW6OSC8ST", "dateTime": 1520614121433}, {"current_trial": 111, "trialdata": {"rt": -1, "trial_type": "single-stim", "stimulus": "<p id=\"stim\">5</p>", "internal_node_id": "0.0-79.0-5.0", "time_elapsed": 711702, "key_press": -1, "trial_index": 111}, "uniqueid": "MTK3461:37QW5D2ZRHTMZ2ARD4V3ZGW6OSC8ST", "dateTime": 1520614122437}, {"current_trial": 112, "trialdata": {"rt": -1, "trial_type": "single-stim", "stimulus": "<p id=\"stim\">4</p>", "internal_node_id": "0.0-79.0-6.0", "time_elapsed": 712706, "key_press": -1, "trial_index": 112}, "uniqueid": "MTK3461:37QW5D2ZRHTMZ2ARD4V3ZGW6OSC8ST", "dateTime": 1520614123441}, {"current_trial": 113, "trialdata": {"rt": -1, "trial_type": "single-stim", "stimulus": "<p id=\"stim\">3</p>", "internal_node_id": "0.0-79.0-7.0", "time_elapsed": 713711, "key_press": -1, "trial_index": 113}, "uniqueid": "MTK3461:37QW5D2ZRHTMZ2ARD4V3ZGW6OSC8ST", "dateTime": 1520614124446}, {"current_trial": 114, "trialdata": {"rt": -1, "trial_type": "single-stim", "stimulus": "<p id=\"stim\">2</p>", "internal_node_id": "0.0-79.0-8.0", "time_elapsed": 714714, "key_press": -1, "trial_index": 114}, "uniqueid": "MTK3461:37QW5D2ZRHTMZ2ARD4V3ZGW6OSC8ST", "dateTime": 1520614125449}, {"current_trial": 115, "trialdata": {"rt": -1, "trial_type": "single-stim", "stimulus": "<p id=\"stim\">1</p>", "internal_node_id": "0.0-79.0-9.0", "time_elapsed": 715719, "key_press": -1, "trial_index": 115}, "uniqueid": "MTK3461:37QW5D2ZRHTMZ2ARD4V3ZGW6OSC8ST", "dateTime": 1520614126454}, {"current_trial": 116, "trialdata": {"rt": -1, "trial_type": "single-stim", "stimulus": "<p id=\"stim\">+</p>", "internal_node_id": "0.0-80.0-0.0", "time_elapsed": 717222, "key_press": -1, "type": "FIXATION", "trial_index": 116}, "uniqueid": "MTK3461:37QW5D2ZRHTMZ2ARD4V3ZGW6OSC8ST", "dateTime": 1520614127957}, {"current_trial": 117, "trialdata": {"rt": -1000, "trial_type": "single-audio", "word": "fleet", "stimulus": "/static/audio/wordpool/FLEET.wav", "conditions": [12, 800, "a", 24000], "internal_node_id": "0.0-81.0", "trial": 3, "time_elapsed": 719152, "serialpos": 0, "key_press": -1, "wordID": 577, "type": "PRES_AUD", "trial_index": 117}, "uniqueid": "MTK3461:37QW5D2ZRHTMZ2ARD4V3ZGW6OSC8ST", "dateTime": 1520614129887}, {"current_trial": 118, "trialdata": {"rt": -1000, "trial_type": "single-audio", "word": "pepper", "stimulus": "/static/audio/wordpool/PEPPER.wav", "conditions": [12, 800, "a", 24000], "internal_node_id": "0.0-82.0", "trial": 3, "time_elapsed": 720965, "serialpos": 1, "key_press": -1, "wordID": 1046, "type": "PRES_AUD", "trial_index": 118}, "uniqueid": "MTK3461:37QW5D2ZRHTMZ2ARD4V3ZGW6OSC8ST", "dateTime": 1520614131700}, {"current_trial": 119, "trialdata": {"rt": -1000, "trial_type": "single-audio", "word": "garlic", "stimulus": "/static/audio/wordpool/GARLIC.wav", "conditions": [12, 800, "a", 24000], "internal_node_id": "0.0-83.0", "trial": 3, "time_elapsed": 722780, "serialpos": 2, "key_press": -1, "wordID": 623, "type": "PRES_AUD", "trial_index": 119}, "uniqueid": "MTK3461:37QW5D2ZRHTMZ2ARD4V3ZGW6OSC8ST", "dateTime": 1520614133515}, {"current_trial": 120, "trialdata": {"rt": -1000, "trial_type": "single-audio", "word": "bunny", "stimulus": "/static/audio/wordpool/BUNNY.wav", "conditions": [12, 800, "a", 24000], "internal_node_id": "0.0-84.0", "trial": 3, "time_elapsed": 724566, "serialpos": 3, "key_press": -1, "wordID": 197, "type": "PRES_AUD", "trial_index": 120}, "uniqueid": "MTK3461:37QW5D2ZRHTMZ2ARD4V3ZGW6OSC8ST", "dateTime": 1520614135301}, {"current_trial": 121, "trialdata": {"rt": -1000, "trial_type": "single-audio", "word": "blackboard", "stimulus": "/static/audio/wordpool/BLACKBOARD.wav", "conditions": [12, 800, "a", 24000], "internal_node_id": "0.0-85.0", "trial": 3, "time_elapsed": 726208, "serialpos": 4, "key_press": -1, "wordID": 132, "type": "PRES_AUD", "trial_index": 121}, "uniqueid": "MTK3461:37QW5D2ZRHTMZ2ARD4V3ZGW6OSC8ST", "dateTime": 1520614136943}, {"current_trial": 122, "trialdata": {"rt": -1000, "trial_type": "single-audio", "word": "cricket", "stimulus": "/static/audio/wordpool/CRICKET.wav", "conditions": [12, 800, "a", 24000], "internal_node_id": "0.0-86.0", "trial": 3, "time_elapsed": 728056, "serialpos": 5, "key_press": -1, "wordID": 407, "type": "PRES_AUD", "trial_index": 122}, "uniqueid": "MTK3461:37QW5D2ZRHTMZ2ARD4V3ZGW6OSC8ST", "dateTime": 1520614138791}, {"current_trial": 123, "trialdata": {"rt": -1000, "trial_type": "single-audio", "word": "puppy", "stimulus": "/static/audio/wordpool/PUPPY.wav", "conditions": [12, 800, "a", 24000], "internal_node_id": "0.0-87.0", "trial": 3, "time_elapsed": 729686, "serialpos": 6, "key_press": -1, "wordID": 1143, "type": "PRES_AUD", "trial_index": 123}, "uniqueid": "MTK3461:37QW5D2ZRHTMZ2ARD4V3ZGW6OSC8ST", "dateTime": 1520614140421}, {"current_trial": 124, "trialdata": {"rt": -1000, "trial_type": "single-audio", "word": "scarecrow", "stimulus": "/static/audio/wordpool/SCARECROW.wav", "conditions": [12, 800, "a", 24000], "internal_node_id": "0.0-88.0", "trial": 3, "time_elapsed": 731326, "serialpos": 7, "key_press": -1, "wordID": 1244, "type": "PRES_AUD", "trial_index": 124}, "uniqueid": "MTK3461:37QW5D2ZRHTMZ2ARD4V3ZGW6OSC8ST", "dateTime": 1520614142061}, {"current_trial": 125, "trialdata": {"rt": -1000, "trial_type": "single-audio", "word": "judge", "stimulus": "/static/audio/wordpool/JUDGE.wav", "conditions": [12, 800, "a", 24000], "internal_node_id": "0.0-89.0", "trial": 3, "time_elapsed": 733000, "serialpos": 8, "key_press": -1, "wordID": 760, "type": "PRES_AUD", "trial_index": 125}, "uniqueid": "MTK3461:37QW5D2ZRHTMZ2ARD4V3ZGW6OSC8ST", "dateTime": 1520614143735}, {"current_trial": 126, "trialdata": {"rt": -1000, "trial_type": "single-audio", "word": "gift", "stimulus": "/static/audio/wordpool/GIFT.wav", "conditions": [12, 800, "a", 24000], "internal_node_id": "0.0-90.0", "trial": 3, "time_elapsed": 734668, "serialpos": 9, "key_press": -1, "wordID": 634, "type": "PRES_AUD", "trial_index": 126}, "uniqueid": "MTK3461:37QW5D2ZRHTMZ2ARD4V3ZGW6OSC8ST", "dateTime": 1520614145403}, {"current_trial": 127, "trialdata": {"rt": -1000, "trial_type": "single-audio", "word": "banquet", "stimulus": "/static/audio/wordpool/BANQUET.wav", "conditions": [12, 800, "a", 24000], "internal_node_id": "0.0-91.0", "trial": 3, "time_elapsed": 736420, "serialpos": 10, "key_press": -1, "wordID": 85, "type": "PRES_AUD", "trial_index": 127}, "uniqueid": "MTK3461:37QW5D2ZRHTMZ2ARD4V3ZGW6OSC8ST", "dateTime": 1520614147155}, {"current_trial": 128, "trialdata": {"rt": -1000, "trial_type": "single-audio", "word": "racket", "stimulus": "/static/audio/wordpool/RACKET.wav", "conditions": [12, 800, "a", 24000], "internal_node_id": "0.0-92.0", "trial": 3, "time_elapsed": 738217, "serialpos": 11, "key_press": -1, "wordID": 1154, "type": "PRES_AUD", "trial_index": 128}, "uniqueid": "MTK3461:37QW5D2ZRHTMZ2ARD4V3ZGW6OSC8ST", "dateTime": 1520614148952}, {"current_trial": 129, "trialdata": {"rt": -1, "trial_type": "single-stim", "stimulus": "", "internal_node_id": "0.0-93.0-0.0", "time_elapsed": 739539, "key_press": -1, "type": "PRE_RECALL_DELAY", "trial_index": 129}, "uniqueid": "MTK3461:37QW5D2ZRHTMZ2ARD4V3ZGW6OSC8ST", "dateTime": 1520614150274}, {"current_trial": 130, "trialdata": {"rt": -1000, "trial_type": "single-audio", "stimulus": "/static/audio/400Hz.wav", "internal_node_id": "0.0-94.0", "time_elapsed": 740046, "key_press": -1, "type": "PRE_RECALL_ALERT", "trial_index": 130}, "uniqueid": "MTK3461:37QW5D2ZRHTMZ2ARD4V3ZGW6OSC8ST", "dateTime": 1520614150781}, {"current_trial": 131, "trialdata": {"rt": [3271, 6891, 8726, 17741, 33565], "recwords": ["banquet", "rocket", "pepper", "bunny", "rocket"], "key_times": [1755, 2011, 2203, 2555, 2777, 2938, 3108, 3271, 3928, 4144, 4609, 4903, 5122, 5263, 5428, 5702, 6891, 7518, 7689, 7819, 7978, 8085, 8242, 8726, 15543, 15794, 16059, 16240, 16950, 17741, 32133, 32261, 32507, 32625, 32851, 33032, 33565], "trial_type": "free-recall", "conditions": [12, 800, "a", 24000], "internal_node_id": "0.0-95.0-0.0", "key_presses": [66, 65, 78, 81, 85, 69, 84, 32, 82, 65, 8, 79, 67, 75, 69, 84, 13, 80, 69, 80, 80, 69, 82, 13, 66, 85, 78, 78, 89, 13, 82, 79, 67, 75, 69, 84, 13], "trial": 3, "time_elapsed": 800048, "type": "FREE_RECALL", "trial_index": 131}, "uniqueid": "MTK3461:37QW5D2ZRHTMZ2ARD4V3ZGW6OSC8ST", "dateTime": 1520614210786}, {"current_trial": 132, "trialdata": {"rt": 1510, "trial_type": "text", "internal_node_id": "0.0-96.0", "time_elapsed": 803566, "key_press": 32, "type": "INSTRUCTIONS", "trial_index": 132}, "uniqueid": "MTK3461:37QW5D2ZRHTMZ2ARD4V3ZGW6OSC8ST", "dateTime": 1520614214301}, {"current_trial": 133, "trialdata": {"rt": [3169, 9024, 16244, 20694, 23966], "trial_type": "math-distractor", "key_times": [2489, 2681, 3169, 8467, 8683, 9024, 15385, 15852, 16244, 19268, 20051, 20694, 23365, 23591, 23966], "responses": ["10", "21", "21", "14", "16"], "num2": [5, 7, 8, 9, 7, 3], "num3": [3, 9, 6, 3, 2, 7], "conditions": [12, 1600, "a", 24000], "internal_node_id": "0.0-97.0", "key_presses": [97, 96, 13, 98, 97, 13, 98, 97, 13, 97, 100, 13, 97, 102, 13], "trial": 4, "time_elapsed": 829572, "type": "DISTRACTOR", "trial_index": 133, "num1": [2, 5, 9, 2, 7, 7]}, "uniqueid": "MTK3461:37QW5D2ZRHTMZ2ARD4V3ZGW6OSC8ST", "dateTime": 1520614240307}, {"current_trial": 134, "trialdata": {"rt": -1, "trial_type": "single-stim", "stimulus": "<p id=\"stim\">10</p>", "internal_node_id": "0.0-98.0-0.0", "time_elapsed": 832580, "key_press": -1, "trial_index": 134}, "uniqueid": "MTK3461:37QW5D2ZRHTMZ2ARD4V3ZGW6OSC8ST", "dateTime": 1520614243315}, {"current_trial": 135, "trialdata": {"rt": -1, "trial_type": "single-stim", "stimulus": "<p id=\"stim\">9</p>", "internal_node_id": "0.0-98.0-1.0", "time_elapsed": 833587, "key_press": -1, "trial_index": 135}, "uniqueid": "MTK3461:37QW5D2ZRHTMZ2ARD4V3ZGW6OSC8ST", "dateTime": 1520614244322}, {"current_trial": 136, "trialdata": {"rt": -1, "trial_type": "single-stim", "stimulus": "<p id=\"stim\">8</p>", "internal_node_id": "0.0-98.0-2.0", "time_elapsed": 834592, "key_press": -1, "trial_index": 136}, "uniqueid": "MTK3461:37QW5D2ZRHTMZ2ARD4V3ZGW6OSC8ST", "dateTime": 1520614245327}, {"current_trial": 137, "trialdata": {"rt": -1, "trial_type": "single-stim", "stimulus": "<p id=\"stim\">7</p>", "internal_node_id": "0.0-98.0-3.0", "time_elapsed": 835595, "key_press": -1, "trial_index": 137}, "uniqueid": "MTK3461:37QW5D2ZRHTMZ2ARD4V3ZGW6OSC8ST", "dateTime": 1520614246331}, {"current_trial": 138, "trialdata": {"rt": -1, "trial_type": "single-stim", "stimulus": "<p id=\"stim\">6</p>", "internal_node_id": "0.0-98.0-4.0", "time_elapsed": 836599, "key_press": -1, "trial_index": 138}, "uniqueid": "MTK3461:37QW5D2ZRHTMZ2ARD4V3ZGW6OSC8ST", "dateTime": 1520614247334}, {"current_trial": 139, "trialdata": {"rt": -1, "trial_type": "single-stim", "stimulus": "<p id=\"stim\">5</p>", "internal_node_id": "0.0-98.0-5.0", "time_elapsed": 837603, "key_press": -1, "trial_index": 139}, "uniqueid": "MTK3461:37QW5D2ZRHTMZ2ARD4V3ZGW6OSC8ST", "dateTime": 1520614248338}, {"current_trial": 140, "trialdata": {"rt": -1, "trial_type": "single-stim", "stimulus": "<p id=\"stim\">4</p>", "internal_node_id": "0.0-98.0-6.0", "time_elapsed": 838607, "key_press": -1, "trial_index": 140}, "uniqueid": "MTK3461:37QW5D2ZRHTMZ2ARD4V3ZGW6OSC8ST", "dateTime": 1520614249342}, {"current_trial": 141, "trialdata": {"rt": -1, "trial_type": "single-stim", "stimulus": "<p id=\"stim\">3</p>", "internal_node_id": "0.0-98.0-7.0", "time_elapsed": 839611, "key_press": -1, "trial_index": 141}, "uniqueid": "MTK3461:37QW5D2ZRHTMZ2ARD4V3ZGW6OSC8ST", "dateTime": 1520614250346}, {"current_trial": 142, "trialdata": {"rt": -1, "trial_type": "single-stim", "stimulus": "<p id=\"stim\">2</p>", "internal_node_id": "0.0-98.0-8.0", "time_elapsed": 840615, "key_press": -1, "trial_index": 142}, "uniqueid": "MTK3461:37QW5D2ZRHTMZ2ARD4V3ZGW6OSC8ST", "dateTime": 1520614251351}, {"current_trial": 143, "trialdata": {"rt": -1, "trial_type": "single-stim", "stimulus": "<p id=\"stim\">1</p>", "internal_node_id": "0.0-98.0-9.0", "time_elapsed": 841619, "key_press": -1, "trial_index": 143}, "uniqueid": "MTK3461:37QW5D2ZRHTMZ2ARD4V3ZGW6OSC8ST", "dateTime": 1520614252354}, {"current_trial": 144, "trialdata": {"rt": -1, "trial_type": "single-stim", "stimulus": "<p id=\"stim\">+</p>", "internal_node_id": "0.0-99.0-0.0", "time_elapsed": 843123, "key_press": -1, "type": "FIXATION", "trial_index": 144}, "uniqueid": "MTK3461:37QW5D2ZRHTMZ2ARD4V3ZGW6OSC8ST", "dateTime": 1520614253858}, {"current_trial": 145, "trialdata": {"rt": -1000, "trial_type": "single-audio", "word": "crib", "stimulus": "/static/audio/wordpool/CRIB.wav", "conditions": [12, 1600, "a", 24000], "internal_node_id": "0.0-100.0", "trial": 4, "time_elapsed": 845568, "serialpos": 0, "key_press": -1, "wordID": 406, "type": "PRES_AUD", "trial_index": 145}, "uniqueid": "MTK3461:37QW5D2ZRHTMZ2ARD4V3ZGW6OSC8ST", "dateTime": 1520614256303}, {"current_trial": 146, "trialdata": {"rt": -1000, "trial_type": "single-audio", "word": "bacon", "stimulus": "/static/audio/wordpool/BACON.wav", "conditions": [12, 1600, "a", 24000], "internal_node_id": "0.0-101.0", "trial": 4, "time_elapsed": 848087, "serialpos": 1, "key_press": -1, "wordID": 66, "type": "PRES_AUD", "trial_index": 146}, "uniqueid": "MTK3461:37QW5D2ZRHTMZ2ARD4V3ZGW6OSC8ST", "dateTime": 1520614258822}, {"current_trial": 147, "trialdata": {"rt": -1000, "trial_type": "single-audio", "word": "viking", "stimulus": "/static/audio/wordpool/VIKING.wav", "conditions": [12, 1600, "a", 24000], "internal_node_id": "0.0-102.0", "trial": 4, "time_elapsed": 850685, "serialpos": 2, "key_press": -1, "wordID": 1564, "type": "PRES_AUD", "trial_index": 147}, "uniqueid": "MTK3461:37QW5D2ZRHTMZ2ARD4V3ZGW6OSC8ST", "dateTime": 1520614261420}, {"current_trial": 148, "trialdata": {"rt": -1000, "trial_type": "single-audio", "word": "raft", "stimulus": "/static/audio/wordpool/RAFT.wav", "conditions": [12, 1600, "a", 24000], "internal_node_id": "0.0-103.0", "trial": 4, "time_elapsed": 853390, "serialpos": 3, "key_press": -1, "wordID": 1158, "type": "PRES_AUD", "trial_index": 148}, "uniqueid": "MTK3461:37QW5D2ZRHTMZ2ARD4V3ZGW6OSC8ST", "dateTime": 1520614264125}, {"current_trial": 149, "trialdata": {"rt": -1000, "trial_type": "single-audio", "word": "shark", "stimulus": "/static/audio/wordpool/SHARK.wav", "conditions": [12, 1600, "a", 24000], "internal_node_id": "0.0-104.0", "trial": 4, "time_elapsed": 856082, "serialpos": 4, "key_press": -1, "wordID": 1274, "type": "PRES_AUD", "trial_index": 149}, "uniqueid": "MTK3461:37QW5D2ZRHTMZ2ARD4V3ZGW6OSC8ST", "dateTime": 1520614266817}, {"current_trial": 150, "trialdata": {"rt": -1000, "trial_type": "single-audio", "word": "infant", "stimulus": "/static/audio/wordpool/INFANT.wav", "conditions": [12, 1600, "a", 24000], "internal_node_id": "0.0-105.0", "trial": 4, "time_elapsed": 858528, "serialpos": 5, "key_press": -1, "wordID": 736, "type": "PRES_AUD", "trial_index": 150}, "uniqueid": "MTK3461:37QW5D2ZRHTMZ2ARD4V3ZGW6OSC8ST", "dateTime": 1520614269263}, {"current_trial": 151, "trialdata": {"rt": -1000, "trial_type": "single-audio", "word": "woman", "stimulus": "/static/audio/wordpool/WOMAN.wav", "conditions": [12, 1600, "a", 24000], "internal_node_id": "0.0-106.0", "trial": 4, "time_elapsed": 861138, "serialpos": 6, "key_press": -1, "wordID": 1619, "type": "PRES_AUD", "trial_index": 151}, "uniqueid": "MTK3461:37QW5D2ZRHTMZ2ARD4V3ZGW6OSC8ST", "dateTime": 1520614271874}, {"current_trial": 152, "trialdata": {"rt": -1000, "trial_type": "single-audio", "word": "freezer", "stimulus": "/static/audio/wordpool/FREEZER.wav", "conditions": [12, 1600, "a", 24000], "internal_node_id": "0.0-107.0", "trial": 4, "time_elapsed": 863782, "serialpos": 7, "key_press": -1, "wordID": 603, "type": "PRES_AUD", "trial_index": 152}, "uniqueid": "MTK3461:37QW5D2ZRHTMZ2ARD4V3ZGW6OSC8ST", "dateTime": 1520614274517}, {"current_trial": 153, "trialdata": {"rt": -1000, "trial_type": "single-audio", "word": "luggage", "stimulus": "/static/audio/wordpool/LUGGAGE.wav", "conditions": [12, 1600, "a", 24000], "internal_node_id": "0.0-108.0", "trial": 4, "time_elapsed": 866300, "serialpos": 8, "key_press": -1, "wordID": 846, "type": "PRES_AUD", "trial_index": 153}, "uniqueid": "MTK3461:37QW5D2ZRHTMZ2ARD4V3ZGW6OSC8ST", "dateTime": 1520614277035}, {"current_trial": 154, "trialdata": {"rt": -1000, "trial_type": "single-audio", "word": "suitcase", "stimulus": "/static/audio/wordpool/SUITCASE.wav", "conditions": [12, 1600, "a", 24000], "internal_node_id": "0.0-109.0", "trial": 4, "time_elapsed": 868976, "serialpos": 9, "key_press": -1, "wordID": 1402, "type": "PRES_AUD", "trial_index": 154}, "uniqueid": "MTK3461:37QW5D2ZRHTMZ2ARD4V3ZGW6OSC8ST", "dateTime": 1520614279711}, {"current_trial": 155, "trialdata": {"rt": -1000, "trial_type": "single-audio", "word": "dancer", "stimulus": "/static/audio/wordpool/DANCER.wav", "conditions": [12, 1600, "a", 24000], "internal_node_id": "0.0-110.0", "trial": 4, "time_elapsed": 871666, "serialpos": 10, "key_press": -1, "wordID": 436, "type": "PRES_AUD", "trial_index": 155}, "uniqueid": "MTK3461:37QW5D2ZRHTMZ2ARD4V3ZGW6OSC8ST", "dateTime": 1520614282401}, {"current_trial": 156, "trialdata": {"rt": -1000, "trial_type": "single-audio", "word": "inmate", "stimulus": "/static/audio/wordpool/INMATE.wav", "conditions": [12, 1600, "a", 24000], "internal_node_id": "0.0-111.0", "trial": 4, "time_elapsed": 874249, "serialpos": 11, "key_press": -1, "wordID": 737, "type": "PRES_AUD", "trial_index": 156}, "uniqueid": "MTK3461:37QW5D2ZRHTMZ2ARD4V3ZGW6OSC8ST", "dateTime": 1520614284984}, {"current_trial": 157, "trialdata": {"rt": -1, "trial_type": "single-stim", "stimulus": "", "internal_node_id": "0.0-112.0-0.0", "time_elapsed": 875477, "key_press": -1, "type": "PRE_RECALL_DELAY", "trial_index": 157}, "uniqueid": "MTK3461:37QW5D2ZRHTMZ2ARD4V3ZGW6OSC8ST", "dateTime": 1520614286212}, {"current_trial": 158, "trialdata": {"rt": -1000, "trial_type": "single-audio", "stimulus": "/static/audio/400Hz.wav", "internal_node_id": "0.0-113.0", "time_elapsed": 875979, "key_press": -1, "type": "PRE_RECALL_ALERT", "trial_index": 158}, "uniqueid": "MTK3461:37QW5D2ZRHTMZ2ARD4V3ZGW6OSC8ST", "dateTime": 1520614286716}, {"current_trial": 159, "trialdata": {"rt": [2030, 4095, 5983, 7667, 13274, 15839], "recwords": ["dancer", "inmate", "infant", "mother", "luggage", "suitcase"], "key_times": [792, 976, 1199, 1377, 1634, 1814, 2030, 2743, 2909, 3174, 3314, 3576, 3908, 4095, 4776, 4962, 5066, 5217, 5376, 5620, 5983, 6473, 6719, 6862, 7021, 7169, 7251, 7667, 10977, 11238, 11375, 11580, 11788, 11965, 12606, 13274, 14009, 14232, 14397, 14580, 15068, 15280, 15482, 15600, 15839], "trial_type": "free-recall", "conditions": [12, 1600, "a", 24000], "internal_node_id": "0.0-114.0-0.0", "key_presses": [68, 65, 78, 67, 69, 82, 13, 73, 78, 77, 65, 84, 69, 13, 73, 78, 70, 65, 78, 84, 13, 77, 79, 84, 72, 69, 82, 13, 76, 85, 71, 71, 65, 71, 69, 13, 83, 85, 73, 84, 67, 65, 83, 69, 13], "trial": 4, "time_elapsed": 935990, "type": "FREE_RECALL", "trial_index": 159}, "uniqueid": "MTK3461:37QW5D2ZRHTMZ2ARD4V3ZGW6OSC8ST", "dateTime": 1520614346729}, {"current_trial": 160, "trialdata": {"rt": 5462, "trial_type": "text", "internal_node_id": "0.0-115.0", "time_elapsed": 943458, "key_press": 32, "type": "INSTRUCTIONS", "trial_index": 160}, "uniqueid": "MTK3461:37QW5D2ZRHTMZ2ARD4V3ZGW6OSC8ST", "dateTime": 1520614354194}, {"current_trial": 161, "trialdata": {"rt": [5240, 11123, 16107, 19706], "trial_type": "math-distractor", "key_times": [3127, 3362, 5240, 10431, 10719, 11123, 15324, 15657, 16107, 19003, 19245, 19706, 23590, 23955], "responses": ["14", "20", "17", "18"], "num2": [7, 7, 6, 8, 6], "num3": [1, 8, 3, 3, 2], "conditions": [12, 800, "a", 24000], "internal_node_id": "0.0-116.0", "key_presses": [97, 100, 13, 98, 96, 13, 97, 103, 13, 97, 104, 13, 97, 99], "trial": 5, "time_elapsed": 969463, "type": "DISTRACTOR", "trial_index": 161, "num1": [6, 5, 8, 7, 5]}, "uniqueid": "MTK3461:37QW5D2ZRHTMZ2ARD4V3ZGW6OSC8ST", "dateTime": 1520614380198}, {"current_trial": 162, "trialdata": {"rt": -1, "trial_type": "single-stim", "stimulus": "<p id=\"stim\">10</p>", "internal_node_id": "0.0-117.0-0.0", "time_elapsed": 972467, "key_press": -1, "trial_index": 162}, "uniqueid": "MTK3461:37QW5D2ZRHTMZ2ARD4V3ZGW6OSC8ST", "dateTime": 1520614383202}, {"current_trial": 163, "trialdata": {"rt": -1, "trial_type": "single-stim", "stimulus": "<p id=\"stim\">9</p>", "internal_node_id": "0.0-117.0-1.0", "time_elapsed": 973472, "key_press": -1, "trial_index": 163}, "uniqueid": "MTK3461:37QW5D2ZRHTMZ2ARD4V3ZGW6OSC8ST", "dateTime": 1520614384207}, {"current_trial": 164, "trialdata": {"rt": -1, "trial_type": "single-stim", "stimulus": "<p id=\"stim\">8</p>", "internal_node_id": "0.0-117.0-2.0", "time_elapsed": 974475, "key_press": -1, "trial_index": 164}, "uniqueid": "MTK3461:37QW5D2ZRHTMZ2ARD4V3ZGW6OSC8ST", "dateTime": 1520614385211}, {"current_trial": 165, "trialdata": {"rt": -1, "trial_type": "single-stim", "stimulus": "<p id=\"stim\">7</p>", "internal_node_id": "0.0-117.0-3.0", "time_elapsed": 975480, "key_press": -1, "trial_index": 165}, "uniqueid": "MTK3461:37QW5D2ZRHTMZ2ARD4V3ZGW6OSC8ST", "dateTime": 1520614386215}, {"current_trial": 166, "trialdata": {"rt": -1, "trial_type": "single-stim", "stimulus": "<p id=\"stim\">6</p>", "internal_node_id": "0.0-117.0-4.0", "time_elapsed": 976484, "key_press": -1, "trial_index": 166}, "uniqueid": "MTK3461:37QW5D2ZRHTMZ2ARD4V3ZGW6OSC8ST", "dateTime": 1520614387219}, {"current_trial": 167, "trialdata": {"rt": -1, "trial_type": "single-stim", "stimulus": "<p id=\"stim\">5</p>", "internal_node_id": "0.0-117.0-5.0", "time_elapsed": 977488, "key_press": -1, "trial_index": 167}, "uniqueid": "MTK3461:37QW5D2ZRHTMZ2ARD4V3ZGW6OSC8ST", "dateTime": 1520614388223}, {"current_trial": 168, "trialdata": {"rt": -1, "trial_type": "single-stim", "stimulus": "<p id=\"stim\">4</p>", "internal_node_id": "0.0-117.0-6.0", "time_elapsed": 978492, "key_press": -1, "trial_index": 168}, "uniqueid": "MTK3461:37QW5D2ZRHTMZ2ARD4V3ZGW6OSC8ST", "dateTime": 1520614389227}, {"current_trial": 169, "trialdata": {"rt": -1, "trial_type": "single-stim", "stimulus": "<p id=\"stim\">3</p>", "internal_node_id": "0.0-117.0-7.0", "time_elapsed": 979496, "key_press": -1, "trial_index": 169}, "uniqueid": "MTK3461:37QW5D2ZRHTMZ2ARD4V3ZGW6OSC8ST", "dateTime": 1520614390231}, {"current_trial": 170, "trialdata": {"rt": -1, "trial_type": "single-stim", "stimulus": "<p id=\"stim\">2</p>", "internal_node_id": "0.0-117.0-8.0", "time_elapsed": 980499, "key_press": -1, "trial_index": 170}, "uniqueid": "MTK3461:37QW5D2ZRHTMZ2ARD4V3ZGW6OSC8ST", "dateTime": 1520614391234}, {"current_trial": 171, "trialdata": {"rt": -1, "trial_type": "single-stim", "stimulus": "<p id=\"stim\">1</p>", "internal_node_id": "0.0-117.0-9.0", "time_elapsed": 981503, "key_press": -1, "trial_index": 171}, "uniqueid": "MTK3461:37QW5D2ZRHTMZ2ARD4V3ZGW6OSC8ST", "dateTime": 1520614392239}, {"current_trial": 172, "trialdata": {"rt": -1, "trial_type": "single-stim", "stimulus": "<p id=\"stim\">+</p>", "internal_node_id": "0.0-118.0-0.0", "time_elapsed": 983007, "key_press": -1, "type": "FIXATION", "trial_index": 172}, "uniqueid": "MTK3461:37QW5D2ZRHTMZ2ARD4V3ZGW6OSC8ST", "dateTime": 1520614393743}, {"current_trial": 173, "trialdata": {"rt": -1000, "trial_type": "single-audio", "word": "chauffeur", "stimulus": "/static/audio/wordpool/CHAUFFEUR.wav", "conditions": [12, 800, "a", 24000], "internal_node_id": "0.0-119.0", "trial": 5, "time_elapsed": 984962, "serialpos": 0, "key_press": -1, "wordID": 282, "type": "PRES_AUD", "trial_index": 173}, "uniqueid": "MTK3461:37QW5D2ZRHTMZ2ARD4V3ZGW6OSC8ST", "dateTime": 1520614395697}, {"current_trial": 174, "trialdata": {"rt": -1000, "trial_type": "single-audio", "word": "cowboy", "stimulus": "/static/audio/wordpool/COWBOY.wav", "conditions": [12, 800, "a", 24000], "internal_node_id": "0.0-120.0", "trial": 5, "time_elapsed": 986908, "serialpos": 1, "key_press": -1, "wordID": 394, "type": "PRES_AUD", "trial_index": 174}, "uniqueid": "MTK3461:37QW5D2ZRHTMZ2ARD4V3ZGW6OSC8ST", "dateTime": 1520614397644}, {"current_trial": 175, "trialdata": {"rt": -1000, "trial_type": "single-audio", "word": "honey", "stimulus": "/static/audio/wordpool/HONEY.wav", "conditions": [12, 800, "a", 24000], "internal_node_id": "0.0-121.0", "trial": 5, "time_elapsed": 988791, "serialpos": 2, "key_press": -1, "wordID": 712, "type": "PRES_AUD", "trial_index": 175}, "uniqueid": "MTK3461:37QW5D2ZRHTMZ2ARD4V3ZGW6OSC8ST", "dateTime": 1520614399526}, {"current_trial": 176, "trialdata": {"rt": -1000, "trial_type": "single-audio", "word": "turnip", "stimulus": "/static/audio/wordpool/TURNIP.wav", "conditions": [12, 800, "a", 24000], "internal_node_id": "0.0-122.0", "trial": 5, "time_elapsed": 990565, "serialpos": 3, "key_press": -1, "wordID": 1520, "type": "PRES_AUD", "trial_index": 176}, "uniqueid": "MTK3461:37QW5D2ZRHTMZ2ARD4V3ZGW6OSC8ST", "dateTime": 1520614401300}, {"current_trial": 177, "trialdata": {"rt": -1000, "trial_type": "single-audio", "word": "radish", "stimulus": "/static/audio/wordpool/RADISH.wav", "conditions": [12, 800, "a", 24000], "internal_node_id": "0.0-123.0", "trial": 5, "time_elapsed": 992193, "serialpos": 4, "key_press": -1, "wordID": 1157, "type": "PRES_AUD", "trial_index": 177}, "uniqueid": "MTK3461:37QW5D2ZRHTMZ2ARD4V3ZGW6OSC8ST", "dateTime": 1520614402928}, {"current_trial": 178, "trialdata": {"rt": -1000, "trial_type": "single-audio", "word": "rabbit", "stimulus": "/static/audio/wordpool/RABBIT.wav", "conditions": [12, 800, "a", 24000], "internal_node_id": "0.0-124.0", "trial": 5, "time_elapsed": 994036, "serialpos": 5, "key_press": -1, "wordID": 1151, "type": "PRES_AUD", "trial_index": 178}, "uniqueid": "MTK3461:37QW5D2ZRHTMZ2ARD4V3ZGW6OSC8ST", "dateTime": 1520614404771}, {"current_trial": 179, "trialdata": {"rt": -1000, "trial_type": "single-audio", "word": "highway", "stimulus": "/static/audio/wordpool/HIGHWAY.wav", "conditions": [12, 800, "a", 24000], "internal_node_id": "0.0-125.0", "trial": 5, "time_elapsed": 995912, "serialpos": 6, "key_press": -1, "wordID": 706, "type": "PRES_AUD", "trial_index": 179}, "uniqueid": "MTK3461:37QW5D2ZRHTMZ2ARD4V3ZGW6OSC8ST", "dateTime": 1520614406647}, {"current_trial": 180, "trialdata": {"rt": -1000, "trial_type": "single-audio", "word": "camel", "stimulus": "/static/audio/wordpool/CAMEL.wav", "conditions": [12, 800, "a", 24000], "internal_node_id": "0.0-126.0", "trial": 5, "time_elapsed": 997681, "serialpos": 7, "key_press": -1, "wordID": 222, "type": "PRES_AUD", "trial_index": 180}, "uniqueid": "MTK3461:37QW5D2ZRHTMZ2ARD4V3ZGW6OSC8ST", "dateTime": 1520614408416}, {"current_trial": 181, "trialdata": {"rt": -1000, "trial_type": "single-audio", "word": "buggy", "stimulus": "/static/audio/wordpool/BUGGY.wav", "conditions": [12, 800, "a", 24000], "internal_node_id": "0.0-127.0", "trial": 5, "time_elapsed": 999404, "serialpos": 8, "key_press": -1, "wordID": 187, "type": "PRES_AUD", "trial_index": 181}, "uniqueid": "MTK3461:37QW5D2ZRHTMZ2ARD4V3ZGW6OSC8ST", "dateTime": 1520614410139}, {"current_trial": 182, "trialdata": {"rt": -1000, "trial_type": "single-audio", "word": "milk", "stimulus": "/static/audio/wordpool/MILK.wav", "conditions": [12, 800, "a", 24000], "internal_node_id": "0.0-128.0", "trial": 5, "time_elapsed": 1001262, "serialpos": 9, "key_press": -1, "wordID": 894, "type": "PRES_AUD", "trial_index": 182}, "uniqueid": "MTK3461:37QW5D2ZRHTMZ2ARD4V3ZGW6OSC8ST", "dateTime": 1520614411997}, {"current_trial": 183, "trialdata": {"rt": -1000, "trial_type": "single-audio", "word": "mars", "stimulus": "/static/audio/wordpool/MARS.wav", "conditions": [12, 800, "a", 24000], "internal_node_id": "0.0-129.0", "trial": 5, "time_elapsed": 1002967, "serialpos": 10, "key_press": -1, "wordID": 872, "type": "PRES_AUD", "trial_index": 183}, "uniqueid": "MTK3461:37QW5D2ZRHTMZ2ARD4V3ZGW6OSC8ST", "dateTime": 1520614413702}, {"current_trial": 184, "trialdata": {"rt": -1000, "trial_type": "single-audio", "word": "boyfriend", "stimulus": "/static/audio/wordpool/BOYFRIEND.wav", "conditions": [12, 800, "a", 24000], "internal_node_id": "0.0-130.0", "trial": 5, "time_elapsed": 1004897, "serialpos": 11, "key_press": -1, "wordID": 161, "type": "PRES_AUD", "trial_index": 184}, "uniqueid": "MTK3461:37QW5D2ZRHTMZ2ARD4V3ZGW6OSC8ST", "dateTime": 1520614415632}, {"current_trial": 185, "trialdata": {"rt": -1, "trial_type": "single-stim", "stimulus": "", "internal_node_id": "0.0-131.0-0.0", "time_elapsed": 1006190, "key_press": -1, "type": "PRE_RECALL_DELAY", "trial_index": 185}, "uniqueid": "MTK3461:37QW5D2ZRHTMZ2ARD4V3ZGW6OSC8ST", "dateTime": 1520614416925}, {"current_trial": 186, "trialdata": {"rt": -1000, "trial_type": "single-audio", "stimulus": "/static/audio/400Hz.wav", "internal_node_id": "0.0-132.0", "time_elapsed": 1006694, "key_press": -1, "type": "PRE_RECALL_ALERT", "trial_index": 186}, "uniqueid": "MTK3461:37QW5D2ZRHTMZ2ARD4V3ZGW6OSC8ST", "dateTime": 1520614417430}, {"current_trial": 187, "trialdata": {"rt": [2570, 4573, 7393, 9200], "recwords": ["milk", "mars", "boyfriend", "rabbit"], "key_times": [1021, 1300, 1898, 2145, 2570, 2934, 3147, 3390, 3738, 4573, 5036, 5334, 5593, 5988, 6327, 6526, 6703, 6815, 7065, 7393, 7655, 7875, 8001, 8202, 8655, 8843, 9200], "trial_type": "free-recall", "conditions": [12, 800, "a", 24000], "internal_node_id": "0.0-133.0-0.0", "key_presses": [77, 73, 76, 75, 13, 77, 65, 82, 83, 13, 66, 79, 89, 70, 82, 73, 69, 78, 68, 13, 82, 65, 66, 66, 73, 84, 13], "trial": 5, "time_elapsed": 1066702, "type": "FREE_RECALL", "trial_index": 187}, "uniqueid": "MTK3461:37QW5D2ZRHTMZ2ARD4V3ZGW6OSC8ST", "dateTime": 1520614477440}, {"current_trial": 188, "trialdata": {"rt": 37279, "trial_type": "text", "internal_node_id": "0.0-134.0", "time_elapsed": 1105988, "key_press": 32, "type": "INSTRUCTIONS", "trial_index": 188}, "uniqueid": "MTK3461:37QW5D2ZRHTMZ2ARD4V3ZGW6OSC8ST", "dateTime": 1520614516723}, {"current_trial": 189, "trialdata": {"rt": [4120, 9420], "trial_type": "math-distractor", "key_times": [3204, 4120, 8407, 8674, 9420], "responses": ["7", "20"], "num2": [1, 9, 5], "num3": [4, 7, 4], "conditions": [24, 1600, "a", 12000], "internal_node_id": "0.0-135.0", "key_presses": [103, 13, 98, 96, 13], "trial": 6, "time_elapsed": 1119992, "type": "DISTRACTOR", "trial_index": 189, "num1": [2, 4, 7]}, "uniqueid": "MTK3461:37QW5D2ZRHTMZ2ARD4V3ZGW6OSC8ST", "dateTime": 1520614530727}, {"current_trial": 190, "trialdata": {"rt": -1, "trial_type": "single-stim", "stimulus": "<p id=\"stim\">10</p>", "internal_node_id": "0.0-136.0-0.0", "time_elapsed": 1122995, "key_press": -1, "trial_index": 190}, "uniqueid": "MTK3461:37QW5D2ZRHTMZ2ARD4V3ZGW6OSC8ST", "dateTime": 1520614533730}, {"current_trial": 191, "trialdata": {"rt": -1, "trial_type": "single-stim", "stimulus": "<p id=\"stim\">9</p>", "internal_node_id": "0.0-136.0-1.0", "time_elapsed": 1123997, "key_press": -1, "trial_index": 191}, "uniqueid": "MTK3461:37QW5D2ZRHTMZ2ARD4V3ZGW6OSC8ST", "dateTime": 1520614534732}, {"current_trial": 192, "trialdata": {"rt": -1, "trial_type": "single-stim", "stimulus": "<p id=\"stim\">8</p>", "internal_node_id": "0.0-136.0-2.0", "time_elapsed": 1124999, "key_press": -1, "trial_index": 192}, "uniqueid": "MTK3461:37QW5D2ZRHTMZ2ARD4V3ZGW6OSC8ST", "dateTime": 1520614535734}, {"current_trial": 193, "trialdata": {"rt": -1, "trial_type": "single-stim", "stimulus": "<p id=\"stim\">7</p>", "internal_node_id": "0.0-136.0-3.0", "time_elapsed": 1126002, "key_press": -1, "trial_index": 193}, "uniqueid": "MTK3461:37QW5D2ZRHTMZ2ARD4V3ZGW6OSC8ST", "dateTime": 1520614536737}, {"current_trial": 194, "trialdata": {"rt": -1, "trial_type": "single-stim", "stimulus": "<p id=\"stim\">6</p>", "internal_node_id": "0.0-136.0-4.0", "time_elapsed": 1127004, "key_press": -1, "trial_index": 194}, "uniqueid": "MTK3461:37QW5D2ZRHTMZ2ARD4V3ZGW6OSC8ST", "dateTime": 1520614537739}, {"current_trial": 195, "trialdata": {"rt": -1, "trial_type": "single-stim", "stimulus": "<p id=\"stim\">5</p>", "internal_node_id": "0.0-136.0-5.0", "time_elapsed": 1128007, "key_press": -1, "trial_index": 195}, "uniqueid": "MTK3461:37QW5D2ZRHTMZ2ARD4V3ZGW6OSC8ST", "dateTime": 1520614538742}, {"current_trial": 196, "trialdata": {"rt": -1, "trial_type": "single-stim", "stimulus": "<p id=\"stim\">4</p>", "internal_node_id": "0.0-136.0-6.0", "time_elapsed": 1129009, "key_press": -1, "trial_index": 196}, "uniqueid": "MTK3461:37QW5D2ZRHTMZ2ARD4V3ZGW6OSC8ST", "dateTime": 1520614539744}, {"current_trial": 197, "trialdata": {"rt": -1, "trial_type": "single-stim", "stimulus": "<p id=\"stim\">3</p>", "internal_node_id": "0.0-136.0-7.0", "time_elapsed": 1130011, "key_press": -1, "trial_index": 197}, "uniqueid": "MTK3461:37QW5D2ZRHTMZ2ARD4V3ZGW6OSC8ST", "dateTime": 1520614540746}, {"current_trial": 198, "trialdata": {"rt": -1, "trial_type": "single-stim", "stimulus": "<p id=\"stim\">2</p>", "internal_node_id": "0.0-136.0-8.0", "time_elapsed": 1131013, "key_press": -1, "trial_index": 198}, "uniqueid": "MTK3461:37QW5D2ZRHTMZ2ARD4V3ZGW6OSC8ST", "dateTime": 1520614541748}, {"current_trial": 199, "trialdata": {"rt": -1, "trial_type": "single-stim", "stimulus": "<p id=\"stim\">1</p>", "internal_node_id": "0.0-136.0-9.0", "time_elapsed": 1132015, "key_press": -1, "trial_index": 199}, "uniqueid": "MTK3461:37QW5D2ZRHTMZ2ARD4V3ZGW6OSC8ST", "dateTime": 1520614542750}, {"current_trial": 200, "trialdata": {"rt": -1, "trial_type": "single-stim", "stimulus": "<p id=\"stim\">+</p>", "internal_node_id": "0.0-137.0-0.0", "time_elapsed": 1133517, "key_press": -1, "type": "FIXATION", "trial_index": 200}, "uniqueid": "MTK3461:37QW5D2ZRHTMZ2ARD4V3ZGW6OSC8ST", "dateTime": 1520614544252}, {"current_trial": 201, "trialdata": {"rt": -1000, "trial_type": "single-audio", "word": "plaid", "stimulus": "/static/audio/wordpool/PLAID.wav", "conditions": [24, 1600, "a", 12000], "internal_node_id": "0.0-138.0", "trial": 6, "time_elapsed": 1136097, "serialpos": 0, "key_press": -1, "wordID": 1079, "type": "PRES_AUD", "trial_index": 201}, "uniqueid": "MTK3461:37QW5D2ZRHTMZ2ARD4V3ZGW6OSC8ST", "dateTime": 1520614546832}, {"current_trial": 202, "trialdata": {"rt": -1000, "trial_type": "single-audio", "word": "jelly", "stimulus": "/static/audio/wordpool/JELLY.wav", "conditions": [24, 1600, "a", 12000], "internal_node_id": "0.0-139.0", "trial": 6, "time_elapsed": 1138603, "serialpos": 1, "key_press": -1, "wordID": 754, "type": "PRES_AUD", "trial_index": 202}, "uniqueid": "MTK3461:37QW5D2ZRHTMZ2ARD4V3ZGW6OSC8ST", "dateTime": 1520614549338}, {"current_trial": 203, "trialdata": {"rt": -1000, "trial_type": "single-audio", "word": "balloon", "stimulus": "/static/audio/wordpool/BALLOON.wav", "conditions": [24, 1600, "a", 12000], "internal_node_id": "0.0-140.0", "trial": 6, "time_elapsed": 1141357, "serialpos": 2, "key_press": -1, "wordID": 74, "type": "PRES_AUD", "trial_index": 203}, "uniqueid": "MTK3461:37QW5D2ZRHTMZ2ARD4V3ZGW6OSC8ST", "dateTime": 1520614552092}, {"current_trial": 204, "trialdata": {"rt": -1000, "trial_type": "single-audio", "word": "swimmer", "stimulus": "/static/audio/wordpool/SWIMMER.wav", "conditions": [24, 1600, "a", 12000], "internal_node_id": "0.0-141.0", "trial": 6, "time_elapsed": 1144029, "serialpos": 3, "key_press": -1, "wordID": 1419, "type": "PRES_AUD", "trial_index": 204}, "uniqueid": "MTK3461:37QW5D2ZRHTMZ2ARD4V3ZGW6OSC8ST", "dateTime": 1520614554764}, {"current_trial": 205, "trialdata": {"rt": -1000, "trial_type": "single-audio", "word": "pliers", "stimulus": "/static/audio/wordpool/PLIERS.wav", "conditions": [24, 1600, "a", 12000], "internal_node_id": "0.0-142.0", "trial": 6, "time_elapsed": 1146753, "serialpos": 4, "key_press": -1, "wordID": 1088, "type": "PRES_AUD", "trial_index": 205}, "uniqueid": "MTK3461:37QW5D2ZRHTMZ2ARD4V3ZGW6OSC8ST", "dateTime": 1520614557488}, {"current_trial": 206, "trialdata": {"rt": -1000, "trial_type": "single-audio", "word": "scissors", "stimulus": "/static/audio/wordpool/SCISSORS.wav", "conditions": [24, 1600, "a", 12000], "internal_node_id": "0.0-143.0", "trial": 6, "time_elapsed": 1149195, "serialpos": 5, "key_press": -1, "wordID": 1249, "type": "PRES_AUD", "trial_index": 206}, "uniqueid": "MTK3461:37QW5D2ZRHTMZ2ARD4V3ZGW6OSC8ST", "dateTime": 1520614559930}, {"current_trial": 207, "trialdata": {"rt": -1000, "trial_type": "single-audio", "word": "denim", "stimulus": "/static/audio/wordpool/DENIM.wav", "conditions": [24, 1600, "a", 12000], "internal_node_id": "0.0-144.0", "trial": 6, "time_elapsed": 1151814, "serialpos": 6, "key_press": -1, "wordID": 445, "type": "PRES_AUD", "trial_index": 207}, "uniqueid": "MTK3461:37QW5D2ZRHTMZ2ARD4V3ZGW6OSC8ST", "dateTime": 1520614562549}, {"current_trial": 208, "trialdata": {"rt": -1000, "trial_type": "single-audio", "word": "atlas", "stimulus": "/static/audio/wordpool/ATLAS.wav", "conditions": [24, 1600, "a", 12000], "internal_node_id": "0.0-145.0", "trial": 6, "time_elapsed": 1154598, "serialpos": 7, "key_press": -1, "wordID": 52, "type": "PRES_AUD", "trial_index": 208}, "uniqueid": "MTK3461:37QW5D2ZRHTMZ2ARD4V3ZGW6OSC8ST", "dateTime": 1520614565333}, {"current_trial": 209, "trialdata": {"rt": -1000, "trial_type": "single-audio", "word": "carriage", "stimulus": "/static/audio/wordpool/CARRIAGE.wav", "conditions": [24, 1600, "a", 12000], "internal_node_id": "0.0-146.0", "trial": 6, "time_elapsed": 1157276, "serialpos": 8, "key_press": -1, "wordID": 247, "type": "PRES_AUD", "trial_index": 209}, "uniqueid": "MTK3461:37QW5D2ZRHTMZ2ARD4V3ZGW6OSC8ST", "dateTime": 1520614568011}, {"current_trial": 210, "trialdata": {"rt": -1000, "trial_type": "single-audio", "word": "flag", "stimulus": "/static/audio/wordpool/FLAG.wav", "conditions": [24, 1600, "a", 12000], "internal_node_id": "0.0-147.0", "trial": 6, "time_elapsed": 1159806, "serialpos": 9, "key_press": -1, "wordID": 572, "type": "PRES_AUD", "trial_index": 210}, "uniqueid": "MTK3461:37QW5D2ZRHTMZ2ARD4V3ZGW6OSC8ST", "dateTime": 1520614570541}, {"current_trial": 211, "trialdata": {"rt": -1000, "trial_type": "single-audio", "word": "lapel", "stimulus": "/static/audio/wordpool/LAPEL.wav", "conditions": [24, 1600, "a", 12000], "internal_node_id": "0.0-148.0", "trial": 6, "time_elapsed": 1162264, "serialpos": 10, "key_press": -1, "wordID": 799, "type": "PRES_AUD", "trial_index": 211}, "uniqueid": "MTK3461:37QW5D2ZRHTMZ2ARD4V3ZGW6OSC8ST", "dateTime": 1520614573000}, {"current_trial": 212, "trialdata": {"rt": -1000, "trial_type": "single-audio", "word": "survey", "stimulus": "/static/audio/wordpool/SURVEY.wav", "conditions": [24, 1600, "a", 12000], "internal_node_id": "0.0-149.0", "trial": 6, "time_elapsed": 1164684, "serialpos": 11, "key_press": -1, "wordID": 1413, "type": "PRES_AUD", "trial_index": 212}, "uniqueid": "MTK3461:37QW5D2ZRHTMZ2ARD4V3ZGW6OSC8ST", "dateTime": 1520614575419}, {"current_trial": 213, "trialdata": {"rt": -1000, "trial_type": "single-audio", "word": "dentist", "stimulus": "/static/audio/wordpool/DENTIST.wav", "conditions": [24, 1600, "a", 12000], "internal_node_id": "0.0-150.0", "trial": 6, "time_elapsed": 1167175, "serialpos": 12, "key_press": -1, "wordID": 446, "type": "PRES_AUD", "trial_index": 213}, "uniqueid": "MTK3461:37QW5D2ZRHTMZ2ARD4V3ZGW6OSC8ST", "dateTime": 1520614577911}, {"current_trial": 214, "trialdata": {"rt": -1000, "trial_type": "single-audio", "word": "france", "stimulus": "/static/audio/wordpool/FRANCE.wav", "conditions": [24, 1600, "a", 12000], "internal_node_id": "0.0-151.0", "trial": 6, "time_elapsed": 1169624, "serialpos": 13, "key_press": -1, "wordID": 600, "type": "PRES_AUD", "trial_index": 214}, "uniqueid": "MTK3461:37QW5D2ZRHTMZ2ARD4V3ZGW6OSC8ST", "dateTime": 1520614580359}, {"current_trial": 215, "trialdata": {"rt": -1000, "trial_type": "single-audio", "word": "turtle", "stimulus": "/static/audio/wordpool/TURTLE.wav", "conditions": [24, 1600, "a", 12000], "internal_node_id": "0.0-152.0", "trial": 6, "time_elapsed": 1172132, "serialpos": 14, "key_press": -1, "wordID": 1521, "type": "PRES_AUD", "trial_index": 215}, "uniqueid": "MTK3461:37QW5D2ZRHTMZ2ARD4V3ZGW6OSC8ST", "dateTime": 1520614582868}, {"current_trial": 216, "trialdata": {"rt": -1000, "trial_type": "single-audio", "word": "pork", "stimulus": "/static/audio/wordpool/PORK.wav", "conditions": [24, 1600, "a", 12000], "internal_node_id": "0.0-153.0", "trial": 6, "time_elapsed": 1174772, "serialpos": 15, "key_press": -1, "wordID": 1107, "type": "PRES_AUD", "trial_index": 216}, "uniqueid": "MTK3461:37QW5D2ZRHTMZ2ARD4V3ZGW6OSC8ST", "dateTime": 1520614585507}, {"current_trial": 217, "trialdata": {"rt": -1000, "trial_type": "single-audio", "word": "beef", "stimulus": "/static/audio/wordpool/BEEF.wav", "conditions": [24, 1600, "a", 12000], "internal_node_id": "0.0-154.0", "trial": 6, "time_elapsed": 1177556, "serialpos": 16, "key_press": -1, "wordID": 112, "type": "PRES_AUD", "trial_index": 217}, "uniqueid": "MTK3461:37QW5D2ZRHTMZ2ARD4V3ZGW6OSC8ST", "dateTime": 1520614588291}, {"current_trial": 218, "trialdata": {"rt": -1000, "trial_type": "single-audio", "word": "dandruff", "stimulus": "/static/audio/wordpool/DANDRUFF.wav", "conditions": [24, 1600, "a", 12000], "internal_node_id": "0.0-155.0", "trial": 6, "time_elapsed": 1180357, "serialpos": 17, "key_press": -1, "wordID": 438, "type": "PRES_AUD", "trial_index": 218}, "uniqueid": "MTK3461:37QW5D2ZRHTMZ2ARD4V3ZGW6OSC8ST", "dateTime": 1520614591092}, {"current_trial": 219, "trialdata": {"rt": -1000, "trial_type": "single-audio", "word": "swamp", "stimulus": "/static/audio/wordpool/SWAMP.wav", "conditions": [24, 1600, "a", 12000], "internal_node_id": "0.0-156.0", "trial": 6, "time_elapsed": 1183142, "serialpos": 18, "key_press": -1, "wordID": 1415, "type": "PRES_AUD", "trial_index": 219}, "uniqueid": "MTK3461:37QW5D2ZRHTMZ2ARD4V3ZGW6OSC8ST", "dateTime": 1520614593878}, {"current_trial": 220, "trialdata": {"rt": -1000, "trial_type": "single-audio", "word": "cyclone", "stimulus": "/static/audio/wordpool/CYCLONE.wav", "conditions": [24, 1600, "a", 12000], "internal_node_id": "0.0-157.0", "trial": 6, "time_elapsed": 1185874, "serialpos": 19, "key_press": -1, "wordID": 430, "type": "PRES_AUD", "trial_index": 220}, "uniqueid": "MTK3461:37QW5D2ZRHTMZ2ARD4V3ZGW6OSC8ST", "dateTime": 1520614596609}, {"current_trial": 221, "trialdata": {"rt": -1000, "trial_type": "single-audio", "word": "mammal", "stimulus": "/static/audio/wordpool/MAMMAL.wav", "conditions": [24, 1600, "a", 12000], "internal_node_id": "0.0-158.0", "trial": 6, "time_elapsed": 1188660, "serialpos": 20, "key_press": -1, "wordID": 860, "type": "PRES_AUD", "trial_index": 221}, "uniqueid": "MTK3461:37QW5D2ZRHTMZ2ARD4V3ZGW6OSC8ST", "dateTime": 1520614599396}, {"current_trial": 222, "trialdata": {"rt": -1000, "trial_type": "single-audio", "word": "blender", "stimulus": "/static/audio/wordpool/BLENDER.wav", "conditions": [24, 1600, "a", 12000], "internal_node_id": "0.0-159.0", "trial": 6, "time_elapsed": 1191327, "serialpos": 21, "key_press": -1, "wordID": 135, "type": "PRES_AUD", "trial_index": 222}, "uniqueid": "MTK3461:37QW5D2ZRHTMZ2ARD4V3ZGW6OSC8ST", "dateTime": 1520614602062}, {"current_trial": 223, "trialdata": {"rt": -1000, "trial_type": "single-audio", "word": "napkin", "stimulus": "/static/audio/wordpool/NAPKIN.wav", "conditions": [24, 1600, "a", 12000], "internal_node_id": "0.0-160.0", "trial": 6, "time_elapsed": 1193770, "serialpos": 22, "key_press": -1, "wordID": 936, "type": "PRES_AUD", "trial_index": 223}, "uniqueid": "MTK3461:37QW5D2ZRHTMZ2ARD4V3ZGW6OSC8ST", "dateTime": 1520614604505}, {"current_trial": 224, "trialdata": {"rt": -1000, "trial_type": "single-audio", "word": "pluto", "stimulus": "/static/audio/wordpool/PLUTO.wav", "conditions": [24, 1600, "a", 12000], "internal_node_id": "0.0-161.0", "trial": 6, "time_elapsed": 1196547, "serialpos": 23, "key_press": -1, "wordID": 1091, "type": "PRES_AUD", "trial_index": 224}, "uniqueid": "MTK3461:37QW5D2ZRHTMZ2ARD4V3ZGW6OSC8ST", "dateTime": 1520614607283}, {"current_trial": 225, "trialdata": {"rt": -1, "trial_type": "single-stim", "stimulus": "", "internal_node_id": "0.0-162.0-0.0", "time_elapsed": 1197943, "key_press": -1, "type": "PRE_RECALL_DELAY", "trial_index": 225}, "uniqueid": "MTK3461:37QW5D2ZRHTMZ2ARD4V3ZGW6OSC8ST", "dateTime": 1520614608678}, {"current_trial": 226, "trialdata": {"rt": -1000, "trial_type": "single-audio", "stimulus": "/static/audio/400Hz.wav", "internal_node_id": "0.0-163.0", "time_elapsed": 1198452, "key_press": -1, "type": "PRE_RECALL_ALERT", "trial_index": 226}, "uniqueid": "MTK3461:37QW5D2ZRHTMZ2ARD4V3ZGW6OSC8ST", "dateTime": 1520614609187}, {"current_trial": 227, "trialdata": {"rt": [2599, 4838, 6971, 8224, 10684, 16545, 21435, 38763, 40397, 44346], "recwords": ["pluto", "dandruff", "napkin", "flag", "france", "lapel", "pluto", "pork", "beef", "mammal"], "key_times": [670, 998, 1416, 1910, 2107, 2599, 2994, 3224, 3397, 3709, 3971, 4203, 4391, 4543, 4838, 5207, 5412, 5921, 6239, 6463, 6581, 6971, 7228, 7398, 7655, 7956, 8224, 8932, 9166, 9340, 9529, 9746, 10074, 10684, 14369, 14575, 14779, 15424, 16073, 16545, 19560, 19812, 20128, 20366, 20529, 21435, 37729, 37980, 38266, 38420, 38763, 39198, 39423, 39837, 40142, 40397, 43041, 43219, 43420, 43589, 43802, 43952, 44346], "trial_type": "free-recall", "conditions": [24, 1600, "a", 12000], "internal_node_id": "0.0-164.0-0.0", "key_presses": [80, 76, 85, 84, 79, 13, 68, 65, 78, 68, 82, 85, 70, 70, 13, 78, 65, 80, 75, 73, 78, 13, 70, 76, 65, 71, 13, 70, 82, 65, 78, 67, 69, 13, 76, 65, 80, 69, 76, 13, 80, 76, 85, 84, 79, 13, 80, 79, 82, 75, 13, 66, 69, 69, 70, 13, 77, 65, 77, 77, 65, 76, 13], "trial": 6, "time_elapsed": 1258456, "type": "FREE_RECALL", "trial_index": 227}, "uniqueid": "MTK3461:37QW5D2ZRHTMZ2ARD4V3ZGW6OSC8ST", "dateTime": 1520614669196}, {"current_trial": 228, "trialdata": {"rt": 2444, "trial_type": "text", "internal_node_id": "0.0-165.0", "time_elapsed": 1262906, "key_press": 32, "type": "INSTRUCTIONS", "trial_index": 228}, "uniqueid": "MTK3461:37QW5D2ZRHTMZ2ARD4V3ZGW6OSC8ST", "dateTime": 1520614673641}, {"current_trial": 229, "trialdata": {"rt": [4320, 10411], "trial_type": "math-distractor", "key_times": [3653, 3868, 4320, 9663, 9887, 10411], "responses": ["20", "16"], "num2": [8, 3, 7], "num3": [8, 9, 9], "conditions": [24, 1600, "a", 12000], "internal_node_id": "0.0-166.0", "key_presses": [98, 96, 13, 97, 102, 13], "trial": 7, "time_elapsed": 1276911, "type": "DISTRACTOR", "trial_index": 229, "num1": [5, 4, 8]}, "uniqueid": "MTK3461:37QW5D2ZRHTMZ2ARD4V3ZGW6OSC8ST", "dateTime": 1520614687647}, {"current_trial": 230, "trialdata": {"rt": -1, "trial_type": "single-stim", "stimulus": "<p id=\"stim\">10</p>", "internal_node_id": "0.0-167.0-0.0", "time_elapsed": 1279914, "key_press": -1, "trial_index": 230}, "uniqueid": "MTK3461:37QW5D2ZRHTMZ2ARD4V3ZGW6OSC8ST", "dateTime": 1520614690649}, {"current_trial": 231, "trialdata": {"rt": -1, "trial_type": "single-stim", "stimulus": "<p id=\"stim\">9</p>", "internal_node_id": "0.0-167.0-1.0", "time_elapsed": 1280917, "key_press": -1, "trial_index": 231}, "uniqueid": "MTK3461:37QW5D2ZRHTMZ2ARD4V3ZGW6OSC8ST", "dateTime": 1520614691652}, {"current_trial": 232, "trialdata": {"rt": -1, "trial_type": "single-stim", "stimulus": "<p id=\"stim\">8</p>", "internal_node_id": "0.0-167.0-2.0", "time_elapsed": 1281920, "key_press": -1, "trial_index": 232}, "uniqueid": "MTK3461:37QW5D2ZRHTMZ2ARD4V3ZGW6OSC8ST", "dateTime": 1520614692655}, {"current_trial": 233, "trialdata": {"rt": -1, "trial_type": "single-stim", "stimulus": "<p id=\"stim\">7</p>", "internal_node_id": "0.0-167.0-3.0", "time_elapsed": 1282922, "key_press": -1, "trial_index": 233}, "uniqueid": "MTK3461:37QW5D2ZRHTMZ2ARD4V3ZGW6OSC8ST", "dateTime": 1520614693657}, {"current_trial": 234, "trialdata": {"rt": -1, "trial_type": "single-stim", "stimulus": "<p id=\"stim\">6</p>", "internal_node_id": "0.0-167.0-4.0", "time_elapsed": 1283923, "key_press": -1, "trial_index": 234}, "uniqueid": "MTK3461:37QW5D2ZRHTMZ2ARD4V3ZGW6OSC8ST", "dateTime": 1520614694659}, {"current_trial": 235, "trialdata": {"rt": -1, "trial_type": "single-stim", "stimulus": "<p id=\"stim\">5</p>", "internal_node_id": "0.0-167.0-5.0", "time_elapsed": 1284925, "key_press": -1, "trial_index": 235}, "uniqueid": "MTK3461:37QW5D2ZRHTMZ2ARD4V3ZGW6OSC8ST", "dateTime": 1520614695661}, {"current_trial": 236, "trialdata": {"rt": -1, "trial_type": "single-stim", "stimulus": "<p id=\"stim\">4</p>", "internal_node_id": "0.0-167.0-6.0", "time_elapsed": 1285927, "key_press": -1, "trial_index": 236}, "uniqueid": "MTK3461:37QW5D2ZRHTMZ2ARD4V3ZGW6OSC8ST", "dateTime": 1520614696662}, {"current_trial": 237, "trialdata": {"rt": -1, "trial_type": "single-stim", "stimulus": "<p id=\"stim\">3</p>", "internal_node_id": "0.0-167.0-7.0", "time_elapsed": 1286930, "key_press": -1, "trial_index": 237}, "uniqueid": "MTK3461:37QW5D2ZRHTMZ2ARD4V3ZGW6OSC8ST", "dateTime": 1520614697666}, {"current_trial": 238, "trialdata": {"rt": -1, "trial_type": "single-stim", "stimulus": "<p id=\"stim\">2</p>", "internal_node_id": "0.0-167.0-8.0", "time_elapsed": 1287934, "key_press": -1, "trial_index": 238}, "uniqueid": "MTK3461:37QW5D2ZRHTMZ2ARD4V3ZGW6OSC8ST", "dateTime": 1520614698669}, {"current_trial": 239, "trialdata": {"rt": -1, "trial_type": "single-stim", "stimulus": "<p id=\"stim\">1</p>", "internal_node_id": "0.0-167.0-9.0", "time_elapsed": 1288935, "key_press": -1, "trial_index": 239}, "uniqueid": "MTK3461:37QW5D2ZRHTMZ2ARD4V3ZGW6OSC8ST", "dateTime": 1520614699670}, {"current_trial": 240, "trialdata": {"rt": -1, "trial_type": "single-stim", "stimulus": "<p id=\"stim\">+</p>", "internal_node_id": "0.0-168.0-0.0", "time_elapsed": 1290437, "key_press": -1, "type": "FIXATION", "trial_index": 240}, "uniqueid": "MTK3461:37QW5D2ZRHTMZ2ARD4V3ZGW6OSC8ST", "dateTime": 1520614701172}, {"current_trial": 241, "trialdata": {"rt": -1000, "trial_type": "single-audio", "word": "kidney", "stimulus": "/static/audio/wordpool/KIDNEY.wav", "conditions": [24, 1600, "a", 12000], "internal_node_id": "0.0-169.0", "trial": 7, "time_elapsed": 1293029, "serialpos": 0, "key_press": -1, "wordID": 775, "type": "PRES_AUD", "trial_index": 241}, "uniqueid": "MTK3461:37QW5D2ZRHTMZ2ARD4V3ZGW6OSC8ST", "dateTime": 1520614703765}, {"current_trial": 242, "trialdata": {"rt": -1000, "trial_type": "single-audio", "word": "picnic", "stimulus": "/static/audio/wordpool/PICNIC.wav", "conditions": [24, 1600, "a", 12000], "internal_node_id": "0.0-170.0", "trial": 7, "time_elapsed": 1295780, "serialpos": 1, "key_press": -1, "wordID": 1059, "type": "PRES_AUD", "trial_index": 242}, "uniqueid": "MTK3461:37QW5D2ZRHTMZ2ARD4V3ZGW6OSC8ST", "dateTime": 1520614706515}, {"current_trial": 243, "trialdata": {"rt": -1000, "trial_type": "single-audio", "word": "supper", "stimulus": "/static/audio/wordpool/SUPPER.wav", "conditions": [24, 1600, "a", 12000], "internal_node_id": "0.0-171.0", "trial": 7, "time_elapsed": 1298562, "serialpos": 2, "key_press": -1, "wordID": 1410, "type": "PRES_AUD", "trial_index": 243}, "uniqueid": "MTK3461:37QW5D2ZRHTMZ2ARD4V3ZGW6OSC8ST", "dateTime": 1520614709298}, {"current_trial": 244, "trialdata": {"rt": -1000, "trial_type": "single-audio", "word": "hand", "stimulus": "/static/audio/wordpool/HAND.wav", "conditions": [24, 1600, "a", 12000], "internal_node_id": "0.0-172.0", "trial": 7, "time_elapsed": 1301111, "serialpos": 3, "key_press": -1, "wordID": 682, "type": "PRES_AUD", "trial_index": 244}, "uniqueid": "MTK3461:37QW5D2ZRHTMZ2ARD4V3ZGW6OSC8ST", "dateTime": 1520614711847}, {"current_trial": 245, "trialdata": {"rt": -1000, "trial_type": "single-audio", "word": "transplant", "stimulus": "/static/audio/wordpool/TRANSPLANT.wav", "conditions": [24, 1600, "a", 12000], "internal_node_id": "0.0-173.0", "trial": 7, "time_elapsed": 1303912, "serialpos": 4, "key_press": -1, "wordID": 1495, "type": "PRES_AUD", "trial_index": 245}, "uniqueid": "MTK3461:37QW5D2ZRHTMZ2ARD4V3ZGW6OSC8ST", "dateTime": 1520614714647}, {"current_trial": 246, "trialdata": {"rt": -1000, "trial_type": "single-audio", "word": "parrot", "stimulus": "/static/audio/wordpool/PARROT.wav", "conditions": [24, 1600, "a", 12000], "internal_node_id": "0.0-174.0", "trial": 7, "time_elapsed": 1306414, "serialpos": 5, "key_press": -1, "wordID": 1014, "type": "PRES_AUD", "trial_index": 246}, "uniqueid": "MTK3461:37QW5D2ZRHTMZ2ARD4V3ZGW6OSC8ST", "dateTime": 1520614717150}, {"current_trial": 247, "trialdata": {"rt": -1000, "trial_type": "single-audio", "word": "belly", "stimulus": "/static/audio/wordpool/BELLY.wav", "conditions": [24, 1600, "a", 12000], "internal_node_id": "0.0-175.0", "trial": 7, "time_elapsed": 1309072, "serialpos": 6, "key_press": -1, "wordID": 118, "type": "PRES_AUD", "trial_index": 247}, "uniqueid": "MTK3461:37QW5D2ZRHTMZ2ARD4V3ZGW6OSC8ST", "dateTime": 1520614719807}, {"current_trial": 248, "trialdata": {"rt": -1000, "trial_type": "single-audio", "word": "harp", "stimulus": "/static/audio/wordpool/HARP.wav", "conditions": [24, 1600, "a", 12000], "internal_node_id": "0.0-176.0", "trial": 7, "time_elapsed": 1311689, "serialpos": 7, "key_press": -1, "wordID": 688, "type": "PRES_AUD", "trial_index": 248}, "uniqueid": "MTK3461:37QW5D2ZRHTMZ2ARD4V3ZGW6OSC8ST", "dateTime": 1520614722424}, {"current_trial": 249, "trialdata": {"rt": -1000, "trial_type": "single-audio", "word": "briefcase", "stimulus": "/static/audio/wordpool/BRIEFCASE.wav", "conditions": [24, 1600, "a", 12000], "internal_node_id": "0.0-177.0", "trial": 7, "time_elapsed": 1314470, "serialpos": 8, "key_press": -1, "wordID": 174, "type": "PRES_AUD", "trial_index": 249}, "uniqueid": "MTK3461:37QW5D2ZRHTMZ2ARD4V3ZGW6OSC8ST", "dateTime": 1520614725205}, {"current_trial": 250, "trialdata": {"rt": -1000, "trial_type": "single-audio", "word": "lizard", "stimulus": "/static/audio/wordpool/LIZARD.wav", "conditions": [24, 1600, "a", 12000], "internal_node_id": "0.0-178.0", "trial": 7, "time_elapsed": 1316990, "serialpos": 9, "key_press": -1, "wordID": 833, "type": "PRES_AUD", "trial_index": 250}, "uniqueid": "MTK3461:37QW5D2ZRHTMZ2ARD4V3ZGW6OSC8ST", "dateTime": 1520614727725}, {"current_trial": 251, "trialdata": {"rt": -1000, "trial_type": "single-audio", "word": "captive", "stimulus": "/static/audio/wordpool/CAPTIVE.wav", "conditions": [24, 1600, "a", 12000], "internal_node_id": "0.0-179.0", "trial": 7, "time_elapsed": 1319451, "serialpos": 10, "key_press": -1, "wordID": 239, "type": "PRES_AUD", "trial_index": 251}, "uniqueid": "MTK3461:37QW5D2ZRHTMZ2ARD4V3ZGW6OSC8ST", "dateTime": 1520614730186}, {"current_trial": 252, "trialdata": {"rt": -1000, "trial_type": "single-audio", "word": "shelter", "stimulus": "/static/audio/wordpool/SHELTER.wav", "conditions": [24, 1600, "a", 12000], "internal_node_id": "0.0-180.0", "trial": 7, "time_elapsed": 1322219, "serialpos": 11, "key_press": -1, "wordID": 1281, "type": "PRES_AUD", "trial_index": 252}, "uniqueid": "MTK3461:37QW5D2ZRHTMZ2ARD4V3ZGW6OSC8ST", "dateTime": 1520614732954}, {"current_trial": 253, "trialdata": {"rt": -1000, "trial_type": "single-audio", "word": "river", "stimulus": "/static/audio/wordpool/RIVER.wav", "conditions": [24, 1600, "a", 12000], "internal_node_id": "0.0-181.0", "trial": 7, "time_elapsed": 1324743, "serialpos": 12, "key_press": -1, "wordID": 1193, "type": "PRES_AUD", "trial_index": 253}, "uniqueid": "MTK3461:37QW5D2ZRHTMZ2ARD4V3ZGW6OSC8ST", "dateTime": 1520614735478}, {"current_trial": 254, "trialdata": {"rt": -1000, "trial_type": "single-audio", "word": "loft", "stimulus": "/static/audio/wordpool/LOFT.wav", "conditions": [24, 1600, "a", 12000], "internal_node_id": "0.0-182.0", "trial": 7, "time_elapsed": 1327505, "serialpos": 13, "key_press": -1, "wordID": 839, "type": "PRES_AUD", "trial_index": 254}, "uniqueid": "MTK3461:37QW5D2ZRHTMZ2ARD4V3ZGW6OSC8ST", "dateTime": 1520614738240}, {"current_trial": 255, "trialdata": {"rt": -1000, "trial_type": "single-audio", "word": "tuba", "stimulus": "/static/audio/wordpool/TUBA.wav", "conditions": [24, 1600, "a", 12000], "internal_node_id": "0.0-183.0", "trial": 7, "time_elapsed": 1330011, "serialpos": 14, "key_press": -1, "wordID": 1514, "type": "PRES_AUD", "trial_index": 255}, "uniqueid": "MTK3461:37QW5D2ZRHTMZ2ARD4V3ZGW6OSC8ST", "dateTime": 1520614740747}, {"current_trial": 256, "trialdata": {"rt": -1000, "trial_type": "single