{"assignmentId": "3X73LLYYQ2LIC0JF8C8NDZFZ4A0NHD", "workerId": "MTK3450", "questiondata": {"origin": "United States", "strat-rehearsal": "100", "marital": "Married/Domestic Partnership", "education": "Associate degree", "ethnicity": "Not Hispanic", "color_depth": 24, "distracted": "No", "wrote-notes": "Yes", "strat-other": "", "screen_width": 1536, "avail_screen_width": 1536, "avail_screen_height": 824, "strat-image": "51", "language": "English", "gender": "Female", "age": "46", "gender_other": "", "race": ["White"], "strat-categorize": "59", "pixel_depth": 24, "strat-spatial": "47", "strat-story": "51", "race_other": "", "screen_height": 864}, "bonus": 0, "hitId": "302OLP89DZEIOPGGNEKFRI2Z74SACT", "counterbalance": 494, "useragent": "Mozilla/5.0 (Windows NT 10.0; Win64; x64) AppleWebKit/537.36 (KHTML, like Gecko) Chrome/64.0.3282.186 Safari/537.36", "eventdata": [{"eventtype": "initialized", "interval": 0, "value": null, "timestamp": 1520544166545}, {"eventtype": "window_resize", "interval": 0, "value": [1396, 703], "timestamp": 1520544166545}, {"eventtype": "focus", "interval": 10524, "value": "off", "timestamp": 1520544177069}, {"eventtype": "focus", "interval": 3053, "value": "on", "timestamp": 1520544180122}], "data": [{"current_trial": 0, "trialdata": {"rt": 2163, "trial_type": "text", "internal_node_id": "0.0-0.0", "time_elapsed": 2165, "key_press": 32, "type": "INSTRUCTIONS", "trial_index": 0}, "uniqueid": "MTK3450:3X73LLYYQ2LIC0JF8C8NDZFZ4A0NHD", "dateTime": 1520544182140}, {"current_trial": 1, "trialdata": {"rt": 23855, "trial_type": "text", "internal_node_id": "0.0-1.0", "time_elapsed": 26023, "key_press": 32, "type": "INSTRUCTIONS", "trial_index": 1}, "uniqueid": "MTK3450:3X73LLYYQ2LIC0JF8C8NDZFZ4A0NHD", "dateTime": 1520544205997}, {"current_trial": 2, "trialdata": {"rt": [21726], "trial_type": "audio-test", "responses": ["ocean"], "internal_node_id": "0.0-2.0", "time_elapsed": 47802, "type": "AUDIO_TEST", "trial_index": 2}, "uniqueid": "MTK3450:3X73LLYYQ2LIC0JF8C8NDZFZ4A0NHD", "dateTime": 1520544227776}, {"current_trial": 3, "trialdata": {"rt": [11983], "trial_type": "audio-test", "responses": ["crystal"], "internal_node_id": "0.0-3.0", "time_elapsed": 59788, "type": "AUDIO_TEST", "trial_index": 3}, "uniqueid": "MTK3450:3X73LLYYQ2LIC0JF8C8NDZFZ4A0NHD", "dateTime": 1520544239762}, {"current_trial": 4, "trialdata": {"rt": [9460], "trial_type": "audio-test", "responses": ["spice"], "internal_node_id": "0.0-4.0", "time_elapsed": 69250, "type": "AUDIO_TEST", "trial_index": 4}, "uniqueid": "MTK3450:3X73LLYYQ2LIC0JF8C8NDZFZ4A0NHD", "dateTime": 1520544249224}, {"current_trial": 5, "trialdata": {"rt": 19220, "trial_type": "survey-text", "responses": "{\"Q0\":\"12\",\"Q1\":\"7\",\"Q2\":\"5\"}", "internal_node_id": "0.0-5.0", "time_elapsed": 89225, "type": "SLEEP_SURVEY", "trial_index": 5}, "uniqueid": "MTK3450:3X73LLYYQ2LIC0JF8C8NDZFZ4A0NHD", "dateTime": 1520544269199}, {"current_trial": 6, "trialdata": {"rt": 65620, "trial_type": "text", "internal_node_id": "0.0-6.0", "time_elapsed": 155848, "key_press": 32, "type": "INSTRUCTIONS", "trial_index": 6}, "uniqueid": "MTK3450:3X73LLYYQ2LIC0JF8C8NDZFZ4A0NHD", "dateTime": 1520544335822}, {"current_trial": 7, "trialdata": {"rt": 16484, "trial_type": "text", "internal_node_id": "0.0-7.0", "time_elapsed": 172835, "key_press": 32, "type": "INSTRUCTIONS", "trial_index": 7}, "uniqueid": "MTK3450:3X73LLYYQ2LIC0JF8C8NDZFZ4A0NHD", "dateTime": 1520544352809}, {"current_trial": 8, "trialdata": {"rt": 8234, "trial_type": "text", "internal_node_id": "0.0-8.0", "time_elapsed": 181569, "key_press": 32, "type": "INSTRUCTIONS", "trial_index": 8}, "uniqueid": "MTK3450:3X73LLYYQ2LIC0JF8C8NDZFZ4A0NHD", "dateTime": 1520544361544}, {"current_trial": 9, "trialdata": {"rt": [5785, 10874, 13326, 17147], "trial_type": "math-distractor", "key_times": [4968, 5785, 9633, 10153, 10874, 12648, 13326, 16219, 16659, 17147], "responses": ["4", "15", "8", "19"], "num2": [1, 5, 4, 7, 7], "num3": [2, 7, 3, 4, 5], "conditions": [18, 1200, "a", 18000], "internal_node_id": "0.0-9.0", "key_presses": [52, 13, 49, 53, 13, 56, 13, 49, 57, 13], "trial": 0, "time_elapsed": 200580, "type": "DISTRACTOR", "trial_index": 9, "num1": [1, 3, 1, 8, 8]}, "uniqueid": "MTK3450:3X73LLYYQ2LIC0JF8C8NDZFZ4A0NHD", "dateTime": 1520544380554}, {"current_trial": 10, "trialdata": {"rt": -1, "trial_type": "single-stim", "stimulus": "<p id=\"stim\">10</p>", "internal_node_id": "0.0-10.0-0.0", "time_elapsed": 203584, "key_press": -1, "trial_index": 10}, "uniqueid": "MTK3450:3X73LLYYQ2LIC0JF8C8NDZFZ4A0NHD", "dateTime": 1520544383558}, {"current_trial": 11, "trialdata": {"rt": -1, "trial_type": "single-stim", "stimulus": "<p id=\"stim\">9</p>", "internal_node_id": "0.0-10.0-1.0", "time_elapsed": 204585, "key_press": -1, "trial_index": 11}, "uniqueid": "MTK3450:3X73LLYYQ2LIC0JF8C8NDZFZ4A0NHD", "dateTime": 1520544384559}, {"current_trial": 12, "trialdata": {"rt": -1, "trial_type": "single-stim", "stimulus": "<p id=\"stim\">8</p>", "internal_node_id": "0.0-10.0-2.0", "time_elapsed": 205587, "key_press": -1, "trial_index": 12}, "uniqueid": "MTK3450:3X73LLYYQ2LIC0JF8C8NDZFZ4A0NHD", "dateTime": 1520544385561}, {"current_trial": 13, "trialdata": {"rt": -1, "trial_type": "single-stim", "stimulus": "<p id=\"stim\">7</p>", "internal_node_id": "0.0-10.0-3.0", "time_elapsed": 206590, "key_press": -1, "trial_index": 13}, "uniqueid": "MTK3450:3X73LLYYQ2LIC0JF8C8NDZFZ4A0NHD", "dateTime": 1520544386564}, {"current_trial": 14, "trialdata": {"rt": -1, "trial_type": "single-stim", "stimulus": "<p id=\"stim\">6</p>", "internal_node_id": "0.0-10.0-4.0", "time_elapsed": 207592, "key_press": -1, "trial_index": 14}, "uniqueid": "MTK3450:3X73LLYYQ2LIC0JF8C8NDZFZ4A0NHD", "dateTime": 1520544387566}, {"current_trial": 15, "trialdata": {"rt": -1, "trial_type": "single-stim", "stimulus": "<p id=\"stim\">5</p>", "internal_node_id": "0.0-10.0-5.0", "time_elapsed": 208596, "key_press": -1, "trial_index": 15}, "uniqueid": "MTK3450:3X73LLYYQ2LIC0JF8C8NDZFZ4A0NHD", "dateTime": 1520544388570}, {"current_trial": 16, "trialdata": {"rt": -1, "trial_type": "single-stim", "stimulus": "<p id=\"stim\">4</p>", "internal_node_id": "0.0-10.0-6.0", "time_elapsed": 209598, "key_press": -1, "trial_index": 16}, "uniqueid": "MTK3450:3X73LLYYQ2LIC0JF8C8NDZFZ4A0NHD", "dateTime": 1520544389572}, {"current_trial": 17, "trialdata": {"rt": -1, "trial_type": "single-stim", "stimulus": "<p id=\"stim\">3</p>", "internal_node_id": "0.0-10.0-7.0", "time_elapsed": 210601, "key_press": -1, "trial_index": 17}, "uniqueid": "MTK3450:3X73LLYYQ2LIC0JF8C8NDZFZ4A0NHD", "dateTime": 1520544390575}, {"current_trial": 18, "trialdata": {"rt": -1, "trial_type": "single-stim", "stimulus": "<p id=\"stim\">2</p>", "internal_node_id": "0.0-10.0-8.0", "time_elapsed": 211603, "key_press": -1, "trial_index": 18}, "uniqueid": "MTK3450:3X73LLYYQ2LIC0JF8C8NDZFZ4A0NHD", "dateTime": 1520544391578}, {"current_trial": 19, "trialdata": {"rt": -1, "trial_type": "single-stim", "stimulus": "<p id=\"stim\">1</p>", "internal_node_id": "0.0-10.0-9.0", "time_elapsed": 212606, "key_press": -1, "trial_index": 19}, "uniqueid": "MTK3450:3X73LLYYQ2LIC0JF8C8NDZFZ4A0NHD", "dateTime": 1520544392580}, {"current_trial": 20, "trialdata": {"rt": -1, "trial_type": "single-stim", "stimulus": "<p id=\"stim\">+</p>", "internal_node_id": "0.0-11.0-0.0", "time_elapsed": 214108, "key_press": -1, "type": "FIXATION", "trial_index": 20}, "uniqueid": "MTK3450:3X73LLYYQ2LIC0JF8C8NDZFZ4A0NHD", "dateTime": 1520544394083}, {"current_trial": 21, "trialdata": {"rt": -1000, "trial_type": "single-audio", "word": "curtain", "stimulus": "/static/audio/wordpool/CURTAIN.wav", "conditions": [18, 1200, "a", 18000], "internal_node_id": "0.0-12.0", "trial": 0, "time_elapsed": 216268, "serialpos": 0, "key_press": -1, "wordID": 426, "type": "PRES_AUD", "trial_index": 21}, "uniqueid": "MTK3450:3X73LLYYQ2LIC0JF8C8NDZFZ4A0NHD", "dateTime": 1520544396242}, {"current_trial": 22, "trialdata": {"rt": -1000, "trial_type": "single-audio", "word": "uncle", "stimulus": "/static/audio/wordpool/UNCLE.wav", "conditions": [18, 1200, "a", 18000], "internal_node_id": "0.0-13.0", "trial": 0, "time_elapsed": 218472, "serialpos": 1, "key_press": -1, "wordID": 1535, "type": "PRES_AUD", "trial_index": 22}, "uniqueid": "MTK3450:3X73LLYYQ2LIC0JF8C8NDZFZ4A0NHD", "dateTime": 1520544398447}, {"current_trial": 23, "trialdata": {"rt": 401.33333333335486, "trial_type": "single-audio", "word": "lapel", "stimulus": "/static/audio/wordpool/LAPEL.wav", "conditions": [18, 1200, "a", 18000], "internal_node_id": "0.0-14.0", "trial": 0, "time_elapsed": 220756, "serialpos": 2, "key_press": 175, "wordID": 799, "type": "PRES_AUD", "trial_index": 23}, "uniqueid": "MTK3450:3X73LLYYQ2LIC0JF8C8NDZFZ4A0NHD", "dateTime": 1520544400730}, {"current_trial": 24, "trialdata": {"rt": 979.9999999999898, "trial_type": "single-audio", "word": "partner", "stimulus": "/static/audio/wordpool/PARTNER.wav", "conditions": [18, 1200, "a", 18000], "internal_node_id": "0.0-15.0", "trial": 0, "time_elapsed": 222901, "serialpos": 3, "key_press": 175, "wordID": 1016, "type": "PRES_AUD", "trial_index": 24}, "uniqueid": "MTK3450:3X73LLYYQ2LIC0JF8C8NDZFZ4A0NHD", "dateTime": 1520544402875}, {"current_trial": 25, "trialdata": {"rt": -1000, "trial_type": "single-audio", "word": "blouse", "stimulus": "/static/audio/wordpool/BLOUSE.wav", "conditions": [18, 1200, "a", 18000], "internal_node_id": "0.0-16.0", "trial": 0, "time_elapsed": 225090, "serialpos": 4, "key_press": -1, "wordID": 138, "type": "PRES_AUD", "trial_index": 25}, "uniqueid": "MTK3450:3X73LLYYQ2LIC0JF8C8NDZFZ4A0NHD", "dateTime": 1520544405064}, {"current_trial": 26, "trialdata": {"rt": -1000, "trial_type": "single-audio", "word": "frame", "stimulus": "/static/audio/wordpool/FRAME.wav", "conditions": [18, 1200, "a", 18000], "internal_node_id": "0.0-17.0", "trial": 0, "time_elapsed": 227229, "serialpos": 5, "key_press": -1, "wordID": 599, "type": "PRES_AUD", "trial_index": 26}, "uniqueid": "MTK3450:3X73LLYYQ2LIC0JF8C8NDZFZ4A0NHD", "dateTime": 1520544407203}, {"current_trial": 27, "trialdata": {"rt": -1000, "trial_type": "single-audio", "word": "tortoise", "stimulus": "/static/audio/wordpool/TORTOISE.wav", "conditions": [18, 1200, "a", 18000], "internal_node_id": "0.0-18.0", "trial": 0, "time_elapsed": 229381, "serialpos": 6, "key_press": -1, "wordID": 1485, "type": "PRES_AUD", "trial_index": 27}, "uniqueid": "MTK3450:3X73LLYYQ2LIC0JF8C8NDZFZ4A0NHD", "dateTime": 1520544409355}, {"current_trial": 28, "trialdata": {"rt": -1000, "trial_type": "single-audio", "word": "icing", "stimulus": "/static/audio/wordpool/ICING.wav", "conditions": [18, 1200, "a", 18000], "internal_node_id": "0.0-19.0", "trial": 0, "time_elapsed": 231720, "serialpos": 7, "key_press": -1, "wordID": 731, "type": "PRES_AUD", "trial_index": 28}, "uniqueid": "MTK3450:3X73LLYYQ2LIC0JF8C8NDZFZ4A0NHD", "dateTime": 1520544411694}, {"current_trial": 29, "trialdata": {"rt": -1000, "trial_type": "single-audio", "word": "crater", "stimulus": "/static/audio/wordpool/CRATER.wav", "conditions": [18, 1200, "a", 18000], "internal_node_id": "0.0-20.0", "trial": 0, "time_elapsed": 233982, "serialpos": 8, "key_press": -1, "wordID": 399, "type": "PRES_AUD", "trial_index": 29}, "uniqueid": "MTK3450:3X73LLYYQ2LIC0JF8C8NDZFZ4A0NHD", "dateTime": 1520544413956}, {"current_trial": 30, "trialdata": {"rt": -1000, "trial_type": "single-audio", "word": "pliers", "stimulus": "/static/audio/wordpool/PLIERS.wav", "conditions": [18, 1200, "a", 18000], "internal_node_id": "0.0-21.0", "trial": 0, "time_elapsed": 236249, "serialpos": 9, "key_press": -1, "wordID": 1088, "type": "PRES_AUD", "trial_index": 30}, "uniqueid": "MTK3450:3X73LLYYQ2LIC0JF8C8NDZFZ4A0NHD", "dateTime": 1520544416224}, {"current_trial": 31, "trialdata": {"rt": -1000, "trial_type": "single-audio", "word": "muffin", "stimulus": "/static/audio/wordpool/MUFFIN.wav", "conditions": [18, 1200, "a", 18000], "internal_node_id": "0.0-22.0", "trial": 0, "time_elapsed": 238456, "serialpos": 10, "key_press": -1, "wordID": 928, "type": "PRES_AUD", "trial_index": 31}, "uniqueid": "MTK3450:3X73LLYYQ2LIC0JF8C8NDZFZ4A0NHD", "dateTime": 1520544418430}, {"current_trial": 32, "trialdata": {"rt": -1000, "trial_type": "single-audio", "word": "possum", "stimulus": "/static/audio/wordpool/POSSUM.wav", "conditions": [18, 1200, "a", 18000], "internal_node_id": "0.0-23.0", "trial": 0, "time_elapsed": 240703, "serialpos": 11, "key_press": -1, "wordID": 1111, "type": "PRES_AUD", "trial_index": 32}, "uniqueid": "MTK3450:3X73LLYYQ2LIC0JF8C8NDZFZ4A0NHD", "dateTime": 1520544420677}, {"current_trial": 33, "trialdata": {"rt": -1000, "trial_type": "single-audio", "word": "wasp", "stimulus": "/static/audio/wordpool/WASP.wav", "conditions": [18, 1200, "a", 18000], "internal_node_id": "0.0-24.0", "trial": 0, "time_elapsed": 242887, "serialpos": 12, "key_press": -1, "wordID": 1592, "type": "PRES_AUD", "trial_index": 33}, "uniqueid": "MTK3450:3X73LLYYQ2LIC0JF8C8NDZFZ4A0NHD", "dateTime": 1520544422861}, {"current_trial": 34, "trialdata": {"rt": -1000, "trial_type": "single-audio", "word": "goblin", "stimulus": "/static/audio/wordpool/GOBLIN.wav", "conditions": [18, 1200, "a", 18000], "internal_node_id": "0.0-25.0", "trial": 0, "time_elapsed": 245197, "serialpos": 13, "key_press": -1, "wordID": 644, "type": "PRES_AUD", "trial_index": 34}, "uniqueid": "MTK3450:3X73LLYYQ2LIC0JF8C8NDZFZ4A0NHD", "dateTime": 1520544425171}, {"current_trial": 35, "trialdata": {"rt": -1000, "trial_type": "single-audio", "word": "mars", "stimulus": "/static/audio/wordpool/MARS.wav", "conditions": [18, 1200, "a", 18000], "internal_node_id": "0.0-26.0", "trial": 0, "time_elapsed": 247431, "serialpos": 14, "key_press": -1, "wordID": 872, "type": "PRES_AUD", "trial_index": 35}, "uniqueid": "MTK3450:3X73LLYYQ2LIC0JF8C8NDZFZ4A0NHD", "dateTime": 1520544427406}, {"current_trial": 36, "trialdata": {"rt": -1000, "trial_type": "single-audio", "word": "hook", "stimulus": "/static/audio/wordpool/HOOK.wav", "conditions": [18, 1200, "a", 18000], "internal_node_id": "0.0-27.0", "trial": 0, "time_elapsed": 249642, "serialpos": 15, "key_press": -1, "wordID": 714, "type": "PRES_AUD", "trial_index": 36}, "uniqueid": "MTK3450:3X73LLYYQ2LIC0JF8C8NDZFZ4A0NHD", "dateTime": 1520544429616}, {"current_trial": 37, "trialdata": {"rt": -1000, "trial_type": "single-audio", "word": "beast", "stimulus": "/static/audio/wordpool/BEAST.wav", "conditions": [18, 1200, "a", 18000], "internal_node_id": "0.0-28.0", "trial": 0, "time_elapsed": 251812, "serialpos": 16, "key_press": -1, "wordID": 107, "type": "PRES_AUD", "trial_index": 37}, "uniqueid": "MTK3450:3X73LLYYQ2LIC0JF8C8NDZFZ4A0NHD", "dateTime": 1520544431786}, {"current_trial": 38, "trialdata": {"rt": -1000, "trial_type": "single-audio", "word": "cottage", "stimulus": "/static/audio/wordpool/COTTAGE.wav", "conditions": [18, 1200, "a", 18000], "internal_node_id": "0.0-29.0", "trial": 0, "time_elapsed": 254058, "serialpos": 17, "key_press": -1, "wordID": 383, "type": "PRES_AUD", "trial_index": 38}, "uniqueid": "MTK3450:3X73LLYYQ2LIC0JF8C8NDZFZ4A0NHD", "dateTime": 1520544434033}, {"current_trial": 39, "trialdata": {"rt": -1, "trial_type": "single-stim", "stimulus": "", "internal_node_id": "0.0-30.0-0.0", "time_elapsed": 255457, "key_press": -1, "type": "PRE_RECALL_DELAY", "trial_index": 39}, "uniqueid": "MTK3450:3X73LLYYQ2LIC0JF8C8NDZFZ4A0NHD", "dateTime": 1520544435431}, {"current_trial": 40, "trialdata": {"rt": -1000, "trial_type": "single-audio", "stimulus": "/static/audio/400Hz.wav", "internal_node_id": "0.0-31.0", "time_elapsed": 255959, "key_press": -1, "type": "PRE_RECALL_ALERT", "trial_index": 40}, "uniqueid": "MTK3450:3X73LLYYQ2LIC0JF8C8NDZFZ4A0NHD", "dateTime": 1520544435934}, {"current_trial": 41, "trialdata": {"rt": [4886, 6739, 14752], "recwords": ["purchase", "blouse", "cottage"], "key_times": [2824, 2962, 3101, 3348, 3421, 4243, 4540, 4715, 4886, 5721, 5998, 6184, 6323, 6437, 6573, 6739, 13681, 13786, 13951, 14090, 14202, 14438, 14592, 14752], "trial_type": "free-recall", "conditions": [18, 1200, "a", 18000], "internal_node_id": "0.0-32.0-0.0", "key_presses": [80, 85, 82, 67, 72, 65, 83, 69, 13, 66, 76, 79, 85, 83, 69, 13, 67, 79, 84, 84, 65, 71, 69, 13], "trial": 0, "time_elapsed": 315965, "type": "FREE_RECALL", "trial_index": 41}, "uniqueid": "MTK3450:3X73LLYYQ2LIC0JF8C8NDZFZ4A0NHD", "dateTime": 1520544495941}, {"current_trial": 42, "trialdata": {"rt": 2055, "trial_type": "text", "internal_node_id": "0.0-33.0", "time_elapsed": 320023, "key_press": 32, "type": "INSTRUCTIONS", "trial_index": 42}, "uniqueid": "MTK3450:3X73LLYYQ2LIC0JF8C8NDZFZ4A0NHD", "dateTime": 1520544499997}, {"current_trial": 43, "trialdata": {"rt": [3645, 6997, 9106, 11265, 13110, 16751], "trial_type": "math-distractor", "key_times": [3136, 3408, 3645, 6543, 6835, 6997, 8633, 8864, 9106, 10691, 10935, 11265, 12643, 12838, 13110, 16207, 16515, 16751], "responses": ["12", "12", "12", "19", "11", "19"], "num2": [4, 4, 1, 8, 6, 5, 8], "num3": [4, 2, 5, 7, 4, 8, 1], "conditions": [18, 1200, "a", 18000], "internal_node_id": "0.0-34.0", "key_presses": [49, 50, 13, 49, 50, 13, 49, 50, 13, 49, 57, 13, 49, 49, 13, 49, 57, 13], "trial": 1, "time_elapsed": 340027, "type": "DISTRACTOR", "trial_index": 43, "num1": [4, 8, 7, 4, 1, 6, 8]}, "uniqueid": "MTK3450:3X73LLYYQ2LIC0JF8C8NDZFZ4A0NHD", "dateTime": 1520544520001}, {"current_trial": 44, "trialdata": {"rt": -1, "trial_type": "single-stim", "stimulus": "<p id=\"stim\">10</p>", "internal_node_id": "0.0-35.0-0.0", "time_elapsed": 343031, "key_press": -1, "trial_index": 44}, "uniqueid": "MTK3450:3X73LLYYQ2LIC0JF8C8NDZFZ4A0NHD", "dateTime": 1520544523005}, {"current_trial": 45, "trialdata": {"rt": -1, "trial_type": "single-stim", "stimulus": "<p id=\"stim\">9</p>", "internal_node_id": "0.0-35.0-1.0", "time_elapsed": 344033, "key_press": -1, "trial_index": 45}, "uniqueid": "MTK3450:3X73LLYYQ2LIC0JF8C8NDZFZ4A0NHD", "dateTime": 1520544524008}, {"current_trial": 46, "trialdata": {"rt": 274, "trial_type": "single-stim", "stimulus": "<p id=\"stim\">8</p>", "internal_node_id": "0.0-35.0-2.0", "time_elapsed": 345035, "key_press": 175, "trial_index": 46}, "uniqueid": "MTK3450:3X73LLYYQ2LIC0JF8C8NDZFZ4A0NHD", "dateTime": 1520544525009}, {"current_trial": 47, "trialdata": {"rt": 108, "trial_type": "single-stim", "stimulus": "<p id=\"stim\">7</p>", "internal_node_id": "0.0-35.0-3.0", "time_elapsed": 346039, "key_press": 175, "trial_index": 47}, "uniqueid": "MTK3450:3X73LLYYQ2LIC0JF8C8NDZFZ4A0NHD", "dateTime": 1520544526013}, {"current_trial": 48, "trialdata": {"rt": -1, "trial_type": "single-stim", "stimulus": "<p id=\"stim\">6</p>", "internal_node_id": "0.0-35.0-4.0", "time_elapsed": 347040, "key_press": -1, "trial_index": 48}, "uniqueid": "MTK3450:3X73LLYYQ2LIC0JF8C8NDZFZ4A0NHD", "dateTime": 1520544527015}, {"current_trial": 49, "trialdata": {"rt": -1, "trial_type": "single-stim", "stimulus": "<p id=\"stim\">5</p>", "internal_node_id": "0.0-35.0-5.0", "time_elapsed": 348043, "key_press": -1, "trial_index": 49}, "uniqueid": "MTK3450:3X73LLYYQ2LIC0JF8C8NDZFZ4A0NHD", "dateTime": 1520544528018}, {"current_trial": 50, "trialdata": {"rt": -1, "trial_type": "single-stim", "stimulus": "<p id=\"stim\">4</p>", "internal_node_id": "0.0-35.0-6.0", "time_elapsed": 349046, "key_press": -1, "trial_index": 50}, "uniqueid": "MTK3450:3X73LLYYQ2LIC0JF8C8NDZFZ4A0NHD", "dateTime": 1520544529020}, {"current_trial": 51, "trialdata": {"rt": -1, "trial_type": "single-stim", "stimulus": "<p id=\"stim\">3</p>", "internal_node_id": "0.0-35.0-7.0", "time_elapsed": 350047, "key_press": -1, "trial_index": 51}, "uniqueid": "MTK3450:3X73LLYYQ2LIC0JF8C8NDZFZ4A0NHD", "dateTime": 1520544530021}, {"current_trial": 52, "trialdata": {"rt": -1, "trial_type": "single-stim", "stimulus": "<p id=\"stim\">2</p>", "internal_node_id": "0.0-35.0-8.0", "time_elapsed": 351049, "key_press": -1, "trial_index": 52}, "uniqueid": "MTK3450:3X73LLYYQ2LIC0JF8C8NDZFZ4A0NHD", "dateTime": 1520544531023}, {"current_trial": 53, "trialdata": {"rt": 518, "trial_type": "single-stim", "stimulus": "<p id=\"stim\">1</p>", "internal_node_id": "0.0-35.0-9.0", "time_elapsed": 352053, "key_press": 175, "trial_index": 53}, "uniqueid": "MTK3450:3X73LLYYQ2LIC0JF8C8NDZFZ4A0NHD", "dateTime": 1520544532027}, {"current_trial": 54, "trialdata": {"rt": 61, "trial_type": "single-stim", "stimulus": "<p id=\"stim\">+</p>", "internal_node_id": "0.0-36.0-0.0", "time_elapsed": 353554, "key_press": 175, "type": "FIXATION", "trial_index": 54}, "uniqueid": "MTK3450:3X73LLYYQ2LIC0JF8C8NDZFZ4A0NHD", "dateTime": 1520544533529}, {"current_trial": 55, "trialdata": {"rt": -1000, "trial_type": "single-audio", "word": "helmet", "stimulus": "/static/audio/wordpool/HELMET.wav", "conditions": [18, 1200, "a", 18000], "internal_node_id": "0.0-37.0", "trial": 1, "time_elapsed": 355675, "serialpos": 0, "key_press": -1, "wordID": 701, "type": "PRES_AUD", "trial_index": 55}, "uniqueid": "MTK3450:3X73LLYYQ2LIC0JF8C8NDZFZ4A0NHD", "dateTime": 1520544535649}, {"current_trial": 56, "trialdata": {"rt": -1000, "trial_type": "single-audio", "word": "bullet", "stimulus": "/static/audio/wordpool/BULLET.wav", "conditions": [18, 1200, "a", 18000], "internal_node_id": "0.0-38.0", "trial": 1, "time_elapsed": 357946, "serialpos": 1, "key_press": -1, "wordID": 193, "type": "PRES_AUD", "trial_index": 56}, "uniqueid": "MTK3450:3X73LLYYQ2LIC0JF8C8NDZFZ4A0NHD", "dateTime": 1520544537920}, {"current_trial": 57, "trialdata": {"rt": -1000, "trial_type": "single-audio", "word": "crayon", "stimulus": "/static/audio/wordpool/CRAYON.wav", "conditions": [18, 1200, "a", 18000], "internal_node_id": "0.0-39.0", "trial": 1, "time_elapsed": 360183, "serialpos": 2, "key_press": -1, "wordID": 400, "type": "PRES_AUD", "trial_index": 57}, "uniqueid": "MTK3450:3X73LLYYQ2LIC0JF8C8NDZFZ4A0NHD", "dateTime": 1520544540157}, {"current_trial": 58, "trialdata": {"rt": -1000, "trial_type": "single-audio", "word": "scissors", "stimulus": "/static/audio/wordpool/SCISSORS.wav", "conditions": [18, 1200, "a", 18000], "internal_node_id": "0.0-40.0", "trial": 1, "time_elapsed": 362477, "serialpos": 3, "key_press": -1, "wordID": 1249, "type": "PRES_AUD", "trial_index": 58}, "uniqueid": "MTK3450:3X73LLYYQ2LIC0JF8C8NDZFZ4A0NHD", "dateTime": 1520544542451}, {"current_trial": 59, "trialdata": {"rt": -1000, "trial_type": "single-audio", "word": "typist", "stimulus": "/static/audio/wordpool/TYPIST.wav", "conditions": [18, 1200, "a", 18000], "internal_node_id": "0.0-41.0", "trial": 1, "time_elapsed": 364520, "serialpos": 4, "key_press": -1, "wordID": 1531, "type": "PRES_AUD", "trial_index": 59}, "uniqueid": "MTK3450:3X73LLYYQ2LIC0JF8C8NDZFZ4A0NHD", "dateTime": 1520544544495}, {"current_trial": 60, "trialdata": {"rt": -1000, "trial_type": "single-audio", "word": "motel", "stimulus": "/static/audio/wordpool/MOTEL.wav", "conditions": [18, 1200, "a", 18000], "internal_node_id": "0.0-42.0", "trial": 1, "time_elapsed": 366912, "serialpos": 5, "key_press": -1, "wordID": 918, "type": "PRES_AUD", "trial_index": 60}, "uniqueid": "MTK3450:3X73LLYYQ2LIC0JF8C8NDZFZ4A0NHD", "dateTime": 1520544546886}, {"current_trial": 61, "trialdata": {"rt": -1000, "trial_type": "single-audio", "word": "kitchen", "stimulus": "/static/audio/wordpool/KITCHEN.wav", "conditions": [18, 1200, "a", 18000], "internal_node_id": "0.0-43.0", "trial": 1, "time_elapsed": 369031, "serialpos": 6, "key_press": -1, "wordID": 777, "type": "PRES_AUD", "trial_index": 61}, "uniqueid": "MTK3450:3X73LLYYQ2LIC0JF8C8NDZFZ4A0NHD", "dateTime": 1520544549005}, {"current_trial": 62, "trialdata": {"rt": -1000, "trial_type": "single-audio", "word": "seafood", "stimulus": "/static/audio/wordpool/SEAFOOD.wav", "conditions": [18, 1200, "a", 18000], "internal_node_id": "0.0-44.0", "trial": 1, "time_elapsed": 371276, "serialpos": 7, "key_press": -1, "wordID": 1259, "type": "PRES_AUD", "trial_index": 62}, "uniqueid": "MTK3450:3X73LLYYQ2LIC0JF8C8NDZFZ4A0NHD", "dateTime": 1520544551250}, {"current_trial": 63, "trialdata": {"rt": -1000, "trial_type": "single-audio", "word": "mattress", "stimulus": "/static/audio/wordpool/MATTRESS.wav", "conditions": [18, 1200, "a", 18000], "internal_node_id": "0.0-45.0", "trial": 1, "time_elapsed": 373499, "serialpos": 8, "key_press": -1, "wordID": 878, "type": "PRES_AUD", "trial_index": 63}, "uniqueid": "MTK3450:3X73LLYYQ2LIC0JF8C8NDZFZ4A0NHD", "dateTime": 1520544553473}, {"current_trial": 64, "trialdata": {"rt": -1000, "trial_type": "single-audio", "word": "sibling", "stimulus": "/static/audio/wordpool/SIBLING.wav", "conditions": [18, 1200, "a", 18000], "internal_node_id": "0.0-46.0", "trial": 1, "time_elapsed": 375768, "serialpos": 9, "key_press": -1, "wordID": 1300, "type": "PRES_AUD", "trial_index": 64}, "uniqueid": "MTK3450:3X73LLYYQ2LIC0JF8C8NDZFZ4A0NHD", "dateTime": 1520544555742}, {"current_trial": 65, "trialdata": {"rt": -1000, "trial_type": "single-audio", "word": "marker", "stimulus": "/static/audio/wordpool/MARKER.wav", "conditions": [18, 1200, "a", 18000], "internal_node_id": "0.0-47.0", "trial": 1, "time_elapsed": 378085, "serialpos": 10, "key_press": -1, "wordID": 869, "type": "PRES_AUD", "trial_index": 65}, "uniqueid": "MTK3450:3X73LLYYQ2LIC0JF8C8NDZFZ4A0NHD", "dateTime": 1520544558060}, {"current_trial": 66, "trialdata": {"rt": -1000, "trial_type": "single-audio", "word": "zebra", "stimulus": "/static/audio/wordpool/ZEBRA.wav", "conditions": [18, 1200, "a", 18000], "internal_node_id": "0.0-48.0", "trial": 1, "time_elapsed": 380199, "serialpos": 11, "key_press": -1, "wordID": 1634, "type": "PRES_AUD", "trial_index": 66}, "uniqueid": "MTK3450:3X73LLYYQ2LIC0JF8C8NDZFZ4A0NHD", "dateTime": 1520544560173}, {"current_trial": 67, "trialdata": {"rt": -1000, "trial_type": "single-audio", "word": "gavel", "stimulus": "/static/audio/wordpool/GAVEL.wav", "conditions": [18, 1200, "a", 18000], "internal_node_id": "0.0-49.0", "trial": 1, "time_elapsed": 382267, "serialpos": 12, "key_press": -1, "wordID": 626, "type": "PRES_AUD", "trial_index": 67}, "uniqueid": "MTK3450:3X73LLYYQ2LIC0JF8C8NDZFZ4A0NHD", "dateTime": 1520544562241}, {"current_trial": 68, "trialdata": {"rt": -1000, "trial_type": "single-audio", "word": "antler", "stimulus": "/static/audio/wordpool/ANTLER.wav", "conditions": [18, 1200, "a", 18000], "internal_node_id": "0.0-50.0", "trial": 1, "time_elapsed": 384490, "serialpos": 13, "key_press": -1, "wordID": 28, "type": "PRES_AUD", "trial_index": 68}, "uniqueid": "MTK3450:3X73LLYYQ2LIC0JF8C8NDZFZ4A0NHD", "dateTime": 1520544564468}, {"current_trial": 69, "trialdata": {"rt": -1000, "trial_type": "single-audio", "word": "basement", "stimulus": "/static/audio/wordpool/BASEMENT.wav", "conditions": [18, 1200, "a", 18000], "internal_node_id": "0.0-51.0", "trial": 1, "time_elapsed": 386589, "serialpos": 14, "key_press": -1, "wordID": 93, "type": "PRES_AUD", "trial_index": 69}, "uniqueid": "MTK3450:3X73LLYYQ2LIC0JF8C8NDZFZ4A0NHD", "dateTime": 1520544566563}, {"current_trial": 70, "trialdata": {"rt": -1000, "trial_type": "single-audio", "word": "valley", "stimulus": "/static/audio/wordpool/VALLEY.wav", "conditions": [18, 1200, "a", 18000], "internal_node_id": "0.0-52.0", "trial": 1, "time_elapsed": 388909, "serialpos": 15, "key_press": -1, "wordID": 1544, "type": "PRES_AUD", "trial_index": 70}, "uniqueid": "MTK3450:3X73LLYYQ2LIC0JF8C8NDZFZ4A0NHD", "dateTime": 1520544568883}, {"current_trial": 71, "trialdata": {"rt": -1000, "trial_type": "single-audio", "word": "jello", "stimulus": "/static/audio/wordpool/JELLO.wav", "conditions": [18, 1200, "a", 18000], "internal_node_id": "0.0-53.0", "trial": 1, "time_elapsed": 390984, "serialpos": 16, "key_press": -1, "wordID": 753, "type": "PRES_AUD", "trial_index": 71}, "uniqueid": "MTK3450:3X73LLYYQ2LIC0JF8C8NDZFZ4A0NHD", "dateTime": 1520544570958}, {"current_trial": 72, "trialdata": {"rt": -1000, "trial_type": "single-audio", "word": "child", "stimulus": "/static/audio/wordpool/CHILD.wav", "conditions": [18, 1200, "a", 18000], "internal_node_id": "0.0-54.0", "trial": 1, "time_elapsed": 393208, "serialpos": 17, "key_press": -1, "wordID": 298, "type": "PRES_AUD", "trial_index": 72}, "uniqueid": "MTK3450:3X73LLYYQ2LIC0JF8C8NDZFZ4A0NHD", "dateTime": 1520544573182}, {"current_trial": 73, "trialdata": {"rt": -1, "trial_type": "single-stim", "stimulus": "", "internal_node_id": "0.0-55.0-0.0", "time_elapsed": 394432, "key_press": -1, "type": "PRE_RECALL_DELAY", "trial_index": 73}, "uniqueid": "MTK3450:3X73LLYYQ2LIC0JF8C8NDZFZ4A0NHD", "dateTime": 1520544574406}, {"current_trial": 74, "trialdata": {"rt": -1000, "trial_type": "single-audio", "stimulus": "/static/audio/400Hz.wav", "internal_node_id": "0.0-56.0", "time_elapsed": 394940, "key_press": -1, "type": "PRE_RECALL_ALERT", "trial_index": 74}, "uniqueid": "MTK3450:3X73LLYYQ2LIC0JF8C8NDZFZ4A0NHD", "dateTime": 1520544574914}, {"current_trial": 75, "trialdata": {"rt": [3589, 6458, 8783, 12249, 14426, 15439, 17985, 20334, 23115, 26178, 27813, 31542, 34390, 35998, 38357, 40542, 42589, 44820], "recwords": ["helmet", "bullet", "crayon", "scissor", "typist", "motel", "kitchen", "seafood", "mattress", "sibling", "marker", "zebra", "gavel", "antler", "basement", "valley", "jello", "child"], "key_times": [2729, 2828, 2899, 3107, 3290, 3486, 3589, 4856, 4938, 5084, 5502, 5761, 5900, 6162, 6347, 6458, 7086, 7299, 7431, 7621, 7826, 7989, 8099, 8488, 8783, 10085, 10198, 10554, 10928, 11055, 11395, 11485, 11675, 11835, 11941, 12070, 12249, 13415, 13474, 13633, 13820, 13967, 14215, 14426, 14848, 14965, 15095, 15194, 15273, 15439, 16841, 17002, 17075, 17258, 17328, 17488, 17815, 17985, 19104, 19288, 19376, 19606, 19702, 20020, 20204, 20334, 21519, 21851, 22158, 22325, 22511, 22632, 22817, 22983, 23115, 24430, 24514, 24902, 25309, 25408, 25559, 25689, 25786, 25909, 26178, 26857, 27123, 27326, 27422, 27538, 27675, 27813, 30198, 30537, 30860, 31168, 31320, 31542, 32432, 32569, 33117, 33225, 33590, 33792, 34025, 34107, 34215, 34390, 34776, 34973, 35209, 35469, 35614, 35769, 35998, 37220, 37375, 37634, 37808, 37942, 38038, 38111, 38249, 38357, 39440, 39643, 39742, 39921, 40045, 40401, 40542, 41887, 41962, 42098, 42263, 42428, 42589, 44061, 44183, 44326, 44407, 44620, 44820], "trial_type": "free-recall", "conditions": [18, 1200, "a", 18000], "internal_node_id": "0.0-57.0-0.0", "key_presses": [72, 69, 76, 77, 69, 84, 13, 66, 85, 84, 8, 76, 76, 69, 84, 13, 67, 82, 65, 89, 79, 78, 69, 8, 13, 83, 73, 67, 8, 8, 67, 73, 83, 83, 79, 82, 13, 84, 89, 80, 73, 83, 84, 13, 77, 79, 84, 69, 76, 13, 75, 73, 84, 67, 72, 69, 78, 13, 83, 69, 65, 70, 79, 79, 68, 13, 77, 65, 84, 84, 82, 69, 83, 83, 13, 83, 73, 76, 8, 66, 76, 73, 78, 71, 13, 77, 65, 82, 75, 69, 82, 13, 90, 69, 66, 82, 65, 13, 70, 65, 8, 8, 71, 65, 86, 69, 76, 13, 65, 78, 84, 76, 69, 82, 13, 66, 65, 83, 69, 77, 69, 78, 84, 13, 86, 65, 76, 76, 69, 89, 13, 74, 69, 76, 76, 79, 13, 67, 72, 73, 76, 68, 13], "trial": 1, "time_elapsed": 454943, "type": "FREE_RECALL", "trial_index": 75}, "uniqueid": "MTK3450:3X73LLYYQ2LIC0JF8C8NDZFZ4A0NHD", "dateTime": 1520544634921}, {"current_trial": 76, "trialdata": {"rt": 15890, "trial_type": "text", "internal_node_id": "0.0-58.0", "time_elapsed": 472838, "key_press": 32, "type": "INSTRUCTIONS", "trial_index": 76}, "uniqueid": "MTK3450:3X73LLYYQ2LIC0JF8C8NDZFZ4A0NHD", "dateTime": 1520544652812}, {"current_trial": 77, "trialdata": {"rt": [2180, 5964, 8651, 11366, 14285, 16173, 20318, 22211], "trial_type": "math-distractor", "key_times": [1900, 2180, 5522, 5755, 5964, 8351, 8537, 8651, 10973, 11242, 11366, 12636, 12896, 13652, 14024, 14285, 15848, 16012, 16173, 19907, 20125, 20318, 21693, 21985, 22211, 23866], "responses": ["5", "18", "23", "13", "10", "11", "18", "13"], "num2": [2, 5, 9, 2, 5, 5, 3, 6, 1], "num3": [1, 5, 6, 4, 4, 2, 9, 4, 7], "conditions": [24, 1600, "a", 24000], "internal_node_id": "0.0-59.0", "key_presses": [53, 13, 49, 56, 13, 50, 51, 13, 49, 51, 13, 49, 57, 8, 48, 13, 49, 49, 13, 49, 56, 13, 49, 51, 13, 49], "trial": 2, "time_elapsed": 497844, "type": "DISTRACTOR", "trial_index": 77, "num1": [2, 8, 7, 8, 1, 4, 6, 3, 6]}, "uniqueid": "MTK3450:3X73LLYYQ2LIC0JF8C8NDZFZ4A0NHD", "dateTime": 1520544677818}, {"current_trial": 78, "trialdata": {"rt": -1, "trial_type": "single-stim", "stimulus": "<p id=\"stim\">10</p>", "internal_node_id": "0.0-60.0-0.0", "time_elapsed": 500846, "key_press": -1, "trial_index": 78}, "uniqueid": "MTK3450:3X73LLYYQ2LIC0JF8C8NDZFZ4A0NHD", "dateTime": 1520544680820}, {"current_trial": 79, "trialdata": {"rt": -1, "trial_type": "single-stim", "stimulus": "<p id=\"stim\">9</p>", "internal_node_id": "0.0-60.0-1.0", "time_elapsed": 501847, "key_press": -1, "trial_index": 79}, "uniqueid": "MTK3450:3X73LLYYQ2LIC0JF8C8NDZFZ4A0NHD", "dateTime": 1520544681822}, {"current_trial": 80, "trialdata": {"rt": -1, "trial_type": "single-stim", "stimulus": "<p id=\"stim\">8</p>", "internal_node_id": "0.0-60.0-2.0", "time_elapsed": 502850, "key_press": -1, "trial_index": 80}, "uniqueid": "MTK3450:3X73LLYYQ2LIC0JF8C8NDZFZ4A0NHD", "dateTime": 1520544682824}, {"current_trial": 81, "trialdata": {"rt": -1, "trial_type": "single-stim", "stimulus": "<p id=\"stim\">7</p>", "internal_node_id": "0.0-60.0-3.0", "time_elapsed": 503852, "key_press": -1, "trial_index": 81}, "uniqueid": "MTK3450:3X73LLYYQ2LIC0JF8C8NDZFZ4A0NHD", "dateTime": 1520544683826}, {"current_trial": 82, "trialdata": {"rt": -1, "trial_type": "single-stim", "stimulus": "<p id=\"stim\">6</p>", "internal_node_id": "0.0-60.0-4.0", "time_elapsed": 504854, "key_press": -1, "trial_index": 82}, "uniqueid": "MTK3450:3X73LLYYQ2LIC0JF8C8NDZFZ4A0NHD", "dateTime": 1520544684828}, {"current_trial": 83, "trialdata": {"rt": -1, "trial_type": "single-stim", "stimulus": "<p id=\"stim\">5</p>", "internal_node_id": "0.0-60.0-5.0", "time_elapsed": 505857, "key_press": -1, "trial_index": 83}, "uniqueid": "MTK3450:3X73LLYYQ2LIC0JF8C8NDZFZ4A0NHD", "dateTime": 1520544685831}, {"current_trial": 84, "trialdata": {"rt": -1, "trial_type": "single-stim", "stimulus": "<p id=\"stim\">4</p>", "internal_node_id": "0.0-60.0-6.0", "time_elapsed": 506859, "key_press": -1, "trial_index": 84}, "uniqueid": "MTK3450:3X73LLYYQ2LIC0JF8C8NDZFZ4A0NHD", "dateTime": 1520544686834}, {"current_trial": 85, "trialdata": {"rt": -1, "trial_type": "single-stim", "stimulus": "<p id=\"stim\">3</p>", "internal_node_id": "0.0-60.0-7.0", "time_elapsed": 507861, "key_press": -1, "trial_index": 85}, "uniqueid": "MTK3450:3X73LLYYQ2LIC0JF8C8NDZFZ4A0NHD", "dateTime": 1520544687835}, {"current_trial": 86, "trialdata": {"rt": -1, "trial_type": "single-stim", "stimulus": "<p id=\"stim\">2</p>", "internal_node_id": "0.0-60.0-8.0", "time_elapsed": 508862, "key_press": -1, "trial_index": 86}, "uniqueid": "MTK3450:3X73LLYYQ2LIC0JF8C8NDZFZ4A0NHD", "dateTime": 1520544688837}, {"current_trial": 87, "trialdata": {"rt": -1, "trial_type": "single-stim", "stimulus": "<p id=\"stim\">1</p>", "internal_node_id": "0.0-60.0-9.0", "time_elapsed": 509866, "key_press": -1, "trial_index": 87}, "uniqueid": "MTK3450:3X73LLYYQ2LIC0JF8C8NDZFZ4A0NHD", "dateTime": 1520544689840}, {"current_trial": 88, "trialdata": {"rt": -1, "trial_type": "single-stim", "stimulus": "<p id=\"stim\">+</p>", "internal_node_id": "0.0-61.0-0.0", "time_elapsed": 511367, "key_press": -1, "type": "FIXATION", "trial_index": 88}, "uniqueid": "MTK3450:3X73LLYYQ2LIC0JF8C8NDZFZ4A0NHD", "dateTime": 1520544691342}, {"current_trial": 89, "trialdata": {"rt": -1000, "trial_type": "single-audio", "word": "elbow", "stimulus": "/static/audio/wordpool/ELBOW.wav", "conditions": [24, 1600, "a", 24000], "internal_node_id": "0.0-62.0", "trial": 2, "time_elapsed": 513921, "serialpos": 0, "key_press": -1, "wordID": 519, "type": "PRES_AUD", "trial_index": 89}, "uniqueid": "MTK3450:3X73LLYYQ2LIC0JF8C8NDZFZ4A0NHD", "dateTime": 1520544693895}, {"current_trial": 90, "trialdata": {"rt": -1000, "trial_type": "single-audio", "word": "switch", "stimulus": "/static/audio/wordpool/SWITCH.wav", "conditions": [24, 1600, "a", 24000], "internal_node_id": "0.0-63.0", "trial": 2, "time_elapsed": 516448, "serialpos": 1, "key_press": -1, "wordID": 1421, "type": "PRES_AUD", "trial_index": 90}, "uniqueid": "MTK3450:3X73LLYYQ2LIC0JF8C8NDZFZ4A0NHD", "dateTime": 1520544696422}, {"current_trial": 91, "trialdata": {"rt": -1000, "trial_type": "single-audio", "word": "velvet", "stimulus": "/static/audio/wordpool/VELVET.wav", "conditions": [24, 1600, "a", 24000], "internal_node_id": "0.0-64.0", "trial": 2, "time_elapsed": 518959, "serialpos": 2, "key_press": -1, "wordID": 1554, "type": "PRES_AUD", "trial_index": 91}, "uniqueid": "MTK3450:3X73LLYYQ2LIC0JF8C8NDZFZ4A0NHD", "dateTime": 1520544698933}, {"current_trial": 92, "trialdata": {"rt": -1000, "trial_type": "single-audio", "word": "bunny", "stimulus": "/static/audio/wordpool/BUNNY.wav", "conditions": [24, 1600, "a", 24000], "internal_node_id": "0.0-65.0", "trial": 2, "time_elapsed": 521473, "serialpos": 3, "key_press": -1, "wordID": 197, "type": "PRES_AUD", "trial_index": 92}, "uniqueid": "MTK3450:3X73LLYYQ2LIC0JF8C8NDZFZ4A0NHD", "dateTime": 1520544701447}, {"current_trial": 93, "trialdata": {"rt": -1000, "trial_type": "single-audio", "word": "asia", "stimulus": "/static/audio/wordpool/ASIA.wav", "conditions": [24, 1600, "a", 24000], "internal_node_id": "0.0-66.0", "trial": 2, "time_elapsed": 524173, "serialpos": 4, "key_press": -1, "wordID": 45, "type": "PRES_AUD", "trial_index": 93}, "uniqueid": "MTK3450:3X73LLYYQ2LIC0JF8C8NDZFZ4A0NHD", "dateTime": 1520544704148}, {"current_trial": 94, "trialdata": {"rt": -1000, "trial_type": "single-audio", "word": "europe", "stimulus": "/static/audio/wordpool/EUROPE.wav", "conditions": [24, 1600, "a", 24000], "internal_node_id": "0.0-67.0", "trial": 2, "time_elapsed": 526872, "serialpos": 5, "key_press": -1, "wordID": 540, "type": "PRES_AUD", "trial_index": 94}, "uniqueid": "MTK3450:3X73LLYYQ2LIC0JF8C8NDZFZ4A0NHD", "dateTime": 1520544706846}, {"current_trial": 95, "trialdata": {"rt": -1000, "trial_type": "single-audio", "word": "cod", "stimulus": "/static/audio/wordpool/COD.wav", "conditions": [24, 1600, "a", 24000], "internal_node_id": "0.0-68.0", "trial": 2, "time_elapsed": 529633, "serialpos": 6, "key_press": -1, "wordID": 339, "type": "PRES_AUD", "trial_index": 95}, "uniqueid": "MTK3450:3X73LLYYQ2LIC0JF8C8NDZFZ4A0NHD", "dateTime": 1520544709607}, {"current_trial": 96, "trialdata": {"rt": -1000, "trial_type": "single-audio", "word": "knife", "stimulus": "/static/audio/wordpool/KNIFE.wav", "conditions": [24, 1600, "a", 24000], "internal_node_id": "0.0-69.0", "trial": 2, "time_elapsed": 532247, "serialpos": 7, "key_press": -1, "wordID": 784, "type": "PRES_AUD", "trial_index": 96}, "uniqueid": "MTK3450:3X73LLYYQ2LIC0JF8C8NDZFZ4A0NHD", "dateTime": 1520544712222}, {"current_trial": 97, "trialdata": {"rt": 2558.6666666666815, "trial_type": "single-audio", "word": "powder", "stimulus": "/static/audio/wordpool/POWDER.wav", "conditions": [24, 1600, "a", 24000], "internal_node_id": "0.0-70.0", "trial": 2, "time_elapsed": 534972, "serialpos": 8, "key_press": 175, "wordID": 1116, "type": "PRES_AUD", "trial_index": 97}, "uniqueid": "MTK3450:3X73LLYYQ2LIC0JF8C8NDZFZ4A0NHD", "dateTime": 1520544714946}, {"current_trial": 98, "trialdata": {"rt": -1000, "trial_type": "single-audio", "word": "pepper", "stimulus": "/static/audio/wordpool/PEPPER.wav", "conditions": [24, 1600, "a", 24000], "internal_node_id": "0.0-71.0", "trial": 2, "time_elapsed": 537559, "serialpos": 9, "key_press": -1, "wordID": 1046, "type": "PRES_AUD", "trial_index": 98}, "uniqueid": "MTK3450:3X73LLYYQ2LIC0JF8C8NDZFZ4A0NHD", "dateTime": 1520544717533}, {"current_trial": 99, "trialdata": {"rt": -1000, "trial_type": "single-audio", "word": "globe", "stimulus": "/static/audio/wordpool/GLOBE.wav", "conditions": [24, 1600, "a", 24000], "internal_node_id": "0.0-72.0", "trial": 2, "time_elapsed": 540233, "serialpos": 10, "key_press": -1, "wordID": 640, "type": "PRES_AUD", "trial_index": 99}, "uniqueid": "MTK3450:3X73LLYYQ2LIC0JF8C8NDZFZ4A0NHD", "dateTime": 1520544720207}, {"current_trial": 100, "trialdata": {"rt": -1000, "trial_type": "single-audio", "word": "rabbit", "stimulus": "/static/audio/wordpool/RABBIT.wav", "conditions": [24, 1600, "a", 24000], "internal_node_id": "0.0-73.0", "trial": 2, "time_elapsed": 542931, "serialpos": 11, "key_press": -1, "wordID": 1151, "type": "PRES_AUD", "trial_index": 100}, "uniqueid": "MTK3450:3X73LLYYQ2LIC0JF8C8NDZFZ4A0NHD", "dateTime": 1520544722906}, {"current_trial": 101, "trialdata": {"rt": -1000, "trial_type": "single-audio", "word": "pastry", "stimulus": "/static/audio/wordpool/PASTRY.wav", "conditions": [24, 1600, "a", 24000], "internal_node_id": "0.0-74.0", "trial": 2, "time_elapsed": 545454, "serialpos": 12, "key_press": -1, "wordID": 1021, "type": "PRES_AUD", "trial_index": 101}, "uniqueid": "MTK3450:3X73LLYYQ2LIC0JF8C8NDZFZ4A0NHD", "dateTime": 1520544725428}, {"current_trial": 102, "trialdata": {"rt": -1000, "trial_type": "single-audio", "word": "treat", "stimulus": "/static/audio/wordpool/TREAT.wav", "conditions": [24, 1600, "a", 24000], "internal_node_id": "0.0-75.0", "trial": 2, "time_elapsed": 547932, "serialpos": 13, "key_press": -1, "wordID": 1500, "type": "PRES_AUD", "trial_index": 102}, "uniqueid": "MTK3450:3X73LLYYQ2LIC0JF8C8NDZFZ4A0NHD", "dateTime": 1520544727906}, {"current_trial": 103, "trialdata": {"rt": -1000, "trial_type": "single-audio", "word": "carriage", "stimulus": "/static/audio/wordpool/CARRIAGE.wav", "conditions": [24, 1600, "a", 24000], "internal_node_id": "0.0-76.0", "trial": 2, "time_elapsed": 550567, "serialpos": 14, "key_press": -1, "wordID": 247, "type": "PRES_AUD", "trial_index": 103}, "uniqueid": "MTK3450:3X73LLYYQ2LIC0JF8C8NDZFZ4A0NHD", "dateTime": 1520544730542}, {"current_trial": 104, "trialdata": {"rt": -1000, "trial_type": "single-audio", "word": "rust", "stimulus": "/static/audio/wordpool/RUST.wav", "conditions": [24, 1600, "a", 24000], "internal_node_id": "0.0-77.0", "trial": 2, "time_elapsed": 553067, "serialpos": 15, "key_press": -1, "wordID": 1218, "type": "PRES_AUD", "trial_index": 104}, "uniqueid": "MTK3450:3X73LLYYQ2LIC0JF8C8NDZFZ4A0NHD", "dateTime": 1520544733042}, {"current_trial": 105, "trialdata": {"rt": -1000, "trial_type": "single-audio", "word": "lettuce", "stimulus": "/static/audio/wordpool/LETTUCE.wav", "conditions": [24, 1600, "a", 24000], "internal_node_id": "0.0-78.0", "trial": 2, "time_elapsed": 555626, "serialpos": 16, "key_press": -1, "wordID": 813, "type": "PRES_AUD", "trial_index": 105}, "uniqueid": "MTK3450:3X73LLYYQ2LIC0JF8C8NDZFZ4A0NHD", "dateTime": 1520544735601}, {"current_trial": 106, "trialdata": {"rt": -1000, "trial_type": "single-audio", "word": "onion", "stimulus": "/static/audio/wordpool/ONION.wav", "conditions": [24, 1600, "a", 24000], "internal_node_id": "0.0-79.0", "trial": 2, "time_elapsed": 558145, "serialpos": 17, "key_press": -1, "wordID": 976, "type": "PRES_AUD", "trial_index": 106}, "uniqueid": "MTK3450:3X73LLYYQ2LIC0JF8C8NDZFZ4A0NHD", "dateTime": 1520544738119}, {"current_trial": 107, "trialdata": {"rt": -1000, "trial_type": "single-audio", "word": "item", "stimulus": "/static/audio/wordpool/ITEM.wav", "conditions": [24, 1600, "a", 24000], "internal_node_id": "0.0-80.0", "trial": 2, "time_elapsed": 560789, "serialpos": 18, "key_press": -1, "wordID": 745, "type": "PRES_AUD", "trial_index": 107}, "uniqueid": "MTK3450:3X73LLYYQ2LIC0JF8C8NDZFZ4A0NHD", "dateTime": 1520544740763}, {"current_trial": 108, "trialdata": {"rt": -1000, "trial_type": "single-audio", "word": "sparrow", "stimulus": "/static/audio/wordpool/SPARROW.wav", "conditions": [24, 1600, "a", 24000], "internal_node_id": "0.0-81.0", "trial": 2, "time_elapsed": 563425, "serialpos": 19, "key_press": -1, "wordID": 1346, "type": "PRES_AUD", "trial_index": 108}, "uniqueid": "MTK3450:3X73LLYYQ2LIC0JF8C8NDZFZ4A0NHD", "dateTime": 1520544743399}, {"current_trial": 109, "trialdata": {"rt": -1000, "trial_type": "single-audio", "word": "lover", "stimulus": "/static/audio/wordpool/LOVER.wav", "conditions": [24, 1600, "a", 24000], "internal_node_id": "0.0-82.0", "trial": 2, "time_elapsed": 565850, "serialpos": 20, "key_press": -1, "wordID": 845, "type": "PRES_AUD", "trial_index": 109}, "uniqueid": "MTK3450:3X73LLYYQ2LIC0JF8C8NDZFZ4A0NHD", "dateTime": 1520544745824}, {"current_trial": 110, "trialdata": {"rt": -1000, "trial_type": "single-audio", "word": "radish", "stimulus": "/static/audio/wordpool/RADISH.wav", "conditions": [24, 1600, "a", 24000], "internal_node_id": "0.0-83.0", "trial": 2, "time_elapsed": 568587, "serialpos": 21, "key_press": -1, "wordID": 1157, "type": "PRES_AUD", "trial_index": 110}, "uniqueid": "MTK3450:3X73LLYYQ2LIC0JF8C8NDZFZ4A0NHD", "dateTime": 1520544748562}, {"current_trial": 111, "trialdata": {"rt": -1000, "trial_type": "single-audio", "word": "sandwich", "stimulus": "/static/audio/wordpool/SANDWICH.wav", "conditions": [24, 1600, "a", 24000], "internal_node_id": "0.0-84.0", "trial": 2, "time_elapsed": 571269, "serialpos": 22, "key_press": -1, "wordID": 1231, "type": "PRES_AUD", "trial_index": 111}, "uniqueid": "MTK3450:3X73LLYYQ2LIC0JF8C8NDZFZ4A0NHD", "dateTime": 1520544751243}, {"current_trial": 112, "trialdata": {"rt": -1000, "trial_type": "single-audio", "word": "briefcase", "stimulus": "/static/audio/wordpool/BRIEFCASE.wav", "conditions": [24, 1600, "a", 24000], "internal_node_id": "0.0-85.0", "trial": 2, "time_elapsed": 574053, "serialpos": 23, "key_press": -1, "wordID": 174, "type": "PRES_AUD", "trial_index": 112}, "uniqueid": "MTK3450:3X73LLYYQ2LIC0JF8C8NDZFZ4A0NHD", "dateTime": 1520544754027}, {"current_trial": 113, "trialdata": {"rt": -1, "trial_type": "single-stim", "stimulus": "", "internal_node_id": "0.0-86.0-0.0", "time_elapsed": 575343, "key_press": -1, "type": "PRE_RECALL_DELAY", "trial_index": 113}, "uniqueid": "MTK3450:3X73LLYYQ2LIC0JF8C8NDZFZ4A0NHD", "dateTime": 1520544755317}, {"current_trial": 114, "trialdata": {"rt": -1000, "trial_type": "single-audio", "stimulus": "/static/audio/400Hz.wav", "internal_node_id": "0.0-87.0", "time_elapsed": 575847, "key_press": -1, "type": "PRE_RECALL_ALERT", "trial_index": 114}, "uniqueid": "MTK3450:3X73LLYYQ2LIC0JF8C8NDZFZ4A0NHD", "dateTime": 1520544755821}, {"current_trial": 115, "trialdata": {"rt": [3488, 5691, 7980, 10155, 12499, 15954, 16731, 18444, 21385, 23189, 26039, 28110, 30246, 32179, 34672, 36182, 38893, 40383, 42524, 45138, 46970, 49444, 52490, 57063], "recwords": ["elbow", "switch", "velvet", "bunny", "asia", "europe", "cod", "knife", "powder", "pepper", "glove", "rabbit", "pastry", "treat", "carriage", "rust", "lettuce", "onion", "item", "sparrow", "lover", "radish", "sandwich", "briefcase"], "key_times": [2107, 2370, 2685, 2884, 3278, 3488, 4224, 4456, 4697, 5068, 5269, 5378, 5691, 6971, 7116, 7203, 7408, 7542, 7779, 7980, 9168, 9314, 9554, 9685, 9952, 10155, 11598, 11868, 12074, 12257, 12499, 13052, 13290, 13464, 13893, 14089, 14395, 14917, 15502, 15629, 15775, 15954, 16184, 16322, 16622, 16731, 17582, 17825, 17980, 18180, 18325, 18444, 20198, 20368, 20624, 20890, 21080, 21208, 21385, 22358, 22505, 22732, 22903, 22957, 23065, 23189, 24482, 24563, 24740, 24939, 25085, 25526, 25648, 25764, 25867, 26039, 27164, 27283, 27620, 27756, 27866, 27987, 28110, 29035, 29122, 29306, 29549, 29704, 30049, 30246, 31326, 31525, 31649, 31759, 31966, 32179, 33439, 33577, 33821, 33949, 34046, 34145, 34345, 34467, 34672, 35591, 35678, 35875, 36056, 36182, 37326, 37426, 37816, 38002, 38222, 38358, 38466, 38580, 38754, 38893, 39501, 39677, 39808, 39988, 40185, 40383, 41767, 41957, 42068, 42291, 42524, 44066, 44355, 44490, 44671, 44811, 44918, 45005, 45138, 46189, 46357, 46491, 46625, 46770, 46970, 48458, 48559, 48922, 49020, 49125, 49259, 49444, 51059, 51208, 51311, 51467, 51919, 52021, 52178, 52315, 52490, 53206, 53471, 53787, 53945, 54519, 54632, 54785, 55021, 55338, 55434, 55643, 55696, 55897, 56386, 56555, 56743, 56905, 57063], "trial_type": "free-recall", "conditions": [24, 1600, "a", 24000], "internal_node_id": "0.0-88.0-0.0", "key_presses": [69, 76, 66, 79, 87, 13, 83, 87, 73, 84, 67, 72, 13, 86, 69, 76, 86, 69, 84, 13, 66, 85, 78, 78, 89, 13, 65, 83, 73, 65, 13, 69, 85, 80, 8, 82, 80, 8, 79, 80, 69, 13, 67, 79, 68, 13, 75, 78, 73, 70, 69, 13, 80, 79, 87, 68, 69, 82, 13, 80, 69, 80, 80, 69, 82, 13, 71, 76, 79, 86, 69, 8, 8, 86, 69, 13, 82, 65, 66, 66, 73, 84, 13, 80, 65, 83, 84, 82, 89, 13, 84, 82, 69, 65, 84, 13, 67, 65, 82, 82, 73, 65, 71, 69, 13, 82, 85, 83, 84, 13, 76, 87, 8, 69, 84, 84, 85, 67, 69, 13, 79, 78, 73, 79, 78, 13, 73, 84, 69, 77, 13, 83, 80, 65, 82, 82, 79, 87, 13, 76, 79, 86, 69, 82, 13, 82, 65, 68, 73, 83, 72, 13, 83, 65, 78, 68, 87, 73, 67, 72, 13, 66, 82, 69, 73, 8, 8, 69, 73, 8, 8, 73, 69, 70, 67, 65, 83, 69, 13], "trial": 2, "time_elapsed": 635850, "type": "FREE_RECALL", "trial_index": 115}, "uniqueid": "MTK3450:3X73LLYYQ2LIC0JF8C8NDZFZ4A0NHD", "dateTime": 1520544815828}, {"current_trial": 116, "trialdata": {"rt": 2723, "trial_type": "text", "internal_node_id": "0.0-89.0", "time_elapsed": 640578, "key_press": 32, "type": "INSTRUCTIONS", "trial_index": 116}, "uniqueid": "MTK3450:3X73LLYYQ2LIC0JF8C8NDZFZ4A0NHD", "dateTime": 1520544820553}, {"current_trial": 117, "trialdata": {"rt": [4946, 6709, 10760], "trial_type": "math-distractor", "key_times": [4141, 4760, 4946, 6238, 6510, 6709, 10014, 10566, 10760], "responses": ["16", "17", "16"], "num2": [6, 3, 5, 6], "num3": [7, 7, 8, 2], "conditions": [24, 1600, "a", 12000], "internal_node_id": "0.0-90.0", "key_presses": [49, 54, 13, 49, 55, 13, 49, 54, 13], "trial": 3, "time_elapsed": 654583, "type": "DISTRACTOR", "trial_index": 117, "num1": [8, 7, 9, 3]}, "uniqueid": "MTK3450:3X73LLYYQ2LIC0JF8C8NDZFZ4A0NHD", "dateTime": 1520544834557}, {"current_trial": 118, "trialdata": {"rt": -1, "trial_type": "single-stim", "stimulus": "<p id=\"stim\">10</p>", "internal_node_id": "0.0-91.0-0.0", "time_elapsed": 657586, "key_press": -1, "trial_index": 118}, "uniqueid": "MTK3450:3X73LLYYQ2LIC0JF8C8NDZFZ4A0NHD", "dateTime": 1520544837560}, {"current_trial": 119, "trialdata": {"rt": -1, "trial_type": "single-stim", "stimulus": "<p id=\"stim\">9</p>", "internal_node_id": "0.0-91.0-1.0", "time_elapsed": 658587, "key_press": -1, "trial_index": 119}, "uniqueid": "MTK3450:3X73LLYYQ2LIC0JF8C8NDZFZ4A0NHD", "dateTime": 1520544838562}, {"current_trial": 120, "trialdata": {"rt": -1, "trial_type": "single-stim", "stimulus": "<p id=\"stim\">8</p>", "internal_node_id": "0.0-91.0-2.0", "time_elapsed": 659590, "key_press": -1, "trial_index": 120}, "uniqueid": "MTK3450:3X73LLYYQ2LIC0JF8C8NDZFZ4A0NHD", "dateTime": 1520544839564}, {"current_trial": 121, "trialdata": {"rt": -1, "trial_type": "single-stim", "stimulus": "<p id=\"stim\">7</p>", "internal_node_id": "0.0-91.0-3.0", "time_elapsed": 660593, "key_press": -1, "trial_index": 121}, "uniqueid": "MTK3450:3X73LLYYQ2LIC0JF8C8NDZFZ4A0NHD", "dateTime": 1520544840567}, {"current_trial": 122, "trialdata": {"rt": -1, "trial_type": "single-stim", "stimulus": "<p id=\"stim\">6</p>", "internal_node_id": "0.0-91.0-4.0", "time_elapsed": 661594, "key_press": -1, "trial_index": 122}, "uniqueid": "MTK3450:3X73LLYYQ2LIC0JF8C8NDZFZ4A0NHD", "dateTime": 1520544841569}, {"current_trial": 123, "trialdata": {"rt": -1, "trial_type": "single-stim", "stimulus": "<p id=\"stim\">5</p>", "internal_node_id": "0.0-91.0-5.0", "time_elapsed": 662596, "key_press": -1, "trial_index": 123}, "uniqueid": "MTK3450:3X73LLYYQ2LIC0JF8C8NDZFZ4A0NHD", "dateTime": 1520544842570}, {"current_trial": 124, "trialdata": {"rt": -1, "trial_type": "single-stim", "stimulus": "<p id=\"stim\">4</p>", "internal_node_id": "0.0-91.0-6.0", "time_elapsed": 663598, "key_press": -1, "trial_index": 124}, "uniqueid": "MTK3450:3X73LLYYQ2LIC0JF8C8NDZFZ4A0NHD", "dateTime": 1520544843572}, {"current_trial": 125, "trialdata": {"rt": -1, "trial_type": "single-stim", "stimulus": "<p id=\"stim\">3</p>", "internal_node_id": "0.0-91.0-7.0", "time_elapsed": 664602, "key_press": -1, "trial_index": 125}, "uniqueid": "MTK3450:3X73LLYYQ2LIC0JF8C8NDZFZ4A0NHD", "dateTime": 1520544844576}, {"current_trial": 126, "trialdata": {"rt": 471, "trial_type": "single-stim", "stimulus": "<p id=\"stim\">2</p>", "internal_node_id": "0.0-91.0-8.0", "time_elapsed": 665605, "key_press": 175, "trial_index": 126}, "uniqueid": "MTK3450:3X73LLYYQ2LIC0JF8C8NDZFZ4A0NHD", "dateTime": 1520544845579}, {"current_trial": 127, "trialdata": {"rt": -1, "trial_type": "single-stim", "stimulus": "<p id=\"stim\">1</p>", "internal_node_id": "0.0-91.0-9.0", "time_elapsed": 666606, "key_press": -1, "trial_index": 127}, "uniqueid": "MTK3450:3X73LLYYQ2LIC0JF8C8NDZFZ4A0NHD", "dateTime": 1520544846580}, {"current_trial": 128, "trialdata": {"rt": -1, "trial_type": "single-stim", "stimulus": "<p id=\"stim\">+</p>", "internal_node_id": "0.0-92.0-0.0", "time_elapsed": 668107, "key_press": -1, "type": "FIXATION", "trial_index": 128}, "uniqueid": "MTK3450:3X73LLYYQ2LIC0JF8C8NDZFZ4A0NHD", "dateTime": 1520544848081}, {"current_trial": 129, "trialdata": {"rt": -1000, "trial_type": "single-audio", "word": "oyster", "stimulus": "/static/audio/wordpool/OYSTER.wav", "conditions": [24, 1600, "a", 12000], "internal_node_id": "0.0-93.0", "trial": 3, "time_elapsed": 670835, "serialpos": 0, "key_press": -1, "wordID": 994, "type": "PRES_AUD", "trial_index": 129}, "uniqueid": "MTK3450:3X73LLYYQ2LIC0JF8C8NDZFZ4A0NHD", "dateTime": 1520544850809}, {"current_trial": 130, "trialdata": {"rt": -1000, "trial_type": "single-audio", "word": "crab", "stimulus": "/static/audio/wordpool/CRAB.wav", "conditions": [24, 1600, "a", 12000], "internal_node_id": "0.0-94.0", "trial": 3, "time_elapsed": 673335, "serialpos": 1, "key_press": -1, "wordID": 396, "type": "PRES_AUD", "trial_index": 130}, "uniqueid": "MTK3450:3X73LLYYQ2LIC0JF8C8NDZFZ4A0NHD", "dateTime": 1520544853309}, {"current_trial": 131, "trialdata": {"rt": -1000, "trial_type": "single-audio", "word": "freckle", "stimulus": "/static/audio/wordpool/FRECKLE.wav", "conditions": [24, 1600, "a", 12000], "internal_node_id": "0.0-95.0", "trial": 3, "time_elapsed": 676066, "serialpos": 2, "key_press": -1, "wordID": 601, "type": "PRES_AUD", "trial_index": 131}, "uniqueid": "MTK3450:3X73LLYYQ2LIC0JF8C8NDZFZ4A0NHD", "dateTime": 1520544856040}, {"current_trial": 132, "trialdata": {"rt": -1000, "trial_type": "single-audio", "word": "baby", "stimulus": "/static/audio/wordpool/BABY.wav", "conditions": [24, 1600, "a", 12000], "internal_node_id": "0.0-96.0", "trial": 3, "time_elapsed": 678652, "serialpos": 3, "key_press": -1, "wordID": 63, "type": "PRES_AUD", "trial_index": 132}, "uniqueid": "MTK3450:3X73LLYYQ2LIC0JF8C8NDZFZ4A0NHD", "dateTime": 1520544858627}, {"current_trial": 133, "trialdata": {"rt": -1000, "trial_type": "single-audio", "word": "proton", "stimulus": "/static/audio/wordpool/PROTON.wav", "conditions": [24, 1600, "a", 12000], "internal_node_id": "0.0-97.0", "trial": 3, "time_elapsed": 681112, "serialpos": 4, "key_press": -1, "wordID": 1131, "type": "PRES_AUD", "trial_index": 133}, "uniqueid": "MTK3450:3X73LLYYQ2LIC0JF8C8NDZFZ4A0NHD", "dateTime": 1520544861087}, {"current_trial": 134, "trialdata": {"rt": -1000, "trial_type": "single-audio", "word": "badge", "stimulus": "/static/audio/wordpool/BADGE.wav", "conditions": [24, 1600, "a", 12000], "internal_node_id": "0.0-98.0", "trial": 3, "time_elapsed": 683636, "serialpos": 5, "key_press": -1, "wordID": 67, "type": "PRES_AUD", "trial_index": 134}, "uniqueid": "MTK3450:3X73LLYYQ2LIC0JF8C8NDZFZ4A0NHD", "dateTime": 1520544863610}, {"current_trial": 135, "trialdata": {"rt": -1000, "trial_type": "single-audio", "word": "poison", "stimulus": "/static/audio/wordpool/POISON.wav", "conditions": [24, 1600, "a", 12000], "internal_node_id": "0.0-99.0", "trial": 3, "time_elapsed": 686406, "serialpos": 6, "key_press": -1, "wordID": 1095, "type": "PRES_AUD", "trial_index": 135}, "uniqueid": "MTK3450:3X73LLYYQ2LIC0JF8C8NDZFZ4A0NHD", "dateTime": 1520544866380}, {"current_trial": 136, "trialdata": {"rt": -1000, "trial_type": "single-audio", "word": "saddle", "stimulus": "/static/audio/wordpool/SADDLE.wav", "conditions": [24, 1600, "a", 12000], "internal_node_id": "0.0-100.0", "trial": 3, "time_elapsed": 689084, "serialpos": 7, "key_press": -1, "wordID": 1220, "type": "PRES_AUD", "trial_index": 136}, "uniqueid": "MTK3450:3X73LLYYQ2LIC0JF8C8NDZFZ4A0NHD", "dateTime": 1520544869059}, {"current_trial": 137, "trialdata": {"rt": -1000, "trial_type": "single-audio", "word": "nomad", "stimulus": "/static/audio/wordpool/NOMAD.wav", "conditions": [24, 1600, "a", 12000], "internal_node_id": "0.0-101.0", "trial": 3, "time_elapsed": 691869, "serialpos": 8, "key_press": -1, "wordID": 954, "type": "PRES_AUD", "trial_index": 137}, "uniqueid": "MTK3450:3X73LLYYQ2LIC0JF8C8NDZFZ4A0NHD", "dateTime": 1520544871844}, {"current_trial": 138, "trialdata": {"rt": -1000, "trial_type": "single-audio", "word": "crib", "stimulus": "/static/audio/wordpool/CRIB.wav", "conditions": [24, 1600, "a", 12000], "internal_node_id": "0.0-102.0", "trial": 3, "time_elapsed": 694651, "serialpos": 9, "key_press": -1, "wordID": 406, "type": "PRES_AUD", "trial_index": 138}, "uniqueid": "MTK3450:3X73LLYYQ2LIC0JF8C8NDZFZ4A0NHD", "dateTime": 1520544874625}, {"current_trial": 139, "trialdata": {"rt": -1000, "trial_type": "single-audio", "word": "perfume", "stimulus": "/static/audio/wordpool/PERFUME.wav", "conditions": [24, 1600, "a", 12000], "internal_node_id": "0.0-103.0", "trial": 3, "time_elapsed": 697234, "serialpos": 10, "key_press": -1, "wordID": 1048, "type": "PRES_AUD", "trial_index": 139}, "uniqueid": "MTK3450:3X73LLYYQ2LIC0JF8C8NDZFZ4A0NHD", "dateTime": 1520544877208}, {"current_trial": 140, "trialdata": {"rt": -1000, "trial_type": "single-audio", "word": "college", "stimulus": "/static/audio/wordpool/COLLEGE.wav", "conditions": [24, 1600, "a", 12000], "internal_node_id": "0.0-104.0", "trial": 3, "time_elapsed": 699867, "serialpos": 11, "key_press": -1, "wordID": 345, "type": "PRES_AUD", "trial_index": 140}, "uniqueid": "MTK3450:3X73LLYYQ2LIC0JF8C8NDZFZ4A0NHD", "dateTime": 1520544879841}, {"current_trial": 141, "trialdata": {"rt": -1000, "trial_type": "single-audio", "word": "bug", "stimulus": "/static/audio/wordpool/BUG.wav", "conditions": [24, 1600, "a", 12000], "internal_node_id": "0.0-105.0", "trial": 3, "time_elapsed": 702415, "serialpos": 12, "key_press": -1, "wordID": 186, "type": "PRES_AUD", "trial_index": 141}, "uniqueid": "MTK3450:3X73LLYYQ2LIC0JF8C8NDZFZ4A0NHD", "dateTime": 1520544882389}, {"current_trial": 142, "trialdata": {"rt": -1000, "trial_type": "single-audio", "word": "blade", "stimulus": "/static/audio/wordpool/BLADE.wav", "conditions": [24, 1600, "a", 12000], "internal_node_id": "0.0-106.0", "trial": 3, "time_elapsed": 704931, "serialpos": 13, "key_press": -1, "wordID": 133, "type": "PRES_AUD", "trial_index": 142}, "uniqueid": "MTK3450:3X73LLYYQ2LIC0JF8C8NDZFZ4A0NHD", "dateTime": 1520544884905}, {"current_trial": 143, "trialdata": {"rt": -1000, "trial_type": "single-audio", "word": "pudding", "stimulus": "/static/audio/wordpool/PUDDING.wav", "conditions": [24, 1600, "a", 12000], "internal_node_id": "0.0-107.0", "trial": 3, "time_elapsed": 707598, "serialpos": 14, "key_press": -1, "wordID": 1138, "type": "PRES_AUD", "trial_index": 143}, "uniqueid": "MTK3450:3X73LLYYQ2LIC0JF8C8NDZFZ4A0NHD", "dateTime": 1520544887572}, {"current_trial": 144, "trialdata": {"rt": -1000, "trial_type": "single-audio", "word": "rifle", "stimulus": "/static/audio/wordpool/RIFLE.wav", "conditions": [24, 1600, "a", 12000], "internal_node_id": "0.0-108.0", "trial": 3, "time_elapsed": 710346, "serialpos": 15, "key_press": -1, "wordID": 1191, "type": "PRES_AUD", "trial_index": 144}, "uniqueid": "MTK3450:3X73LLYYQ2LIC0JF8C8NDZFZ4A0NHD", "dateTime": 1520544890321}, {"current_trial": 145, "trialdata": {"rt": -1000, "trial_type": "single-audio", "word": "fireplace", "stimulus": "/static/audio/wordpool/FIREPLACE.wav", "conditions": [24, 1600, "a", 12000], "internal_node_id": "0.0-109.0", "trial": 3, "time_elapsed": 712886, "serialpos": 16, "key_press": -1, "wordID": 569, "type": "PRES_AUD", "trial_index": 145}, "uniqueid": "MTK3450:3X73LLYYQ2LIC0JF8C8NDZFZ4A0NHD", "dateTime": 1520544892860}, {"current_trial": 146, "trialdata": {"rt": -1000, "trial_type": "single-audio", "word": "dragon", "stimulus": "/static/audio/wordpool/DRAGON.wav", "conditions": [24, 1600, "a", 12000], "internal_node_id": "0.0-110.0", "trial": 3, "time_elapsed": 715580, "serialpos": 17, "key_press": -1, "wordID": 491, "type": "PRES_AUD", "trial_index": 146}, "uniqueid": "MTK3450:3X73LLYYQ2LIC0JF8C8NDZFZ4A0NHD", "dateTime": 1520544895554}, {"current_trial": 147, "trialdata": {"rt": -1000, "trial_type": "single-audio", "word": "missile", "stimulus": "/static/audio/wordpool/MISSILE.wav", "conditions": [24, 1600, "a", 12000], "internal_node_id": "0.0-111.0", "trial": 3, "time_elapsed": 718180, "serialpos": 18, "key_press": -1, "wordID": 899, "type": "PRES_AUD", "trial_index": 147}, "uniqueid": "MTK3450:3X73LLYYQ2LIC0JF8C8NDZFZ4A0NHD", "dateTime": 1520544898154}, {"current_trial": 148, "trialdata": {"rt": -1000, "trial_type": "single-audio", "word": "rocket", "stimulus": "/static/audio/wordpool/ROCKET.wav", "conditions": [24, 1600, "a", 12000], "internal_node_id": "0.0-112.0", "trial": 3, "time_elapsed": 720761, "serialpos": 19, "key_press": -1, "wordID": 1201, "type": "PRES_AUD", "trial_index": 148}, "uniqueid": "MTK3450:3X73LLYYQ2LIC0JF8C8NDZFZ4A0NHD", "dateTime": 1520544900735}, {"current_trial": 149, "trialdata": {"rt": -1000, "trial_type": "single-audio", "word": "brick", "stimulus": "/static/audio/wordpool/BRICK.wav", "conditions": [24, 1600, "a", 12000], "internal_node_id": "0.0-113.0", "trial": 3, "time_elapsed": 723209, "serialpos": 20, "key_press": -1, "wordID": 171, "type": "PRES_AUD", "trial_index": 149}, "uniqueid": "MTK3450:3X73LLYYQ2LIC0JF8C8NDZFZ4A0NHD", "dateTime": 1520544903183}, {"current_trial": 150, "trialdata": {"rt": -1000, "trial_type": "single-audio", "word": "barley", "stimulus": "/static/audio/wordpool/BARLEY.wav", "conditions": [24, 1600, "a", 12000], "internal_node_id": "0.0-114.0", "trial": 3, "time_elapsed": 725699, "serialpos": 21, "key_press": -1, "wordID": 87, "type": "PRES_AUD", "trial_index": 150}, "uniqueid": "MTK3450:3X73LLYYQ2LIC0JF8C8NDZFZ4A0NHD", "dateTime": 1520544905673}, {"current_trial": 151, "trialdata": {"rt": -1000, "trial_type": "single-audio", "word": "virus", "stimulus": "/static/audio/wordpool/VIRUS.wav", "conditions": [24, 1600, "a", 12000], "internal_node_id": "0.0-115.0", "trial": 3, "time_elapsed": 728177, "serialpos": 22, "key_press": -1, "wordID": 1571, "type": "PRES_AUD", "trial_index": 151}, "uniqueid": "MTK3450:3X73LLYYQ2LIC0JF8C8NDZFZ4A0NHD", "dateTime": 1520544908153}, {"current_trial": 152, "trialdata": {"rt": -1000, "trial_type": "single-audio", "word": "truck", "stimulus": "/static/audio/wordpool/TRUCK.wav", "conditions": [24, 1600, "a", 12000], "internal_node_id": "0.0-116.0", "trial": 3, "time_elapsed": 730583, "serialpos": 23, "key_press": -1, "wordID": 1511, "type": "PRES_AUD", "trial_index": 152}, "uniqueid": "MTK3450:3X73LLYYQ2LIC0JF8C8NDZFZ4A0NHD", "dateTime": 1520544910558}, {"current_trial": 153, "trialdata": {"rt": -1, "trial_type": "single-stim", "stimulus": "", "internal_node_id": "0.0-117.0-0.0", "time_elapsed": 731869, "key_press": -1, "type": "PRE_RECALL_DELAY", "trial_index": 153}, "uniqueid": "MTK3450:3X73LLYYQ2LIC0JF8C8NDZFZ4A0NHD", "dateTime": 1520544911843}, {"current_trial": 154, "trialdata": {"rt": -1000, "trial_type": "single-audio", "stimulus": "/static/audio/400Hz.wav", "internal_node_id": "0.0-118.0", "time_elapsed": 732379, "key_press": -1, "type": "PRE_RECALL_ALERT", "trial_index": 154}, "uniqueid": "MTK3450:3X73LLYYQ2LIC0JF8C8NDZFZ4A0NHD", "dateTime": 1520544912353}, {"current_trial": 155, "trialdata": {"rt": [3930, 5231, 7557, 9854, 12659, 15089, 17186, 20300, 22625, 23869, 26726, 29108, 30801, 33505, 35805, 38725, 42406, 43838, 45702, 48698, 50059, 52544, 54564, 56016], "recwords": ["oyster", "crab", "freckle", "baby", "proton", "badge", "poison", "saddle", "nomad", "crib", "perfume", "college", "bug", "blade", "pudding", "rifle", "fireplace", "dragon", "missle", "rocket", "brick", "barley", "virus", "truck"], "key_times": [1661, 1920, 2118, 2295, 2631, 2915, 3042, 3163, 3501, 3645, 3930, 4289, 4502, 4614, 4931, 5231, 6068, 6376, 6502, 6777, 6860, 7227, 7397, 7557, 9021, 9174, 9421, 9672, 9854, 11456, 11784, 11881, 12095, 12207, 12425, 12659, 13876, 14040, 14466, 14701, 14832, 15089, 16136, 16314, 16493, 16702, 16847, 16978, 17186, 18597, 18849, 19360, 19729, 19952, 20102, 20300, 21293, 21447, 21847, 22098, 22382, 22625, 23198, 23373, 23505, 23714, 23869, 25456, 25616, 25717, 25966, 26055, 26277, 26499, 26726, 27981, 28110, 28285, 28431, 28524, 28718, 28857, 29108, 30247, 30414, 30583, 30801, 32622, 32770, 32872, 33093, 33316, 33505, 34664, 34951, 35148, 35304, 35407, 35537, 35676, 35805, 37233, 37349, 37661, 38073, 38185, 38357, 38485, 38725, 40309, 40689, 40778, 40946, 41078, 41202, 41604, 41765, 41867, 42096, 42290, 42406, 42812, 42983, 43071, 43299, 43522, 43666, 43838, 44987, 45122, 45221, 45373, 45491, 45607, 45702, 47292, 47636, 47849, 47972, 48104, 48435, 48698, 49232, 49453, 49528, 49720, 49844, 50059, 51193, 51344, 51670, 51882, 52091, 52341, 52544, 53721, 53850, 54006, 54190, 54379, 54564, 55176, 55345, 55465, 55633, 55821, 56016], "trial_type": "free-recall", "conditions": [24, 1600, "a", 12000], "internal_node_id": "0.0-119.0-0.0", "key_presses": [79, 89, 83, 69, 84, 8, 8, 84, 69, 82, 13, 67, 82, 65, 66, 13, 70, 82, 69, 67, 75, 76, 69, 13, 66, 65, 66, 89, 13, 80, 82, 79, 84, 79, 78, 13, 66, 65, 68, 71, 69, 13, 80, 79, 73, 83, 79, 78, 13, 83, 65, 68, 68, 76, 69, 13, 78, 79, 77, 65, 68, 13, 67, 82, 73, 66, 13, 80, 69, 82, 70, 85, 77, 69, 13, 67, 79, 76, 76, 69, 71, 69, 13, 66, 85, 71, 13, 66, 76, 65, 68, 69, 13, 80, 85, 68, 68, 73, 78, 71, 13, 82, 73, 68, 8, 70, 76, 69, 13, 73, 8, 70, 73, 82, 69, 80, 76, 65, 67, 69, 13, 68, 82, 65, 71, 79, 78, 13, 77, 73, 83, 83, 76, 69, 13, 82, 79, 67, 75, 69, 84, 13, 66, 82, 73, 67, 75, 13, 66, 65, 82, 76, 69, 89, 13, 86, 73, 82, 85, 83, 13, 84, 82, 85, 67, 75, 13], "trial": 3, "time_elapsed": 792384, "type": "FREE_RECALL", "trial_index": 155}, "uniqueid": "MTK3450:3X73LLYYQ2LIC0JF8C8NDZFZ4A0NHD", "dateTime": 1520544972365}, {"current_trial": 156, "trialdata": {"rt": 1352, "trial_type": "text", "internal_node_id": "0.0-120.0", "time_elapsed": 795745, "key_press": 32, "type": "INSTRUCTIONS", "trial_index": 156}, "uniqueid": "MTK3450:3X73LLYYQ2LIC0JF8C8NDZFZ4A0NHD", "dateTime": 1520544975720}, {"current_trial": 157, "trialdata": {"rt": [1573, 5147, 7066, 9655, 11611, 13879, 16719, 19115, 21457, 23089], "trial_type": "math-distractor", "key_times": [1197, 1573, 4513, 4904, 5147, 6823, 7066, 9176, 9485, 9655, 11374, 11611, 13311, 13606, 13879, 16018, 16400, 16719, 18536, 18839, 19115, 20812, 21146, 21457, 22788, 23089], "responses": ["3", "20", "7", "24", "8", "13", "10", "13", "17", "5"], "num2": [1, 8, 1, 8, 1, 1, 1, 4, 8, 4, 3], "num3": [1, 7, 4, 9, 6, 7, 2, 8, 7, 1, 6], "conditions": [12, 800, "a", 24000], "internal_node_id": "0.0-121.0", "key_presses": [51, 13, 50, 48, 13, 55, 13, 50, 52, 13, 56, 13, 49, 51, 13, 49, 48, 13, 49, 51, 13, 49, 55, 13, 53, 13], "trial": 4, "time_elapsed": 821750, "type": "DISTRACTOR", "trial_index": 157, "num1": [1, 5, 2, 7, 2, 6, 7, 1, 2, 4, 8]}, "uniqueid": "MTK3450:3X73LLYYQ2LIC0JF8C8NDZFZ4A0NHD", "dateTime": 1520545001725}, {"current_trial": 158, "trialdata": {"rt": -1, "trial_type": "single-stim", "stimulus": "<p id=\"stim\">10</p>", "internal_node_id": "0.0-122.0-0.0", "time_elapsed": 824753, "key_press": -1, "trial_index": 158}, "uniqueid": "MTK3450:3X73LLYYQ2LIC0JF8C8NDZFZ4A0NHD", "dateTime": 1520545004727}, {"current_trial": 159, "trialdata": {"rt": -1, "trial_type": "single-stim", "stimulus": "<p id=\"stim\">9</p>", "internal_node_id": "0.0-122.0-1.0", "time_elapsed": 825756, "key_press": -1, "trial_index": 159}, "uniqueid": "MTK3450:3X73LLYYQ2LIC0JF8C8NDZFZ4A0NHD", "dateTime": 1520545005730}, {"current_trial": 160, "trialdata": {"rt": -1, "trial_type": "single-stim", "stimulus": "<p id=\"stim\">8</p>", "internal_node_id": "0.0-122.0-2.0", "time_elapsed": 826759, "key_press": -1, "trial_index": 160}, "uniqueid": "MTK3450:3X73LLYYQ2LIC0JF8C8NDZFZ4A0NHD", "dateTime": 1520545006733}, {"current_trial": 161, "trialdata": {"rt": -1, "trial_type": "single-stim", "stimulus": "<p id=\"stim\">7</p>", "internal_node_id": "0.0-122.0-3.0", "time_elapsed": 827761, "key_press": -1, "trial_index": 161}, "uniqueid": "MTK3450:3X73LLYYQ2LIC0JF8C8NDZFZ4A0NHD", "dateTime": 1520545007735}, {"current_trial": 162, "trialdata": {"rt": -1, "trial_type": "single-stim", "stimulus": "<p id=\"stim\">6</p>", "internal_node_id": "0.0-122.0-4.0", "time_elapsed": 828763, "key_press": -1, "trial_index": 162}, "uniqueid": "MTK3450:3X73LLYYQ2LIC0JF8C8NDZFZ4A0NHD", "dateTime": 1520545008737}, {"current_trial": 163, "trialdata": {"rt": -1, "trial_type": "single-stim", "stimulus": "<p id=\"stim\">5</p>", "internal_node_id": "0.0-122.0-5.0", "time_elapsed": 829765, "key_press": -1, "trial_index": 163}, "uniqueid": "MTK3450:3X73LLYYQ2LIC0JF8C8NDZFZ4A0NHD", "dateTime": 1520545009739}, {"current_trial": 164, "trialdata": {"rt": -1, "trial_type": "single-stim", "stimulus": "<p id=\"stim\">4</p>", "internal_node_id": "0.0-122.0-6.0", "time_elapsed": 830766, "key_press": -1, "trial_index": 164}, "uniqueid": "MTK3450:3X73LLYYQ2LIC0JF8C8NDZFZ4A0NHD", "dateTime": 1520545010740}, {"current_trial": 165, "trialdata": {"rt": -1, "trial_type": "single-stim", "stimulus": "<p id=\"stim\">3</p>", "internal_node_id": "0.0-122.0-7.0", "time_elapsed": 831768, "key_press": -1, "trial_index": 165}, "uniqueid": "MTK3450:3X73LLYYQ2LIC0JF8C8NDZFZ4A0NHD", "dateTime": 1520545011742}, {"current_trial": 166, "trialdata": {"rt": -1, "trial_type": "single-stim", "stimulus": "<p id=\"stim\">2</p>", "internal_node_id": "0.0-122.0-8.0", "time_elapsed": 832770, "key_press": -1, "trial_index": 166}, "uniqueid": "MTK3450:3X73LLYYQ2LIC0JF8C8NDZFZ4A0NHD", "dateTime": 1520545012744}, {"current_trial": 167, "trialdata": {"rt": -1, "trial_type": "single-stim", "stimulus": "<p id=\"stim\">1</p>", "internal_node_id": "0.0-122.0-9.0", "time_elapsed": 833773, "key_press": -1, "trial_index": 167}, "uniqueid": "MTK3450:3X73LLYYQ2LIC0JF8C8NDZFZ4A0NHD", "dateTime": 1520545013747}, {"current_trial": 168, "trialdata": {"rt": -1, "trial_type": "single-stim", "stimulus": "<p id=\"stim\">+</p>", "internal_node_id": "0.0-123.0-0.0", "time_elapsed": 835275, "key_press": -1, "type": "FIXATION", "trial_index": 168}, "uniqueid": "MTK3450:3X73LLYYQ2LIC0JF8C8NDZFZ4A0NHD", "dateTime": 1520545015249}, {"current_trial": 169, "trialdata": {"rt": -1000, "trial_type": "single-audio", "word": "laser", "stimulus": "/static/audio/wordpool/LASER.wav", "conditions": [12, 800, "a", 24000], "internal_node_id": "0.0-124.0", "trial": 4, "time_elapsed": 837210, "serialpos": 0, "key_press": -1, "wordID": 800, "type": "PRES_AUD", "trial_index": 169}, "uniqueid": "MTK3450:3X73LLYYQ2LIC0JF8C8NDZFZ4A0NHD", "dateTime": 1520545017185}, {"current_trial": 170, "trialdata": {"rt": -1000, "trial_type": "single-audio", "word": "lizard", "stimulus": "/static/audio/wordpool/LIZARD.wav", "conditions": [12, 800, "a", 24000], "internal_node_id": "0.0-125.0", "trial": 4, "time_elapsed": 839118, "serialpos": 1, "key_press": -1, "wordID": 833, "type": "PRES_AUD", "trial_index": 170}, "uniqueid": "MTK3450:3X73LLYYQ2LIC0JF8C8NDZFZ4A0NHD", "dateTime": 1520545019092}, {"current_trial": 171, "trialdata": {"rt": -1000, "trial_type": "single-audio", "word": "chipmunk", "stimulus": "/static/audio/wordpool/CHIPMUNK.wav", "conditions": [12, 800, "a", 24000], "internal_node_id": "0.0-126.0", "trial": 4, "time_elapsed": 840933, "serialpos": 2, "key_press": -1, "wordID": 303, "type": "PRES_AUD", "trial_index": 171}, "uniqueid": "MTK3450:3X73LLYYQ2LIC0JF8C8NDZFZ4A0NHD", "dateTime": 1520545020907}, {"current_trial": 172, "trialdata": {"rt": -1000, "trial_type": "single-audio", "word": "beaker", "stimulus": "/static/audio/wordpool/BEAKER.wav", "conditions": [12, 800, "a", 24000], "internal_node_id": "0.0-127.0", "trial": 4, "time_elapsed": 842908, "serialpos": 3, "key_press": -1, "wordID": 103, "type": "PRES_AUD", "trial_index": 172}, "uniqueid": "MTK3450:3X73LLYYQ2LIC0JF8C8NDZFZ4A0NHD", "dateTime": 1520545022882}, {"current_trial": 173, "trialdata": {"rt": -1000, "trial_type": "single-audio", "word": "silk", "stimulus": "/static/audio/wordpool/SILK.wav", "conditions": [12, 800, "a", 24000], "internal_node_id": "0.0-128.0", "trial": 4, "time_elapsed": 844822, "serialpos": 4, "key_press": -1, "wordID": 1306, "type": "PRES_AUD", "trial_index": 173}, "uniqueid": "MTK3450:3X73LLYYQ2LIC0JF8C8NDZFZ4A0NHD", "dateTime": 1520545024796}, {"current_trial": 174, "trialdata": {"rt": -1000, "trial_type": "single-audio", "word": "market", "stimulus": "/static/audio/wordpool/MARKET.wav", "conditions": [12, 800, "a", 24000], "internal_node_id": "0.0-129.0", "trial": 4, "time_elapsed": 846823, "serialpos": 5, "key_press": -1, "wordID": 870, "type": "PRES_AUD", "trial_index": 174}, "uniqueid": "MTK3450:3X73LLYYQ2LIC0JF8C8NDZFZ4A0NHD", "dateTime": 1520545026797}, {"current_trial": 175, "trialdata": {"rt": -1000, "trial_type": "single-audio", "word": "flask", "stimulus": "/static/audio/wordpool/FLASK.wav", "conditions": [12, 800, "a", 24000], "internal_node_id": "0.0-130.0", "trial": 4, "time_elapsed": 848594, "serialpos": 6, "key_press": -1, "wordID": 575, "type": "PRES_AUD", "trial_index": 175}, "uniqueid": "MTK3450:3X73LLYYQ2LIC0JF8C8NDZFZ4A0NHD", "dateTime": 1520545028568}, {"current_trial": 176, "trialdata": {"rt": -1000, "trial_type": "single-audio", "word": "cyclone", "stimulus": "/static/audio/wordpool/CYCLONE.wav", "conditions": [12, 800, "a", 24000], "internal_node_id": "0.0-131.0", "trial": 4, "time_elapsed": 850363, "serialpos": 7, "key_press": -1, "wordID": 430, "type": "PRES_AUD", "trial_index": 176}, "uniqueid": "MTK3450:3X73LLYYQ2LIC0JF8C8NDZFZ4A0NHD", "dateTime": 1520545030337}, {"current_trial": 177, "trialdata": {"rt": -1000, "trial_type": "single-audio", "word": "knapsack", "stimulus": "/static/audio/wordpool/KNAPSACK.wav", "conditions": [12, 800, "a", 24000], "internal_node_id": "0.0-132.0", "trial": 4, "time_elapsed": 851995, "serialpos": 8, "key_press": -1, "wordID": 782, "type": "PRES_AUD", "trial_index": 177}, "uniqueid": "MTK3450:3X73LLYYQ2LIC0JF8C8NDZFZ4A0NHD", "dateTime": 1520545031969}, {"current_trial": 178, "trialdata": {"rt": -1000, "trial_type": "single-audio", "word": "washer", "stimulus": "/static/audio/wordpool/WASHER.wav", "conditions": [12, 800, "a", 24000], "internal_node_id": "0.0-133.0", "trial": 4, "time_elapsed": 853748, "serialpos": 9, "key_press": -1, "wordID": 1591, "type": "PRES_AUD", "trial_index": 178}, "uniqueid": "MTK3450:3X73LLYYQ2LIC0JF8C8NDZFZ4A0NHD", "dateTime": 1520545033722}, {"current_trial": 179, "trialdata": {"rt": -1000, "trial_type": "single-audio", "word": "salad", "stimulus": "/static/audio/wordpool/SALAD.wav", "conditions": [12, 800, "a", 24000], "internal_node_id": "0.0-134.0", "trial": 4, "time_elapsed": 855641, "serialpos": 10, "key_press": -1, "wordID": 1223, "type": "PRES_AUD", "trial_index": 179}, "uniqueid": "MTK3450:3X73LLYYQ2LIC0JF8C8NDZFZ4A0NHD", "dateTime": 1520545035615}, {"current_trial": 180, "trialdata": {"rt": -1000, "trial_type": "single-audio", "word": "casket", "stimulus": "/static/audio/wordpool/CASKET.wav", "conditions": [12, 800, "a", 24000], "internal_node_id": "0.0-135.0", "trial": 4, "time_elapsed": 857608, "serialpos": 11, "key_press": -1, "wordID": 254, "type": "PRES_AUD", "trial_index": 180}, "uniqueid": "MTK3450:3X73LLYYQ2LIC0JF8C8NDZFZ4A0NHD", "dateTime": 1520545037582}, {"current_trial": 181, "trialdata": {"rt": -1, "trial_type": "single-stim", "stimulus": "", "internal_node_id": "0.0-136.0-0.0", "time_elapsed": 858846, "key_press": -1, "type": "PRE_RECALL_DELAY", "trial_index": 181}, "uniqueid": "MTK3450:3X73LLYYQ2LIC0JF8C8NDZFZ4A0NHD", "dateTime": 1520545038820}, {"current_trial": 182, "trialdata": {"rt": -1000, "trial_type": "single-audio", "stimulus": "/static/audio/400Hz.wav", "internal_node_id": "0.0-137.0", "time_elapsed": 859350, "key_press": -1, "type": "PRE_RECALL_ALERT", "trial_index": 182}, "uniqueid": "MTK3450:3X73LLYYQ2LIC0JF8C8NDZFZ4A0NHD", "dateTime": 1520545039324}, {"current_trial": 183, "trialdata": {"rt": [2917, 6481, 7822, 8977, 10877, 12518, 15872, 20511, 22588, 24333, 25649], "recwords": ["lizard", "chipmunk", "beaker", "silk", "market", "flask", "cyclone", "napsakc", "wash", "salad", "casket"], "key_times": [1728, 1850, 2027, 2288, 2527, 2744, 2917, 4626, 4757, 4922, 5116, 5474, 5692, 6134, 6301, 6481, 6931, 7122, 7238, 7457, 7567, 7698, 7822, 8229, 8452, 8538, 8762, 8977, 9857, 10014, 10182, 10285, 10413, 10722, 10877, 11798, 11958, 12043, 12212, 12353, 12518, 13645, 13907, 14305, 14443, 14587, 14728, 15151, 15257, 15454, 15548, 15715, 15872, 16388, 16577, 17248, 17358, 17569, 17916, 18043, 18433, 18557, 18894, 19035, 19346, 19513, 19655, 19922, 20065, 20191, 20362, 20511, 21412, 21591, 21993, 22354, 22588, 23504, 23635, 23761, 23989, 24211, 24333, 24647, 24801, 25076, 25179, 25359, 25549, 25649], "trial_type": "free-recall", "conditions": [12, 800, "a", 24000], "internal_node_id": "0.0-138.0-0.0", "key_presses": [76, 73, 90, 65, 82, 68, 13, 67, 72, 73, 80, 77, 85, 78, 75, 13, 66, 69, 65, 75, 69, 82, 13, 83, 73, 76, 75, 13, 77, 65, 82, 75, 69, 84, 13, 70, 76, 65, 83, 75, 13, 83, 89, 8, 8, 67, 89, 67, 76, 79, 78, 69, 13, 75, 65, 8, 8, 78, 8, 8, 78, 65, 8, 8, 78, 65, 80, 83, 65, 75, 67, 13, 87, 65, 83, 72, 13, 83, 65, 76, 65, 68, 13, 67, 65, 83, 75, 69, 84, 13], "trial": 4, "time_elapsed": 919355, "type": "FREE_RECALL", "trial_index": 183}, "uniqueid": "MTK3450:3X73LLYYQ2LIC0JF8C8NDZFZ4A0NHD", "dateTime": 1520545099336}, {"current_trial": 184, "trialdata": {"rt": 1531, "trial_type": "text", "internal_node_id": "0.0-139.0", "time_elapsed": 922895, "key_press": 32, "type": "INSTRUCTIONS", "trial_index": 184}, "uniqueid": "MTK3450:3X73LLYYQ2LIC0JF8C8NDZFZ4A0NHD", "dateTime": 1520545102869}, {"current_trial": 185, "trialdata": {"rt": [2963, 5082, 8846, 11337], "trial_type": "math-distractor", "key_times": [2488, 2651, 2963, 4490, 4806, 5082, 8277, 8557, 8846, 10591, 11047, 11337], "responses": ["11", "13", "12", "14"], "num2": [1, 8, 3, 4, 5], "num3": [6, 1, 1, 3, 7], "conditions": [24, 800, "a", 12000], "internal_node_id": "0.0-140.0", "key_presses": [49, 49, 13, 49, 51, 13, 49, 50, 13, 49, 52, 13], "trial": 5, "time_elapsed": 936899, "type": "DISTRACTOR", "trial_index": 185, "num1": [4, 4, 8, 7, 8]}, "uniqueid": "MTK3450:3X73LLYYQ2LIC0JF8C8NDZFZ4A0NHD", "dateTime": 1520545116874}, {"current_trial": 186, "trialdata": {"rt": -1, "trial_type": "single-stim", "stimulus": "<p id=\"stim\">10</p>", "internal_node_id": "0.0-141.0-0.0", "time_elapsed": 939902, "key_press": -1, "trial_index": 186}, "uniqueid": "MTK3450:3X73LLYYQ2LIC0JF8C8NDZFZ4A0NHD", "dateTime": 1520545119876}, {"current_trial": 187, "trialdata": {"rt": -1, "trial_type": "single-stim", "stimulus": "<p id=\"stim\">9</p>", "internal_node_id": "0.0-141.0-1.0", "time_elapsed": 940903, "key_press": -1, "trial_index": 187}, "uniqueid": "MTK3450:3X73LLYYQ2LIC0JF8C8NDZFZ4A0NHD", "dateTime": 1520545120878}, {"current_trial": 188, "trialdata": {"rt": -1, "trial_type": "single-stim", "stimulus": "<p id=\"stim\">8</p>", "internal_node_id": "0.0-141.0-2.0", "time_elapsed": 941906, "key_press": -1, "trial_index": 188}, "uniqueid": "MTK3450:3X73LLYYQ2LIC0JF8C8NDZFZ4A0NHD", "dateTime": 1520545121880}, {"current_trial": 189, "trialdata": {"rt": -1, "trial_type": "single-stim", "stimulus": "<p id=\"stim\">7</p>", "internal_node_id": "0.0-141.0-3.0", "time_elapsed": 942909, "key_press": -1, "trial_index": 189}, "uniqueid": "MTK3450:3X73LLYYQ2LIC0JF8C8NDZFZ4A0NHD", "dateTime": 1520545122883}, {"current_trial": 190, "trialdata": {"rt": -1, "trial_type": "single-stim", "stimulus": "<p id=\"stim\">6</p>", "internal_node_id": "0.0-141.0-4.0", "time_elapsed": 943910, "key_press": -1, "trial_index": 190}, "uniqueid": "MTK3450:3X73LLYYQ2LIC0JF8C8NDZFZ4A0NHD", "dateTime": 1520545123885}, {"current_trial": 191, "trialdata": {"rt": -1, "trial_type": "single-stim", "stimulus": "<p id=\"stim\">5</p>", "internal_node_id": "0.0-141.0-5.0", "time_elapsed": 944912, "key_press": -1, "trial_index": 191}, "uniqueid": "MTK3450:3X73LLYYQ2LIC0JF8C8NDZFZ4A0NHD", "dateTime": 1520545124886}, {"current_trial": 192, "trialdata": {"rt": -1, "trial_type": "single-stim", "stimulus": "<p id=\"stim\">4</p>", "internal_node_id": "0.0-141.0-6.0", "time_elapsed": 945913, "key_press": -1, "trial_index": 192}, "uniqueid": "MTK3450:3X73LLYYQ2LIC0JF8C8NDZFZ4A0NHD", "dateTime": 1520545125889}, {"current_trial": 193, "trialdata": {"rt": -1, "trial_type": "single-stim", "stimulus": "<p id=\"stim\">3</p>", "internal_node_id": "0.0-141.0-7.0", "time_elapsed": 946916, "key_press": -1, "trial_index": 193}, "uniqueid": "MTK3450:3X73LLYYQ2LIC0JF8C8NDZFZ4A0NHD", "dateTime": 1520545126890}, {"current_trial": 194, "trialdata": {"rt": -1, "trial_type": "single-stim", "stimulus": "<p id=\"stim\">2</p>", "internal_node_id": "0.0-141.0-8.0", "time_elapsed": 947917, "key_press": -1, "trial_index": 194}, "uniqueid": "MTK3450:3X73LLYYQ2LIC0JF8C8NDZFZ4A0NHD", "dateTime": 1520545127891}, {"current_trial": 195, "trialdata": {"rt": -1, "trial_type": "single-stim", "stimulus": "<p id=\"stim\">1</p>", "internal_node_id": "0.0-141.0-9.0", "time_elapsed": 948919, "key_press": -1, "trial_index": 195}, "uniqueid": "MTK3450:3X73LLYYQ2LIC0JF8C8NDZFZ4A0NHD", "dateTime": 1520545128893}, {"current_trial": 196, "trialdata": {"rt": -1, "trial_type": "single-stim", "stimulus": "<p id=\"stim\">+</p>", "internal_node_id": "0.0-142.0-0.0", "time_elapsed": 950422, "key_press": -1, "type": "FIXATION", "trial_index": 196}, "uniqueid": "MTK3450:3X73LLYYQ2LIC0JF8C8NDZFZ4A0NHD", "dateTime": 1520545130396}, {"current_trial": 197, "trialdata": {"rt": -1000, "trial_type": "single-audio", "word": "slime", "stimulus": "/static/audio/wordpool/SLIME.wav", "conditions": [24, 800, "a", 12000], "internal_node_id": "0.0-143.0", "trial": 5, "time_elapsed": 952241, "serialpos": 0, "key_press": -1, "wordID": 1326, "type": "PRES_AUD", "trial_index": 197}, "uniqueid": "MTK3450:3X73LLYYQ2LIC0JF8C8NDZFZ4A0NHD", "dateTime": 1520545132215}, {"current_trial": 198, "trialdata": {"rt": -1000, "trial_type": "single-audio", "word": "shrub", "stimulus": "/static/audio/wordpool/SHRUB.wav", "conditions": [24, 800, "a", 12000], "internal_node_id": "0.0-144.0", "trial": 5, "time_elapsed": 953995, "serialpos": 1, "key_press": -1, "wordID": 1298, "type": "PRES_AUD", "trial_index": 198}, "uniqueid": "MTK3450:3X73LLYYQ2LIC0JF8C8NDZFZ4A0NHD", "dateTime": 1520545133969}, {"current_trial": 199, "trialdata": {"rt": -1000, "trial_type": "single-audio", "word": "turkey", "stimulus": "/static/audio/wordpool/TURKEY.wav", "conditions": [24, 800, "a", 12000], "internal_node_id": "0.0-145.0", "trial": 5, "time_elapsed": 955704, "serialpos": 2, "key_press": -1, "wordID": 1519, "type": "PRES_AUD", "trial_index": 199}, "uniqueid": "MTK3450:3X73LLYYQ2LIC0JF8C8NDZFZ4A0NHD", "dateTime": 1520545135678}, {"current_trial": 200, "trialdata": {"rt": -1000, "trial_type": "single-audio", "word": "sausage", "stimulus": "/static/audio/wordpool/SAUSAGE.wav", "conditions": [24, 800, "a", 12000], "internal_node_id": "0.0-146.0", "trial": 5, "time_elapsed": 957609, "serialpos": 3, "key_press": -1, "wordID": 1237, "type": "PRES_AUD", "trial_index": 200}, "uniqueid": "MTK3450:3X73LLYYQ2LIC0JF8C8NDZFZ4A0NHD", "dateTime": 1520545137583}, {"current_trial": 201, "trialdata": {"rt": -1000, "trial_type": "single-audio", "word": "bacon", "stimulus": "/static/audio/wordpool/BACON.wav", "conditions": [24, 800, "a", 12000], "internal_node_id": "0.0-147.0", "trial": 5, "time_elapsed": 959460, "serialpos": 4, "key_press": -1, "wordID": 66, "type": "PRES_AUD", "trial_index": 201}, "uniqueid": "MTK3450:3X73LLYYQ2LIC0JF8C8NDZFZ4A0NHD", "dateTime": 1520545139434}, {"current_trial": 202, "trialdata": {"rt": -1000, "trial_type": "single-audio", "word": "trout", "stimulus": "/static/audio/wordpool/TROUT.wav", "conditions": [24, 800, "a", 12000], "internal_node_id": "0.0-148.0", "trial": 5, "time_elapsed": 961417, "serialpos": 5, "key_press": -1, "wordID": 1510, "type": "PRES_AUD", "trial_index": 202}, "uniqueid": "MTK3450:3X73LLYYQ2LIC0JF8C8NDZFZ4A0NHD", "dateTime": 1520545141391}, {"current_trial": 203, "trialdata": {"rt": -1000, "trial_type": "single-audio", "word": "flower", "stimulus": "/static/audio/wordpool/FLOWER.wav", "conditions": [24, 800, "a", 12000], "internal_node_id": "0.0-149.0", "trial": 5, "time_elapsed": 963178, "serialpos": 6, "key_press": -1, "wordID": 583, "type": "PRES_AUD", "trial_index": 203}, "uniqueid": "MTK3450:3X73LLYYQ2LIC0JF8C8NDZFZ4A0NHD", "dateTime": 1520545143152}, {"current_trial": 204, "trialdata": {"rt": -1000, "trial_type": "single-audio", "word": "raft", "stimulus": "/static/audio/wordpool/RAFT.wav", "conditions": [24, 800, "a", 12000], "internal_node_id": "0.0-150.0", "trial": 5, "time_elapsed": 964890, "serialpos": 7, "key_press": -1, "wordID": 1158, "type": "PRES_AUD", "trial_index": 204}, "uniqueid": "MTK3450:3X73LLYYQ2LIC0JF8C8NDZFZ4A0NHD", "dateTime": 1520545144864}, {"current_trial": 205, "trialdata": {"rt": -1000, "trial_type": "single-audio", "word": "maple", "stimulus": "/static/audio/wordpool/MAPLE.wav", "conditions": [24, 800, "a", 12000], "internal_node_id": "0.0-151.0", "trial": 5, "time_elapsed": 966687, "serialpos": 8, "key_press": -1, "wordID": 865, "type": "PRES_AUD", "trial_index": 205}, "uniqueid": "MTK3450:3X73LLYYQ2LIC0JF8C8NDZFZ4A0NHD", "dateTime": 1520545146661}, {"current_trial": 206, "trialdata": {"rt": -1000, "trial_type": "single-audio", "word": "passage", "stimulus": "/static/audio/wordpool/PASSAGE.wav", "conditions": [24, 800, "a", 12000], "internal_node_id": "0.0-152.0", "trial": 5, "time_elapsed": 968378, "serialpos": 9, "key_press": -1, "wordID": 1018, "type": "PRES_AUD", "trial_index": 206}, "uniqueid": "MTK3450:3X73LLYYQ2LIC0JF8C8NDZFZ4A0NHD", "dateTime": 1520545148352}, {"current_trial": 207, "trialdata": {"rt": -1000, "trial_type": "single-audio", "word": "primate", "stimulus": "/static/audio/wordpool/PRIMATE.wav", "conditions": [24, 800, "a", 12000], "internal_node_id": "0.0-153.0", "trial": 5, "time_elapsed": 970259, "serialpos": 10, "key_press": -1, "wordID": 1122, "type": "PRES_AUD", "trial_index": 207}, "uniqueid": "MTK3450:3X73LLYYQ2LIC0JF8C8NDZFZ4A0NHD", "dateTime": 1520545150233}, {"current_trial": 208, "trialdata": {"rt": -1000, "trial_type": "single-audio", "word": "lady", "stimulus": "/static/audio/wordpool/LADY.wav", "conditions": [24, 800, "a", 12000], "internal_node_id": "0.0-154.0", "trial": 5, "time_elapsed": 972088, "serialpos": 11, "key_press": -1, "wordID": 793, "type": "PRES_AUD", "trial_index": 208}, "uniqueid": "MTK3450:3X73LLYYQ2LIC0JF8C8NDZFZ4A0NHD", "dateTime": 1520545152062}, {"current_trial": 209, "trialdata": {"rt": -1000, "trial_type": "single-audio", "word": "denim", "stimulus": "/static/audio/wordpool/DENIM.wav", "conditions": [24, 800, "a", 12000], "internal_node_id": "0.0-155.0", "trial": 5, "time_elapsed": 973995, "serialpos": 12, "key_press": -1, "wordID": 445, "type": "PRES_AUD", "trial_index": 209}, "uniqueid": "MTK3450:3X73LLYYQ2LIC0JF8C8NDZFZ4A0NHD", "dateTime": 1520545153969}, {"current_trial": 210, "trialdata": {"rt": -1000, "trial_type": "single-audio", "word": "report", "stimulus": "/static/audio/wordpool/REPORT.wav", "conditions": [24, 800, "a", 12000], "internal_node_id": "0.0-156.0", "trial": 5, "time_elapsed": 975780, "serialpos": 13, "key_press": -1, "wordID": 1183, "type": "PRES_AUD", "trial_index": 210}, "uniqueid": "MTK3450:3X73LLYYQ2LIC0JF8C8NDZFZ4A0NHD", "dateTime": 1520545155754}, {"current_trial": 211, "trialdata": {"rt": -1000, "trial_type": "single-audio", "word": "survey", "stimulus": "/static/audio/wordpool/SURVEY.wav", "conditions": [24, 800, "a", 12000], "internal_node_id": "0.0-157.0", "trial": 5, "time_elapsed": 977657, "serialpos": 14, "key_press": -1, "wordID": 1413, "type": "PRES_AUD", "trial_index": 211}, "uniqueid": "MTK3450:3X73LLYYQ2LIC0JF8C8NDZFZ4A0NHD", "dateTime": 1520545157631}, {"current_trial": 212, "trialdata": {"rt": -1000, "trial_type": "single-audio", "word": "peach", "stimulus": "/static/audio/wordpool/PEACH.wav", "conditions": [24, 800, "a", 12000], "internal_node_id": "0.0-158.0", "trial": 5, "time_elapsed": 979511, "serialpos": 15, "key_press": -1, "wordID": 1030, "type": "PRES_AUD", "trial_index": 212}, "uniqueid": "MTK3450:3X73LLYYQ2LIC0JF8C8NDZFZ4A0NHD", "dateTime": 1520545159485}, {"current_trial": 213, "trialdata": {"rt": -1000, "trial_type": "single-audio", "word": "diner", "stimulus": "/static/audio/wordpool/DINER.wav", "conditions": [24, 800, "a", 12000], "internal_node_id": "0.0-159.0", "trial": 5, "time_elapsed": 981450, "serialpos": 16, "key_press": -1, "wordID": 466, "type": "PRES_AUD", "trial_index": 213}, "uniqueid": "MTK3450:3X73LLYYQ2LIC0JF8C8NDZFZ4A0NHD", "dateTime": 1520545161424}, {"current_trial": 214, "trialdata": {"rt": -1000, "trial_type": "single-audio", "word": "braces", "stimulus": "/static/audio/wordpool/BRACES.wav", "conditions": [24, 800, "a", 12000], "internal_node_id": "0.0-160.0", "trial": 5, "time_elapsed": 983194, "serialpos": 17, "key_press": -1, "wordID": 163, "type": "PRES_AUD", "trial_index": 214}, "uniqueid": "MTK3450:3X73LLYYQ2LIC0JF8C8NDZFZ4A0NHD", "dateTime": 1520545163169}, {"current_trial": 215, "trialdata": {"rt": -1000, "trial_type": "single-audio", "word": "plaster", "stimulus": "/static/audio/wordpool/PLASTER.wav", "conditions": [24, 800, "a", 12000], "internal_node_id": "0.0-161.0", "trial": 5, "time_elapsed": 985090, "serialpos": 18, "key_press": -1, "wordID": 1084, "type": "PRES_AUD", "trial_index": 215}, "uniqueid": "MTK3450:3X73LLYYQ2LIC0JF8C8NDZFZ4A0NHD", "dateTime": 1520545165064}, {"current_trial": 216, "trialdata": {"rt": -1000, "trial_type": "single-audio", "word": "cookbook", "stimulus": "/static/audio/wordpool/COOKBOOK.wav", "conditions": [24, 800, "a", 12000], "internal_node_id": "0.0-162.0", "trial": 5, "time_elapsed": 986778, "serialpos": 19, "key_press": -1, "wordID": 372, "type": "PRES_AUD", "trial_index": 216}, "uniqueid": "MTK3450:3X73LLYYQ2LIC0JF8C8NDZFZ4A0NHD", "dateTime": 1520545166752}, {"current_trial": 217, "trialdata": {"rt": -1000, "trial_type": "single-audio", "word": "clothes", "stimulus": "/static/audio/wordpool/CLOTHES.wav", "conditions": [24, 800, "a", 12000], "internal_node_id": "0.0-163.0", "trial": 5, "time_elapsed": 988426, "serialpos": 20, "key_press": -1, "wordID": 326, "type": "PRES_AUD", "trial_index": 217}, "uniqueid": "MTK3450:3X73LLYYQ2LIC0JF8C8NDZFZ4A0NHD", "dateTime": 1520545168400}, {"current_trial": 218, "trialdata": {"rt": -1000, "trial_type": "single-audio", "word": "highway", "stimulus": "/static/audio/wordpool/HIGHWAY.wav", "conditions": [24, 800, "a", 12000], "internal_node_id": "0.0-164.0", "trial": 5, "time_elapsed": 990344, "serialpos": 21, "key_press": -1, "wordID": 706, "type": "PRES_AUD", "trial_index": 218}, "uniqueid": "MTK3450:3X73LLYYQ2LIC0JF8C8NDZFZ4A0NHD", "dateTime": 1520545170319}, {"current_trial": 219, "trialdata": {"rt": -1000, "trial_type": "single-audio", "word": "binder", "stimulus": "/static/audio/wordpool/BINDER.wav", "conditions": [24, 800, "a", 12000], "internal_node_id": "0.0-165.0", "trial": 5, "time_elapsed": 992256, "serialpos": 22, "key_press": -1, "wordID": 126, "type": "PRES_AUD", "trial_index": 219}, "uniqueid": "MTK3450:3X73LLYYQ2LIC0JF8C8NDZFZ4A0NHD", "dateTime": 1520545172230}, {"current_trial": 220, "trialdata": {"rt": -1000, "trial_type": "single-audio", "word": "expert", "stimulus": "/static/audio/wordpool/EXPERT.wav", "conditions": [24, 800, "a", 12000], "internal_node_id": "0.0-166.0", "trial": 5, "time_elapsed": 994025, "serialpos": 23, "key_press": -1, "wordID": 542, "type": "PRES_AUD", "trial_index": 220}, "uniqueid": "MTK3450:3X73LLYYQ2LIC0JF8C8NDZFZ4A0NHD", "dateTime": 1520545173999}, {"current_trial": 221, "trialdata": {"rt": -1, "trial_type": "single-stim", "stimulus": "", "internal_node_id": "0.0-167.0-0.0", "time_elapsed": 995411, "key_press": -1, "type": "PRE_RECALL_DELAY", "trial_index": 221}, "uniqueid": "MTK3450:3X73LLYYQ2LIC0JF8C8NDZFZ4A0NHD", "dateTime": 1520545175385}, {"current_trial": 222, "trialdata": {"rt": -1000, "trial_type": "single-audio", "stimulus": "/static/audio/400Hz.wav", "internal_node_id": "0.0-168.0", "time_elapsed": 995917, "key_press": -1, "type": "PRE_RECALL_ALERT", "trial_index": 222}, "uniqueid": "MTK3450:3X73LLYYQ2LIC0JF8C8NDZFZ4A0NHD", "dateTime": 1520545175891}, {"current_trial": 223, "trialdata": {"rt": [4578, 11152, 13023, 15465, 18448, 20602, 22577, 24938, 28455, 29748, 31199, 33520, 35800, 39082, 40538, 43030, 55655, 57948], "recwords": ["slime", "shrub", "turkey", "bacon", "trout", "flower", "raft", "maple", "passage", "primate", "lady", "denim", "report", "survey", "peach", "diner", "plaster", "cookbook"], "key_times": [3725, 3814, 3997, 4136, 4365, 4578, 9676, 10249, 10451, 10588, 10934, 11152, 12176, 12283, 12448, 12578, 12701, 12843, 13023, 14445, 14526, 14915, 15089, 15239, 15465, 17274, 17508, 17787, 18025, 18277, 18448, 19502, 19639, 20006, 20157, 20322, 20467, 20602, 21869, 21997, 22218, 22417, 22577, 24015, 24119, 24330, 24553, 24744, 24938, 26123, 26489, 26740, 26813, 27014, 27334, 27718, 27869, 27983, 28203, 28311, 28455, 28895, 29027, 29087, 29256, 29352, 29511, 29612, 29748, 30347, 30467, 30765, 31007, 31199, 32418, 32631, 32948, 33146, 33341, 33520, 34421, 34995, 35247, 35406, 35526, 35695, 35800, 37384, 37843, 37987, 38565, 38732, 38906, 39082, 39782, 39911, 40021, 40265, 40386, 40538, 42262, 42448, 42570, 42732, 42887, 43030, 53533, 53733, 53953, 54452, 54587, 54814, 54936, 55106, 55307, 55443, 55535, 55655, 56117, 56485, 56560, 56742, 56898, 57043, 57395, 57508, 57670, 57794, 57948, 58452, 58801, 58883, 59065, 59235, 59664, 59807, 59903], "trial_type": "free-recall", "conditions": [24, 800, "a", 12000], "internal_node_id": "0.0-169.0-0.0", "key_presses": [83, 76, 73, 77, 69, 13, 83, 72, 82, 85, 66, 13, 84, 85, 82, 75, 69, 89, 13, 66, 65, 67, 79, 78, 13, 84, 82, 79, 85, 84, 13, 70, 76, 79, 87, 69, 82, 13, 82, 65, 70, 84, 13, 77, 65, 80, 76, 69, 13, 77, 8, 80, 65, 83, 65, 8, 83, 65, 71, 69, 13, 80, 82, 73, 77, 65, 84, 69, 13, 76, 65, 68, 89, 13, 68, 69, 78, 73, 77, 13, 82, 69, 80, 79, 82, 84, 13, 83, 85, 82, 86, 69, 89, 13, 80, 69, 65, 67, 72, 13, 68, 73, 78, 69, 82, 13, 80, 65, 83, 8, 8, 76, 65, 83, 84, 69, 82, 13, 79, 8, 67, 79, 79, 75, 66, 79, 79, 75, 13, 76, 8, 67, 76, 79, 84, 72, 69], "trial": 5, "time_elapsed": 1055922, "type": "FREE_RECALL", "trial_index": 223}, "uniqueid": "MTK3450:3X73LLYYQ2LIC0JF8C8NDZFZ4A0NHD", "dateTime": 1520545235904}, {"current_trial": 224, "trialdata": {"rt": 1646, "trial_type": "text", "internal_node_id": "0.0-170.0", "time_elapsed": 1059579, "key_press": 32, "type": "INSTRUCTIONS", "trial_index": 224}, "uniqueid": "MTK3450:3X73LLYYQ2LIC0JF8C8NDZFZ4A0NHD", "dateTime": 1520545239553}, {"current_trial": 225, "trialdata": {"rt": [1752, 4847, 8243, 10938], "trial_type": "math-distractor", "key_times": [1515, 1752, 4125, 4658, 4847, 7867, 8065, 8243, 10292, 10646, 10938], "responses": ["6", "17", "21", "19"], "num2": [2, 6, 8, 8, 2], "num3": [2, 7, 3, 6, 7], "conditions": [12, 1600, "a", 12000], "internal_node_id": "0.0-171.0", "key_presses": [54, 13, 49, 55, 13, 50, 49, 13, 49, 57, 13], "trial": 6, "time_elapsed": 1073585, "type": "DISTRACTOR", "trial_index": 225, "num1": [2, 5, 9, 5, 2]}, "uniqueid": "MTK3450:3X73LLYYQ2LIC0JF8C8NDZFZ4A0NHD", "dateTime": 1520545253559}, {"current_trial": 226, "trialdata": {"rt": -1, "trial_type": "single-stim", "stimulus": "<p id=\"stim\">10</p>", "internal_node_id": "0.0-172.0-0.0", "time_elapsed": 1076588, "key_press": -1, "trial_index": 226}, "uniqueid": "MTK3450:3X73LLYYQ2LIC0JF8C8NDZFZ4A0NHD", "dateTime": 1520545256562}, {"current_trial": 227, "trialdata": {"rt": -1, "trial_type": "single-stim", "stimulus": "<p id=\"stim\">9</p>", "internal_node_id": "0.0-172.0-1.0", "time_elapsed": 1077590, "key_press": -1, "trial_index": 227}, "uniqueid": "MTK3450:3X73LLYYQ2LIC0JF8C8NDZFZ4A0NHD", "dateTime": 1520545257565}, {"current_trial": 228, "trialdata": {"rt": -1, "trial_type": "single-stim", "stimulus": "<p id=\"stim\">8</p>", "internal_node_id": "0.0-172.0-2.0", "time_elapsed": 1078592, "key_press": -1, "trial_index": 228}, "uniqueid": "MTK3450:3X73LLYYQ2LIC0JF8C8NDZFZ4A0NHD", "dateTime": 1520545258566}, {"current_trial": 229, "trialdata": {"rt": -1, "trial_type": "single-stim", "stimulus": "<p id=\"stim\">7</p>", "internal_node_id": "0.0-172.0-3.0", "time_elapsed": 1079594, "key_press": -1, "trial_index": 229}, "uniqueid": "MTK3450:3X73LLYYQ2LIC0JF8C8NDZFZ4A0NHD", "dateTime": 1520545259568}, {"current_trial": 230, "trialdata": {"rt": -1, "trial_type": "single-stim", "stimulus": "<p id=\"stim\">6</p>", "internal_node_id": "0.0-172.0-4.0", "time_elapsed": 1080596, "key_press": -1, "trial_index": 230}, "uniqueid": "MTK3450:3X73LLYYQ2LIC0JF8C8NDZFZ4A0NHD", "dateTime": 1520545260570}, {"current_trial": 231, "trialdata": {"rt": -1, "trial_type": "single-stim", "stimulus": "<p id=\"stim\">5</p>", "internal_node_id": "0.0-172.0-5.0", "time_elapsed": 1081597, "key_press": -1, "trial_index": 231}, "uniqueid": "MTK3450:3X73LLYYQ2LIC0JF8C8NDZFZ4A0NHD", "dateTime": 1520545261572}, {"current_trial": 232, "trialdata": {"rt": -1, "trial_type": "single-stim", "stimulus": "<p id=\"stim\">4</p>", "internal_node_id": "0.0-172.0-6.0", "time_elapsed": 1082600, "key_press": -1, "trial_index": 232}, "uniqueid": "MTK3450:3X73LLYYQ2LIC0JF8C8NDZFZ4A0NHD", "dateTime": 1520545262575}, {"current_trial": 233, "trialdata": {"rt": -1, "trial_type": "single-stim", "stimulus": "<p id=\"stim\">3</p>", "internal_node_id": "0.0-172.0-7.0", "time_elapsed": 1083602, "key_press": -1, "trial_index": 233}, "uniqueid": "MTK3450:3X73LLYYQ2LIC0JF8C8NDZFZ4A0NHD", "dateTime": 1520545263577}, {"current_trial": 234, "trialdata": {"rt": -1, "trial_type": "single-stim", "stimulus": "<p id=\"stim\">2</p>", "internal_node_id": "0.0-172.0-8.0", "time_elapsed": 1084606, "key_press": -1, "trial_index": 234}, "uniqueid": "MTK3450:3X73LLYYQ2LIC0JF8C8NDZFZ4A0NHD", "dateTime": 1520545264580}, {"current_trial": 235, "trialdata": {"rt": -1, "trial_type": "single-stim", "stimulus": "<p id=\"stim\">1</p>", "internal_node_id": "0.0-172.0-9.0", "time_elapsed": 1085608, "key_press": -1, "trial_index": 235}, "uniqueid": "MTK3450:3X73LLYYQ2LIC0JF8C8NDZFZ4A0NHD", "dateTime": 1520545265582}, {"current_trial": 236, "trialdata": {"rt": -1, "trial_type": "single-stim", "stimulus": "<p id=\"stim\">+</p>", "internal_node_id": "0.0-173.0-0.0", "time_elapsed": 1087109, "key_press": -1, "type": "FIXATION", "trial_index": 236}, "uniqueid": "MTK3450:3X73LLYYQ2LIC0JF8C8NDZFZ4A0NHD", "dateTime": 1520545267083}, {"current_trial": 237, "trialdata": {"rt": -1000, "trial_type": "single-audio", "word": "waitress", "stimulus": "/static/audio/wordpool/WAITRESS.wav", "conditions": [12, 1600, "a", 12000], "internal_node_id": "0.0-174.0", "trial": 6, "time_elapsed": 1089878, "serialpos": 0, "key_press": -1, "wordID": 1580, "type": "PRES_AUD", "trial_index": 237}, "uniqueid": "MTK3450:3X73LLYYQ2LIC0JF8C8NDZFZ4A0NHD", "dateTime": 1520545269852}, {"current_trial": 238, "trialdata": {"rt": -1000, "trial_type": "single-audio", "word": "panther", "stimulus": "/static/audio/wordpool/PANTHER.wav", "conditions": [12, 1600, "a", 12000], "internal_node_id": "0.0-175.0", "trial": 6, "time_elapsed": 1092413, "serialpos": 1, "key_press": -1, "wordID": 1008, "type": "PRES_AUD", "trial_index": 238}, "uniqueid": "MTK3450:3X73LLYYQ2LIC0JF8C8NDZFZ4A0NHD", "dateTime": 1520545272387}, {"current_trial": 239, "t