{"assignmentId": "3A1PQ49WVIOFYTCQ3PAPGS2W2YS1HV", "workerId": "MTK3778", "questiondata": {"avail_screen_height": 773, "color_depth": 24, "screen_width": 1280, "pixel_depth": 24, "avail_screen_width": 1280, "screen_height": 800}, "bonus": 0, "hitId": "3J9L0X0VDFTDX4CGCZ6G7HYIT8Z9W5", "counterbalance": 2639, "useragent": "Mozilla/5.0 (Macintosh; Intel Mac OS X 10_11_1) AppleWebKit/537.36 (KHTML, like Gecko) Chrome/65.0.3325.162 Safari/537.36", "eventdata": [{"eventtype": "initialized", "interval": 0, "value": null, "timestamp": 1521387110625}, {"eventtype": "window_resize", "interval": 0, "value": [1280, 722], "timestamp": 1521387110625}, {"eventtype": "window_resize", "interval": 42256, "value": [1280, 772], "timestamp": 1521387152881}], "data": [{"current_trial": 0, "trialdata": {"rt": 3214, "trial_type": "text", "internal_node_id": "0.0-0.0", "time_elapsed": 3217, "key_press": 32, "type": "INSTRUCTIONS", "trial_index": 0}, "uniqueid": "MTK3778:3A1PQ49WVIOFYTCQ3PAPGS2W2YS1HV", "dateTime": 1521387155591}, {"current_trial": 1, "trialdata": {"rt": 38539, "trial_type": "text", "internal_node_id": "0.0-1.0", "time_elapsed": 41757, "key_press": 32, "type": "INSTRUCTIONS", "trial_index": 1}, "uniqueid": "MTK3778:3A1PQ49WVIOFYTCQ3PAPGS2W2YS1HV", "dateTime": 1521387194131}, {"current_trial": 2, "trialdata": {"rt": [12030], "trial_type": "audio-test", "responses": ["ocean"], "internal_node_id": "0.0-2.0", "time_elapsed": 53795, "type": "AUDIO_TEST", "trial_index": 2}, "uniqueid": "MTK3778:3A1PQ49WVIOFYTCQ3PAPGS2W2YS1HV", "dateTime": 1521387206169}, {"current_trial": 3, "trialdata": {"rt": [7579], "trial_type": "audio-test", "responses": ["crystal"], "internal_node_id": "0.0-3.0", "time_elapsed": 61379, "type": "AUDIO_TEST", "trial_index": 3}, "uniqueid": "MTK3778:3A1PQ49WVIOFYTCQ3PAPGS2W2YS1HV", "dateTime": 1521387213753}, {"current_trial": 4, "trialdata": {"rt": [4982], "trial_type": "audio-test", "responses": ["spice"], "internal_node_id": "0.0-4.0", "time_elapsed": 66363, "type": "AUDIO_TEST", "trial_index": 4}, "uniqueid": "MTK3778:3A1PQ49WVIOFYTCQ3PAPGS2W2YS1HV", "dateTime": 1521387218737}, {"current_trial": 5, "trialdata": {"rt": 31133, "trial_type": "survey-text", "responses": "{\"Q0\":\"9:20pm\",\"Q1\":\"3:15am\",\"Q2\":\"5\"}", "internal_node_id": "0.0-5.0", "time_elapsed": 98252, "type": "SLEEP_SURVEY", "trial_index": 5}, "uniqueid": "MTK3778:3A1PQ49WVIOFYTCQ3PAPGS2W2YS1HV", "dateTime": 1521387250626}, {"current_trial": 6, "trialdata": {"rt": 60849, "trial_type": "text", "internal_node_id": "0.0-6.0", "time_elapsed": 160106, "key_press": 32, "type": "INSTRUCTIONS", "trial_index": 6}, "uniqueid": "MTK3778:3A1PQ49WVIOFYTCQ3PAPGS2W2YS1HV", "dateTime": 1521387312480}, {"current_trial": 7, "trialdata": {"rt": 30189, "trial_type": "text", "internal_node_id": "0.0-7.0", "time_elapsed": 190800, "key_press": 32, "type": "INSTRUCTIONS", "trial_index": 7}, "uniqueid": "MTK3778:3A1PQ49WVIOFYTCQ3PAPGS2W2YS1HV", "dateTime": 1521387343174}, {"current_trial": 8, "trialdata": {"rt": 7699, "trial_type": "text", "internal_node_id": "0.0-8.0", "time_elapsed": 199002, "key_press": 32, "type": "INSTRUCTIONS", "trial_index": 8}, "uniqueid": "MTK3778:3A1PQ49WVIOFYTCQ3PAPGS2W2YS1HV", "dateTime": 1521387351376}, {"current_trial": 9, "trialdata": {"rt": [12080], "trial_type": "math-distractor", "key_times": [2677, 4935, 7104, 11231, 11389, 12080, 13439, 14016], "responses": ["24"], "num2": [9, 8], "num3": [8, 8], "conditions": [18, 1200, "a", 18000], "internal_node_id": "0.0-9.0", "key_presses": [91, 16, 16, 50, 52, 13, 91, 16], "trial": 0, "time_elapsed": 218014, "type": "DISTRACTOR", "trial_index": 9, "num1": [7, 8]}, "uniqueid": "MTK3778:3A1PQ49WVIOFYTCQ3PAPGS2W2YS1HV", "dateTime": 1521387370388}, {"current_trial": 10, "trialdata": {"rt": -1, "trial_type": "single-stim", "stimulus": "<p id=\"stim\">10</p>", "internal_node_id": "0.0-10.0-0.0", "time_elapsed": 221021, "key_press": -1, "trial_index": 10}, "uniqueid": "MTK3778:3A1PQ49WVIOFYTCQ3PAPGS2W2YS1HV", "dateTime": 1521387373395}, {"current_trial": 11, "trialdata": {"rt": -1, "trial_type": "single-stim", "stimulus": "<p id=\"stim\">9</p>", "internal_node_id": "0.0-10.0-1.0", "time_elapsed": 222026, "key_press": -1, "trial_index": 11}, "uniqueid": "MTK3778:3A1PQ49WVIOFYTCQ3PAPGS2W2YS1HV", "dateTime": 1521387374400}, {"current_trial": 12, "trialdata": {"rt": -1, "trial_type": "single-stim", "stimulus": "<p id=\"stim\">8</p>", "internal_node_id": "0.0-10.0-2.0", "time_elapsed": 223032, "key_press": -1, "trial_index": 12}, "uniqueid": "MTK3778:3A1PQ49WVIOFYTCQ3PAPGS2W2YS1HV", "dateTime": 1521387375406}, {"current_trial": 13, "trialdata": {"rt": -1, "trial_type": "single-stim", "stimulus": "<p id=\"stim\">7</p>", "internal_node_id": "0.0-10.0-3.0", "time_elapsed": 224038, "key_press": -1, "trial_index": 13}, "uniqueid": "MTK3778:3A1PQ49WVIOFYTCQ3PAPGS2W2YS1HV", "dateTime": 1521387376412}, {"current_trial": 14, "trialdata": {"rt": -1, "trial_type": "single-stim", "stimulus": "<p id=\"stim\">6</p>", "internal_node_id": "0.0-10.0-4.0", "time_elapsed": 225043, "key_press": -1, "trial_index": 14}, "uniqueid": "MTK3778:3A1PQ49WVIOFYTCQ3PAPGS2W2YS1HV", "dateTime": 1521387377417}, {"current_trial": 15, "trialdata": {"rt": -1, "trial_type": "single-stim", "stimulus": "<p id=\"stim\">5</p>", "internal_node_id": "0.0-10.0-5.0", "time_elapsed": 226049, "key_press": -1, "trial_index": 15}, "uniqueid": "MTK3778:3A1PQ49WVIOFYTCQ3PAPGS2W2YS1HV", "dateTime": 1521387378424}, {"current_trial": 16, "trialdata": {"rt": -1, "trial_type": "single-stim", "stimulus": "<p id=\"stim\">4</p>", "internal_node_id": "0.0-10.0-6.0", "time_elapsed": 227055, "key_press": -1, "trial_index": 16}, "uniqueid": "MTK3778:3A1PQ49WVIOFYTCQ3PAPGS2W2YS1HV", "dateTime": 1521387379429}, {"current_trial": 17, "trialdata": {"rt": -1, "trial_type": "single-stim", "stimulus": "<p id=\"stim\">3</p>", "internal_node_id": "0.0-10.0-7.0", "time_elapsed": 228062, "key_press": -1, "trial_index": 17}, "uniqueid": "MTK3778:3A1PQ49WVIOFYTCQ3PAPGS2W2YS1HV", "dateTime": 1521387380436}, {"current_trial": 18, "trialdata": {"rt": -1, "trial_type": "single-stim", "stimulus": "<p id=\"stim\">2</p>", "internal_node_id": "0.0-10.0-8.0", "time_elapsed": 229067, "key_press": -1, "trial_index": 18}, "uniqueid": "MTK3778:3A1PQ49WVIOFYTCQ3PAPGS2W2YS1HV", "dateTime": 1521387381441}, {"current_trial": 19, "trialdata": {"rt": -1, "trial_type": "single-stim", "stimulus": "<p id=\"stim\">1</p>", "internal_node_id": "0.0-10.0-9.0", "time_elapsed": 230073, "key_press": -1, "trial_index": 19}, "uniqueid": "MTK3778:3A1PQ49WVIOFYTCQ3PAPGS2W2YS1HV", "dateTime": 1521387382448}, {"current_trial": 20, "trialdata": {"rt": -1, "trial_type": "single-stim", "stimulus": "<p id=\"stim\">+</p>", "internal_node_id": "0.0-11.0-0.0", "time_elapsed": 231579, "key_press": -1, "type": "FIXATION", "trial_index": 20}, "uniqueid": "MTK3778:3A1PQ49WVIOFYTCQ3PAPGS2W2YS1HV", "dateTime": 1521387383953}, {"current_trial": 21, "trialdata": {"rt": -1000, "trial_type": "single-audio", "word": "treat", "stimulus": "/static/audio/wordpool/TREAT.wav", "conditions": [18, 1200, "a", 18000], "internal_node_id": "0.0-12.0", "trial": 0, "time_elapsed": 233721, "serialpos": 0, "key_press": -1, "wordID": 1500, "type": "PRES_AUD", "trial_index": 21}, "uniqueid": "MTK3778:3A1PQ49WVIOFYTCQ3PAPGS2W2YS1HV", "dateTime": 1521387386095}, {"current_trial": 22, "trialdata": {"rt": -1000, "trial_type": "single-audio", "word": "cousin", "stimulus": "/static/audio/wordpool/COUSIN.wav", "conditions": [18, 1200, "a", 18000], "internal_node_id": "0.0-13.0", "trial": 0, "time_elapsed": 236084, "serialpos": 1, "key_press": -1, "wordID": 391, "type": "PRES_AUD", "trial_index": 22}, "uniqueid": "MTK3778:3A1PQ49WVIOFYTCQ3PAPGS2W2YS1HV", "dateTime": 1521387388458}, {"current_trial": 23, "trialdata": {"rt": -1000, "trial_type": "single-audio", "word": "patrol", "stimulus": "/static/audio/wordpool/PATROL.wav", "conditions": [18, 1200, "a", 18000], "internal_node_id": "0.0-14.0", "trial": 0, "time_elapsed": 238319, "serialpos": 2, "key_press": -1, "wordID": 1026, "type": "PRES_AUD", "trial_index": 23}, "uniqueid": "MTK3778:3A1PQ49WVIOFYTCQ3PAPGS2W2YS1HV", "dateTime": 1521387390693}, {"current_trial": 24, "trialdata": {"rt": -1000, "trial_type": "single-audio", "word": "supper", "stimulus": "/static/audio/wordpool/SUPPER.wav", "conditions": [18, 1200, "a", 18000], "internal_node_id": "0.0-15.0", "trial": 0, "time_elapsed": 240328, "serialpos": 3, "key_press": -1, "wordID": 1410, "type": "PRES_AUD", "trial_index": 24}, "uniqueid": "MTK3778:3A1PQ49WVIOFYTCQ3PAPGS2W2YS1HV", "dateTime": 1521387392702}, {"current_trial": 25, "trialdata": {"rt": -1000, "trial_type": "single-audio", "word": "softball", "stimulus": "/static/audio/wordpool/SOFTBALL.wav", "conditions": [18, 1200, "a", 18000], "internal_node_id": "0.0-16.0", "trial": 0, "time_elapsed": 242661, "serialpos": 4, "key_press": -1, "wordID": 1342, "type": "PRES_AUD", "trial_index": 25}, "uniqueid": "MTK3778:3A1PQ49WVIOFYTCQ3PAPGS2W2YS1HV", "dateTime": 1521387395035}, {"current_trial": 26, "trialdata": {"rt": -1000, "trial_type": "single-audio", "word": "scallop", "stimulus": "/static/audio/wordpool/SCALLOP.wav", "conditions": [18, 1200, "a", 18000], "internal_node_id": "0.0-17.0", "trial": 0, "time_elapsed": 244809, "serialpos": 5, "key_press": -1, "wordID": 1241, "type": "PRES_AUD", "trial_index": 26}, "uniqueid": "MTK3778:3A1PQ49WVIOFYTCQ3PAPGS2W2YS1HV", "dateTime": 1521387397183}, {"current_trial": 27, "trialdata": {"rt": -1000, "trial_type": "single-audio", "word": "parent", "stimulus": "/static/audio/wordpool/PARENT.wav", "conditions": [18, 1200, "a", 18000], "internal_node_id": "0.0-18.0", "trial": 0, "time_elapsed": 246917, "serialpos": 6, "key_press": -1, "wordID": 1012, "type": "PRES_AUD", "trial_index": 27}, "uniqueid": "MTK3778:3A1PQ49WVIOFYTCQ3PAPGS2W2YS1HV", "dateTime": 1521387399291}, {"current_trial": 28, "trialdata": {"rt": -1000, "trial_type": "single-audio", "word": "dolphin", "stimulus": "/static/audio/wordpool/DOLPHIN.wav", "conditions": [18, 1200, "a", 18000], "internal_node_id": "0.0-19.0", "trial": 0, "time_elapsed": 249279, "serialpos": 7, "key_press": -1, "wordID": 482, "type": "PRES_AUD", "trial_index": 28}, "uniqueid": "MTK3778:3A1PQ49WVIOFYTCQ3PAPGS2W2YS1HV", "dateTime": 1521387401653}, {"current_trial": 29, "trialdata": {"rt": -1000, "trial_type": "single-audio", "word": "outlaw", "stimulus": "/static/audio/wordpool/OUTLAW.wav", "conditions": [18, 1200, "a", 18000], "internal_node_id": "0.0-20.0", "trial": 0, "time_elapsed": 251601, "serialpos": 8, "key_press": -1, "wordID": 988, "type": "PRES_AUD", "trial_index": 29}, "uniqueid": "MTK3778:3A1PQ49WVIOFYTCQ3PAPGS2W2YS1HV", "dateTime": 1521387403975}, {"current_trial": 30, "trialdata": {"rt": -1000, "trial_type": "single-audio", "word": "bubble", "stimulus": "/static/audio/wordpool/BUBBLE.wav", "conditions": [18, 1200, "a", 18000], "internal_node_id": "0.0-21.0", "trial": 0, "time_elapsed": 253972, "serialpos": 9, "key_press": -1, "wordID": 182, "type": "PRES_AUD", "trial_index": 30}, "uniqueid": "MTK3778:3A1PQ49WVIOFYTCQ3PAPGS2W2YS1HV", "dateTime": 1521387406346}, {"current_trial": 31, "trialdata": {"rt": -1000, "trial_type": "single-audio", "word": "tart", "stimulus": "/static/audio/wordpool/TART.wav", "conditions": [18, 1200, "a", 18000], "internal_node_id": "0.0-22.0", "trial": 0, "time_elapsed": 256273, "serialpos": 10, "key_press": -1, "wordID": 1435, "type": "PRES_AUD", "trial_index": 31}, "uniqueid": "MTK3778:3A1PQ49WVIOFYTCQ3PAPGS2W2YS1HV", "dateTime": 1521387408647}, {"current_trial": 32, "trialdata": {"rt": -1000, "trial_type": "single-audio", "word": "pliers", "stimulus": "/static/audio/wordpool/PLIERS.wav", "conditions": [18, 1200, "a", 18000], "internal_node_id": "0.0-23.0", "trial": 0, "time_elapsed": 258642, "serialpos": 11, "key_press": -1, "wordID": 1088, "type": "PRES_AUD", "trial_index": 32}, "uniqueid": "MTK3778:3A1PQ49WVIOFYTCQ3PAPGS2W2YS1HV", "dateTime": 1521387411016}, {"current_trial": 33, "trialdata": {"rt": -1000, "trial_type": "single-audio", "word": "sphinx", "stimulus": "/static/audio/wordpool/SPHINX.wav", "conditions": [18, 1200, "a", 18000], "internal_node_id": "0.0-24.0", "trial": 0, "time_elapsed": 260872, "serialpos": 12, "key_press": -1, "wordID": 1348, "type": "PRES_AUD", "trial_index": 33}, "uniqueid": "MTK3778:3A1PQ49WVIOFYTCQ3PAPGS2W2YS1HV", "dateTime": 1521387413246}, {"current_trial": 34, "trialdata": {"rt": -1000, "trial_type": "single-audio", "word": "maple", "stimulus": "/static/audio/wordpool/MAPLE.wav", "conditions": [18, 1200, "a", 18000], "internal_node_id": "0.0-25.0", "trial": 0, "time_elapsed": 262939, "serialpos": 13, "key_press": -1, "wordID": 865, "type": "PRES_AUD", "trial_index": 34}, "uniqueid": "MTK3778:3A1PQ49WVIOFYTCQ3PAPGS2W2YS1HV", "dateTime": 1521387415313}, {"current_trial": 35, "trialdata": {"rt": -1000, "trial_type": "single-audio", "word": "fleet", "stimulus": "/static/audio/wordpool/FLEET.wav", "conditions": [18, 1200, "a", 18000], "internal_node_id": "0.0-26.0", "trial": 0, "time_elapsed": 265046, "serialpos": 14, "key_press": -1, "wordID": 577, "type": "PRES_AUD", "trial_index": 35}, "uniqueid": "MTK3778:3A1PQ49WVIOFYTCQ3PAPGS2W2YS1HV", "dateTime": 1521387417420}, {"current_trial": 36, "trialdata": {"rt": -1000, "trial_type": "single-audio", "word": "banker", "stimulus": "/static/audio/wordpool/BANKER.wav", "conditions": [18, 1200, "a", 18000], "internal_node_id": "0.0-27.0", "trial": 0, "time_elapsed": 267072, "serialpos": 15, "key_press": -1, "wordID": 83, "type": "PRES_AUD", "trial_index": 36}, "uniqueid": "MTK3778:3A1PQ49WVIOFYTCQ3PAPGS2W2YS1HV", "dateTime": 1521387419446}, {"current_trial": 37, "trialdata": {"rt": -1000, "trial_type": "single-audio", "word": "snail", "stimulus": "/static/audio/wordpool/SNAIL.wav", "conditions": [18, 1200, "a", 18000], "internal_node_id": "0.0-28.0", "trial": 0, "time_elapsed": 269086, "serialpos": 16, "key_press": -1, "wordID": 1331, "type": "PRES_AUD", "trial_index": 37}, "uniqueid": "MTK3778:3A1PQ49WVIOFYTCQ3PAPGS2W2YS1HV", "dateTime": 1521387421460}, {"current_trial": 38, "trialdata": {"rt": -1000, "trial_type": "single-audio", "word": "pimple", "stimulus": "/static/audio/wordpool/PIMPLE.wav", "conditions": [18, 1200, "a", 18000], "internal_node_id": "0.0-29.0", "trial": 0, "time_elapsed": 271101, "serialpos": 17, "key_press": -1, "wordID": 1070, "type": "PRES_AUD", "trial_index": 38}, "uniqueid": "MTK3778:3A1PQ49WVIOFYTCQ3PAPGS2W2YS1HV", "dateTime": 1521387423475}, {"current_trial": 39, "trialdata": {"rt": -1, "trial_type": "single-stim", "stimulus": "", "internal_node_id": "0.0-30.0-0.0", "time_elapsed": 272343, "key_press": -1, "type": "PRE_RECALL_DELAY", "trial_index": 39}, "uniqueid": "MTK3778:3A1PQ49WVIOFYTCQ3PAPGS2W2YS1HV", "dateTime": 1521387424717}, {"current_trial": 40, "trialdata": {"rt": -1000, "trial_type": "single-audio", "stimulus": "/static/audio/400Hz.wav", "internal_node_id": "0.0-31.0", "time_elapsed": 272844, "key_press": -1, "type": "PRE_RECALL_ALERT", "trial_index": 40}, "uniqueid": "MTK3778:3A1PQ49WVIOFYTCQ3PAPGS2W2YS1HV", "dateTime": 1521387425218}, {"current_trial": 41, "trialdata": {"rt": [4474, 7597, 9291, 11493, 13733, 21169, 24124, 33819, 38828, 41572, 56485], "recwords": ["dolphin", "pimple", "dart", "cousin", "maple", "train", "apple", "maple", "fleet", "feet", "resolve"], "key_times": [1982, 2132, 2316, 2472, 3448, 3618, 3799, 4474, 5902, 6235, 6426, 6598, 6788, 7031, 7178, 7273, 7597, 8095, 8283, 8480, 8695, 9291, 9667, 9803, 10458, 10551, 10702, 11144, 11493, 12938, 13033, 13163, 13351, 13472, 13733, 20195, 20365, 20560, 20664, 20804, 21169, 23486, 23614, 23770, 23855, 23985, 24124, 30312, 30469, 30583, 32268, 32430, 32578, 33075, 33194, 33298, 33454, 33566, 33819, 37855, 38075, 38198, 38374, 38442, 38828, 40761, 40910, 41090, 41292, 41572, 50894, 51117, 52486, 53538, 53696, 53844, 54818, 55482, 56018, 56122, 56177, 56485], "trial_type": "free-recall", "conditions": [18, 1200, "a", 18000], "internal_node_id": "0.0-32.0-0.0", "key_presses": [68, 79, 76, 80, 72, 73, 78, 13, 73, 8, 80, 73, 77, 80, 76, 69, 13, 68, 65, 82, 84, 13, 67, 79, 85, 83, 73, 78, 13, 77, 65, 80, 76, 69, 13, 84, 82, 65, 73, 78, 13, 65, 80, 80, 76, 69, 13, 66, 82, 73, 8, 8, 8, 77, 65, 80, 76, 69, 13, 70, 76, 69, 69, 84, 13, 70, 69, 69, 84, 13, 82, 69, 83, 79, 86, 69, 8, 8, 76, 86, 69, 13], "trial": 0, "time_elapsed": 332851, "type": "FREE_RECALL", "trial_index": 41}, "uniqueid": "MTK3778:3A1PQ49WVIOFYTCQ3PAPGS2W2YS1HV", "dateTime": 1521387485227}, {"current_trial": 42, "trialdata": {"rt": 1427, "trial_type": "text", "internal_node_id": "0.0-33.0", "time_elapsed": 336281, "key_press": 32, "type": "INSTRUCTIONS", "trial_index": 42}, "uniqueid": "MTK3778:3A1PQ49WVIOFYTCQ3PAPGS2W2YS1HV", "dateTime": 1521387488655}, {"current_trial": 43, "trialdata": {"rt": [12608], "trial_type": "math-distractor", "key_times": [3839, 5540, 6294, 7426, 8738, 9688, 11150, 12137, 12277, 12608, 13597, 16860, 17807], "responses": ["13"], "num2": [1, 2], "num3": [5, 5], "conditions": [18, 1200, "a", 18000], "internal_node_id": "0.0-34.0", "key_presses": [91, 16, 16, 16, 16, 16, 91, 49, 51, 13, 91, 16, 16], "trial": 1, "time_elapsed": 356293, "type": "DISTRACTOR", "trial_index": 43, "num1": [7, 5]}, "uniqueid": "MTK3778:3A1PQ49WVIOFYTCQ3PAPGS2W2YS1HV", "dateTime": 1521387508667}, {"current_trial": 44, "trialdata": {"rt": -1, "trial_type": "single-stim", "stimulus": "<p id=\"stim\">10</p>", "internal_node_id": "0.0-35.0-0.0", "time_elapsed": 359303, "key_press": -1, "trial_index": 44}, "uniqueid": "MTK3778:3A1PQ49WVIOFYTCQ3PAPGS2W2YS1HV", "dateTime": 1521387511677}, {"current_trial": 45, "trialdata": {"rt": -1, "trial_type": "single-stim", "stimulus": "<p id=\"stim\">9</p>", "internal_node_id": "0.0-35.0-1.0", "time_elapsed": 360306, "key_press": -1, "trial_index": 45}, "uniqueid": "MTK3778:3A1PQ49WVIOFYTCQ3PAPGS2W2YS1HV", "dateTime": 1521387512681}, {"current_trial": 46, "trialdata": {"rt": -1, "trial_type": "single-stim", "stimulus": "<p id=\"stim\">8</p>", "internal_node_id": "0.0-35.0-2.0", "time_elapsed": 361311, "key_press": -1, "trial_index": 46}, "uniqueid": "MTK3778:3A1PQ49WVIOFYTCQ3PAPGS2W2YS1HV", "dateTime": 1521387513685}, {"current_trial": 47, "trialdata": {"rt": -1, "trial_type": "single-stim", "stimulus": "<p id=\"stim\">7</p>", "internal_node_id": "0.0-35.0-3.0", "time_elapsed": 362315, "key_press": -1, "trial_index": 47}, "uniqueid": "MTK3778:3A1PQ49WVIOFYTCQ3PAPGS2W2YS1HV", "dateTime": 1521387514689}, {"current_trial": 48, "trialdata": {"rt": -1, "trial_type": "single-stim", "stimulus": "<p id=\"stim\">6</p>", "internal_node_id": "0.0-35.0-4.0", "time_elapsed": 363319, "key_press": -1, "trial_index": 48}, "uniqueid": "MTK3778:3A1PQ49WVIOFYTCQ3PAPGS2W2YS1HV", "dateTime": 1521387515693}, {"current_trial": 49, "trialdata": {"rt": -1, "trial_type": "single-stim", "stimulus": "<p id=\"stim\">5</p>", "internal_node_id": "0.0-35.0-5.0", "time_elapsed": 364323, "key_press": -1, "trial_index": 49}, "uniqueid": "MTK3778:3A1PQ49WVIOFYTCQ3PAPGS2W2YS1HV", "dateTime": 1521387516697}, {"current_trial": 50, "trialdata": {"rt": -1, "trial_type": "single-stim", "stimulus": "<p id=\"stim\">4</p>", "internal_node_id": "0.0-35.0-6.0", "time_elapsed": 365327, "key_press": -1, "trial_index": 50}, "uniqueid": "MTK3778:3A1PQ49WVIOFYTCQ3PAPGS2W2YS1HV", "dateTime": 1521387517701}, {"current_trial": 51, "trialdata": {"rt": -1, "trial_type": "single-stim", "stimulus": "<p id=\"stim\">3</p>", "internal_node_id": "0.0-35.0-7.0", "time_elapsed": 366331, "key_press": -1, "trial_index": 51}, "uniqueid": "MTK3778:3A1PQ49WVIOFYTCQ3PAPGS2W2YS1HV", "dateTime": 1521387518705}, {"current_trial": 52, "trialdata": {"rt": -1, "trial_type": "single-stim", "stimulus": "<p id=\"stim\">2</p>", "internal_node_id": "0.0-35.0-8.0", "time_elapsed": 367335, "key_press": -1, "trial_index": 52}, "uniqueid": "MTK3778:3A1PQ49WVIOFYTCQ3PAPGS2W2YS1HV", "dateTime": 1521387519710}, {"current_trial": 53, "trialdata": {"rt": -1, "trial_type": "single-stim", "stimulus": "<p id=\"stim\">1</p>", "internal_node_id": "0.0-35.0-9.0", "time_elapsed": 368339, "key_press": -1, "trial_index": 53}, "uniqueid": "MTK3778:3A1PQ49WVIOFYTCQ3PAPGS2W2YS1HV", "dateTime": 1521387520714}, {"current_trial": 54, "trialdata": {"rt": -1, "trial_type": "single-stim", "stimulus": "<p id=\"stim\">+</p>", "internal_node_id": "0.0-36.0-0.0", "time_elapsed": 369843, "key_press": -1, "type": "FIXATION", "trial_index": 54}, "uniqueid": "MTK3778:3A1PQ49WVIOFYTCQ3PAPGS2W2YS1HV", "dateTime": 1521387522217}, {"current_trial": 55, "trialdata": {"rt": -1000, "trial_type": "single-audio", "word": "stove", "stimulus": "/static/audio/wordpool/STOVE.wav", "conditions": [18, 1200, "a", 18000], "internal_node_id": "0.0-37.0", "trial": 1, "time_elapsed": 371980, "serialpos": 0, "key_press": -1, "wordID": 1387, "type": "PRES_AUD", "trial_index": 55}, "uniqueid": "MTK3778:3A1PQ49WVIOFYTCQ3PAPGS2W2YS1HV", "dateTime": 1521387524354}, {"current_trial": 56, "trialdata": {"rt": -1000, "trial_type": "single-audio", "word": "turtle", "stimulus": "/static/audio/wordpool/TURTLE.wav", "conditions": [18, 1200, "a", 18000], "internal_node_id": "0.0-38.0", "trial": 1, "time_elapsed": 374163, "serialpos": 1, "key_press": -1, "wordID": 1521, "type": "PRES_AUD", "trial_index": 56}, "uniqueid": "MTK3778:3A1PQ49WVIOFYTCQ3PAPGS2W2YS1HV", "dateTime": 1521387526537}, {"current_trial": 57, "trialdata": {"rt": -1000, "trial_type": "single-audio", "word": "neutron", "stimulus": "/static/audio/wordpool/NEUTRON.wav", "conditions": [18, 1200, "a", 18000], "internal_node_id": "0.0-39.0", "trial": 1, "time_elapsed": 376371, "serialpos": 2, "key_press": -1, "wordID": 946, "type": "PRES_AUD", "trial_index": 57}, "uniqueid": "MTK3778:3A1PQ49WVIOFYTCQ3PAPGS2W2YS1HV", "dateTime": 1521387528745}, {"current_trial": 58, "trialdata": {"rt": -1000, "trial_type": "single-audio", "word": "gangster", "stimulus": "/static/audio/wordpool/GANGSTER.wav", "conditions": [18, 1200, "a", 18000], "internal_node_id": "0.0-40.0", "trial": 1, "time_elapsed": 378574, "serialpos": 3, "key_press": -1, "wordID": 619, "type": "PRES_AUD", "trial_index": 58}, "uniqueid": "MTK3778:3A1PQ49WVIOFYTCQ3PAPGS2W2YS1HV", "dateTime": 1521387530948}, {"current_trial": 59, "trialdata": {"rt": -1000, "trial_type": "single-audio", "word": "cattle", "stimulus": "/static/audio/wordpool/CATTLE.wav", "conditions": [18, 1200, "a", 18000], "internal_node_id": "0.0-41.0", "trial": 1, "time_elapsed": 380704, "serialpos": 4, "key_press": -1, "wordID": 260, "type": "PRES_AUD", "trial_index": 59}, "uniqueid": "MTK3778:3A1PQ49WVIOFYTCQ3PAPGS2W2YS1HV", "dateTime": 1521387533078}, {"current_trial": 60, "trialdata": {"rt": -1000, "trial_type": "single-audio", "word": "worker", "stimulus": "/static/audio/wordpool/WORKER.wav", "conditions": [18, 1200, "a", 18000], "internal_node_id": "0.0-42.0", "trial": 1, "time_elapsed": 382917, "serialpos": 5, "key_press": -1, "wordID": 1620, "type": "PRES_AUD", "trial_index": 60}, "uniqueid": "MTK3778:3A1PQ49WVIOFYTCQ3PAPGS2W2YS1HV", "dateTime": 1521387535291}, {"current_trial": 61, "trialdata": {"rt": -1000, "trial_type": "single-audio", "word": "twister", "stimulus": "/static/audio/wordpool/TWISTER.wav", "conditions": [18, 1200, "a", 18000], "internal_node_id": "0.0-43.0", "trial": 1, "time_elapsed": 385075, "serialpos": 6, "key_press": -1, "wordID": 1529, "type": "PRES_AUD", "trial_index": 61}, "uniqueid": "MTK3778:3A1PQ49WVIOFYTCQ3PAPGS2W2YS1HV", "dateTime": 1521387537449}, {"current_trial": 62, "trialdata": {"rt": -1000, "trial_type": "single-audio", "word": "summit", "stimulus": "/static/audio/wordpool/SUMMIT.wav", "conditions": [18, 1200, "a", 18000], "internal_node_id": "0.0-44.0", "trial": 1, "time_elapsed": 387386, "serialpos": 7, "key_press": -1, "wordID": 1404, "type": "PRES_AUD", "trial_index": 62}, "uniqueid": "MTK3778:3A1PQ49WVIOFYTCQ3PAPGS2W2YS1HV", "dateTime": 1521387539760}, {"current_trial": 63, "trialdata": {"rt": -1000, "trial_type": "single-audio", "word": "film", "stimulus": "/static/audio/wordpool/FILM.wav", "conditions": [18, 1200, "a", 18000], "internal_node_id": "0.0-45.0", "trial": 1, "time_elapsed": 389438, "serialpos": 8, "key_press": -1, "wordID": 564, "type": "PRES_AUD", "trial_index": 63}, "uniqueid": "MTK3778:3A1PQ49WVIOFYTCQ3PAPGS2W2YS1HV", "dateTime": 1521387541812}, {"current_trial": 64, "trialdata": {"rt": -1000, "trial_type": "single-audio", "word": "lizard", "stimulus": "/static/audio/wordpool/LIZARD.wav", "conditions": [18, 1200, "a", 18000], "internal_node_id": "0.0-46.0", "trial": 1, "time_elapsed": 391621, "serialpos": 9, "key_press": -1, "wordID": 833, "type": "PRES_AUD", "trial_index": 64}, "uniqueid": "MTK3778:3A1PQ49WVIOFYTCQ3PAPGS2W2YS1HV", "dateTime": 1521387543995}, {"current_trial": 65, "trialdata": {"rt": -1000, "trial_type": "single-audio", "word": "atlas", "stimulus": "/static/audio/wordpool/ATLAS.wav", "conditions": [18, 1200, "a", 18000], "internal_node_id": "0.0-47.0", "trial": 1, "time_elapsed": 393776, "serialpos": 10, "key_press": -1, "wordID": 52, "type": "PRES_AUD", "trial_index": 65}, "uniqueid": "MTK3778:3A1PQ49WVIOFYTCQ3PAPGS2W2YS1HV", "dateTime": 1521387546150}, {"current_trial": 66, "trialdata": {"rt": -1000, "trial_type": "single-audio", "word": "skillet", "stimulus": "/static/audio/wordpool/SKILLET.wav", "conditions": [18, 1200, "a", 18000], "internal_node_id": "0.0-48.0", "trial": 1, "time_elapsed": 395821, "serialpos": 11, "key_press": -1, "wordID": 1316, "type": "PRES_AUD", "trial_index": 66}, "uniqueid": "MTK3778:3A1PQ49WVIOFYTCQ3PAPGS2W2YS1HV", "dateTime": 1521387548195}, {"current_trial": 67, "trialdata": {"rt": -1000, "trial_type": "single-audio", "word": "binder", "stimulus": "/static/audio/wordpool/BINDER.wav", "conditions": [18, 1200, "a", 18000], "internal_node_id": "0.0-49.0", "trial": 1, "time_elapsed": 398184, "serialpos": 12, "key_press": -1, "wordID": 126, "type": "PRES_AUD", "trial_index": 67}, "uniqueid": "MTK3778:3A1PQ49WVIOFYTCQ3PAPGS2W2YS1HV", "dateTime": 1521387550558}, {"current_trial": 68, "trialdata": {"rt": -1000, "trial_type": "single-audio", "word": "whiskers", "stimulus": "/static/audio/wordpool/WHISKERS.wav", "conditions": [18, 1200, "a", 18000], "internal_node_id": "0.0-50.0", "trial": 1, "time_elapsed": 400547, "serialpos": 13, "key_press": -1, "wordID": 1604, "type": "PRES_AUD", "trial_index": 68}, "uniqueid": "MTK3778:3A1PQ49WVIOFYTCQ3PAPGS2W2YS1HV", "dateTime": 1521387552921}, {"current_trial": 69, "trialdata": {"rt": -1000, "trial_type": "single-audio", "word": "wife", "stimulus": "/static/audio/wordpool/WIFE.wav", "conditions": [18, 1200, "a", 18000], "internal_node_id": "0.0-51.0", "trial": 1, "time_elapsed": 402710, "serialpos": 14, "key_press": -1, "wordID": 1608, "type": "PRES_AUD", "trial_index": 69}, "uniqueid": "MTK3778:3A1PQ49WVIOFYTCQ3PAPGS2W2YS1HV", "dateTime": 1521387555084}, {"current_trial": 70, "trialdata": {"rt": -1000, "trial_type": "single-audio", "word": "servant", "stimulus": "/static/audio/wordpool/SERVANT.wav", "conditions": [18, 1200, "a", 18000], "internal_node_id": "0.0-52.0", "trial": 1, "time_elapsed": 404912, "serialpos": 15, "key_press": -1, "wordID": 1270, "type": "PRES_AUD", "trial_index": 70}, "uniqueid": "MTK3778:3A1PQ49WVIOFYTCQ3PAPGS2W2YS1HV", "dateTime": 1521387557286}, {"current_trial": 71, "trialdata": {"rt": -1000, "trial_type": "single-audio", "word": "slug", "stimulus": "/static/audio/wordpool/SLUG.wav", "conditions": [18, 1200, "a", 18000], "internal_node_id": "0.0-53.0", "trial": 1, "time_elapsed": 407269, "serialpos": 16, "key_press": -1, "wordID": 1328, "type": "PRES_AUD", "trial_index": 71}, "uniqueid": "MTK3778:3A1PQ49WVIOFYTCQ3PAPGS2W2YS1HV", "dateTime": 1521387559644}, {"current_trial": 72, "trialdata": {"rt": -1000, "trial_type": "single-audio", "word": "cashew", "stimulus": "/static/audio/wordpool/CASHEW.wav", "conditions": [18, 1200, "a", 18000], "internal_node_id": "0.0-54.0", "trial": 1, "time_elapsed": 409499, "serialpos": 17, "key_press": -1, "wordID": 252, "type": "PRES_AUD", "trial_index": 72}, "uniqueid": "MTK3778:3A1PQ49WVIOFYTCQ3PAPGS2W2YS1HV", "dateTime": 1521387561873}, {"current_trial": 73, "trialdata": {"rt": -1, "trial_type": "single-stim", "stimulus": "", "internal_node_id": "0.0-55.0-0.0", "time_elapsed": 410816, "key_press": -1, "type": "PRE_RECALL_DELAY", "trial_index": 73}, "uniqueid": "MTK3778:3A1PQ49WVIOFYTCQ3PAPGS2W2YS1HV", "dateTime": 1521387563190}, {"current_trial": 74, "trialdata": {"rt": -1000, "trial_type": "single-audio", "stimulus": "/static/audio/400Hz.wav", "internal_node_id": "0.0-56.0", "time_elapsed": 411318, "key_press": -1, "type": "PRE_RECALL_ALERT", "trial_index": 74}, "uniqueid": "MTK3778:3A1PQ49WVIOFYTCQ3PAPGS2W2YS1HV", "dateTime": 1521387563692}, {"current_trial": 75, "trialdata": {"rt": [4465, 7547, 9368, 21344, 25585, 28903, 44174, 53212], "recwords": ["cashew", "worker", "slug", "turtle", "nature", "slug", "happy", "faster"], "key_times": [1314, 1484, 1647, 1718, 2065, 2227, 2383, 3077, 3359, 3684, 3818, 4019, 4465, 4879, 5072, 5231, 5333, 5872, 6047, 6157, 6685, 6826, 6982, 7097, 7335, 7547, 7985, 8235, 8586, 8774, 9368, 10214, 10254, 10329, 11088, 11226, 11610, 11750, 12172, 12301, 12483, 12674, 12837, 13005, 13149, 13213, 13459, 13577, 14184, 14329, 14501, 16236, 16378, 16888, 17048, 17239, 17365, 17813, 18031, 18354, 19056, 19212, 19965, 20408, 20687, 20857, 20987, 21344, 24647, 24765, 24892, 25084, 25164, 25364, 25585, 27888, 28043, 28307, 28520, 28903, 40551, 40649, 40845, 41199, 41357, 41947, 42117, 42283, 42449, 42621, 43073, 43228, 43365, 43520, 43767, 44174, 51961, 52107, 52236, 52368, 52477, 52660, 53212, 59861], "trial_type": "free-recall", "conditions": [18, 1200, "a", 18000], "internal_node_id": "0.0-57.0-0.0", "key_presses": [67, 65, 65, 83, 8, 8, 8, 65, 83, 72, 69, 87, 13, 87, 79, 82, 75, 73, 78, 71, 8, 8, 8, 69, 82, 13, 83, 76, 85, 71, 13, 84, 82, 85, 8, 8, 85, 84, 84, 76, 69, 8, 8, 8, 8, 82, 76, 69, 8, 8, 8, 85, 84, 8, 8, 8, 69, 8, 82, 84, 8, 8, 85, 82, 84, 76, 69, 13, 78, 65, 84, 85, 82, 69, 13, 83, 76, 85, 71, 13, 78, 65, 84, 85, 82, 8, 8, 8, 8, 8, 72, 65, 80, 80, 89, 13, 70, 65, 83, 84, 69, 82, 13, 84], "trial": 1, "time_elapsed": 471327, "type": "FREE_RECALL", "trial_index": 75}, "uniqueid": "MTK3778:3A1PQ49WVIOFYTCQ3PAPGS2W2YS1HV", "dateTime": 1521387623702}, {"current_trial": 76, "trialdata": {"rt": 1712, "trial_type": "text", "internal_node_id": "0.0-58.0", "time_elapsed": 475047, "key_press": 32, "type": "INSTRUCTIONS", "trial_index": 76}, "uniqueid": "MTK3778:3A1PQ49WVIOFYTCQ3PAPGS2W2YS1HV", "dateTime": 1521387627421}, {"current_trial": 77, "trialdata": {"rt": [2990, 8865, 13114, 15804, 21837], "trial_type": "math-distractor", "key_times": [2644, 2990, 7700, 8649, 8865, 12794, 12879, 13114, 15484, 15589, 15804, 21476, 21546, 21837], "responses": ["6", "11", "12", "12", "19"], "num2": [2, 9, 5, 3, 7, 2], "num3": [3, 9, 2, 1, 9, 4], "conditions": [24, 800, "a", 24000], "internal_node_id": "0.0-59.0", "key_presses": [54, 13, 49, 49, 13, 49, 50, 13, 49, 50, 13, 49, 57, 13], "trial": 2, "time_elapsed": 500056, "type": "DISTRACTOR", "trial_index": 77, "num1": [2, 1, 6, 8, 4, 1]}, "uniqueid": "MTK3778:3A1PQ49WVIOFYTCQ3PAPGS2W2YS1HV", "dateTime": 1521387652431}, {"current_trial": 78, "trialdata": {"rt": -1, "trial_type": "single-stim", "stimulus": "<p id=\"stim\">10</p>", "internal_node_id": "0.0-60.0-0.0", "time_elapsed": 503063, "key_press": -1, "trial_index": 78}, "uniqueid": "MTK3778:3A1PQ49WVIOFYTCQ3PAPGS2W2YS1HV", "dateTime": 1521387655437}, {"current_trial": 79, "trialdata": {"rt": -1, "trial_type": "single-stim", "stimulus": "<p id=\"stim\">9</p>", "internal_node_id": "0.0-60.0-1.0", "time_elapsed": 504068, "key_press": -1, "trial_index": 79}, "uniqueid": "MTK3778:3A1PQ49WVIOFYTCQ3PAPGS2W2YS1HV", "dateTime": 1521387656442}, {"current_trial": 80, "trialdata": {"rt": -1, "trial_type": "single-stim", "stimulus": "<p id=\"stim\">8</p>", "internal_node_id": "0.0-60.0-2.0", "time_elapsed": 505072, "key_press": -1, "trial_index": 80}, "uniqueid": "MTK3778:3A1PQ49WVIOFYTCQ3PAPGS2W2YS1HV", "dateTime": 1521387657446}, {"current_trial": 81, "trialdata": {"rt": -1, "trial_type": "single-stim", "stimulus": "<p id=\"stim\">7</p>", "internal_node_id": "0.0-60.0-3.0", "time_elapsed": 506077, "key_press": -1, "trial_index": 81}, "uniqueid": "MTK3778:3A1PQ49WVIOFYTCQ3PAPGS2W2YS1HV", "dateTime": 1521387658452}, {"current_trial": 82, "trialdata": {"rt": -1, "trial_type": "single-stim", "stimulus": "<p id=\"stim\">6</p>", "internal_node_id": "0.0-60.0-4.0", "time_elapsed": 507082, "key_press": -1, "trial_index": 82}, "uniqueid": "MTK3778:3A1PQ49WVIOFYTCQ3PAPGS2W2YS1HV", "dateTime": 1521387659456}, {"current_trial": 83, "trialdata": {"rt": -1, "trial_type": "single-stim", "stimulus": "<p id=\"stim\">5</p>", "internal_node_id": "0.0-60.0-5.0", "time_elapsed": 508087, "key_press": -1, "trial_index": 83}, "uniqueid": "MTK3778:3A1PQ49WVIOFYTCQ3PAPGS2W2YS1HV", "dateTime": 1521387660462}, {"current_trial": 84, "trialdata": {"rt": -1, "trial_type": "single-stim", "stimulus": "<p id=\"stim\">4</p>", "internal_node_id": "0.0-60.0-6.0", "time_elapsed": 509094, "key_press": -1, "trial_index": 84}, "uniqueid": "MTK3778:3A1PQ49WVIOFYTCQ3PAPGS2W2YS1HV", "dateTime": 1521387661468}, {"current_trial": 85, "trialdata": {"rt": -1, "trial_type": "single-stim", "stimulus": "<p id=\"stim\">3</p>", "internal_node_id": "0.0-60.0-7.0", "time_elapsed": 510098, "key_press": -1, "trial_index": 85}, "uniqueid": "MTK3778:3A1PQ49WVIOFYTCQ3PAPGS2W2YS1HV", "dateTime": 1521387662472}, {"current_trial": 86, "trialdata": {"rt": -1, "trial_type": "single-stim", "stimulus": "<p id=\"stim\">2</p>", "internal_node_id": "0.0-60.0-8.0", "time_elapsed": 511104, "key_press": -1, "trial_index": 86}, "uniqueid": "MTK3778:3A1PQ49WVIOFYTCQ3PAPGS2W2YS1HV", "dateTime": 1521387663478}, {"current_trial": 87, "trialdata": {"rt": -1, "trial_type": "single-stim", "stimulus": "<p id=\"stim\">1</p>", "internal_node_id": "0.0-60.0-9.0", "time_elapsed": 512109, "key_press": -1, "trial_index": 87}, "uniqueid": "MTK3778:3A1PQ49WVIOFYTCQ3PAPGS2W2YS1HV", "dateTime": 1521387664483}, {"current_trial": 88, "trialdata": {"rt": -1, "trial_type": "single-stim", "stimulus": "<p id=\"stim\">+</p>", "internal_node_id": "0.0-61.0-0.0", "time_elapsed": 513616, "key_press": -1, "type": "FIXATION", "trial_index": 88}, "uniqueid": "MTK3778:3A1PQ49WVIOFYTCQ3PAPGS2W2YS1HV", "dateTime": 1521387665990}, {"current_trial": 89, "trialdata": {"rt": -1000, "trial_type": "single-audio", "word": "possum", "stimulus": "/static/audio/wordpool/POSSUM.wav", "conditions": [24, 800, "a", 24000], "internal_node_id": "0.0-62.0", "trial": 2, "time_elapsed": 515427, "serialpos": 0, "key_press": -1, "wordID": 1111, "type": "PRES_AUD", "trial_index": 89}, "uniqueid": "MTK3778:3A1PQ49WVIOFYTCQ3PAPGS2W2YS1HV", "dateTime": 1521387667801}, {"current_trial": 90, "trialdata": {"rt": -1000, "trial_type": "single-audio", "word": "blender", "stimulus": "/static/audio/wordpool/BLENDER.wav", "conditions": [24, 800, "a", 24000], "internal_node_id": "0.0-63.0", "trial": 2, "time_elapsed": 517272, "serialpos": 1, "key_press": -1, "wordID": 135, "type": "PRES_AUD", "trial_index": 90}, "uniqueid": "MTK3778:3A1PQ49WVIOFYTCQ3PAPGS2W2YS1HV", "dateTime": 1521387669646}, {"current_trial": 91, "trialdata": {"rt": -1000, "trial_type": "single-audio", "word": "mailbox", "stimulus": "/static/audio/wordpool/MAILBOX.wav", "conditions": [24, 800, "a", 24000], "internal_node_id": "0.0-64.0", "trial": 2, "time_elapsed": 519071, "serialpos": 2, "key_press": -1, "wordID": 856, "type": "PRES_AUD", "trial_index": 91}, "uniqueid": "MTK3778:3A1PQ49WVIOFYTCQ3PAPGS2W2YS1HV", "dateTime": 1521387671445}, {"current_trial": 92, "trialdata": {"rt": -1000, "trial_type": "single-audio", "word": "wrist", "stimulus": "/static/audio/wordpool/WRIST.wav", "conditions": [24, 800, "a", 24000], "internal_node_id": "0.0-65.0", "trial": 2, "time_elapsed": 521005, "serialpos": 3, "key_press": -1, "wordID": 1625, "type": "PRES_AUD", "trial_index": 92}, "uniqueid": "MTK3778:3A1PQ49WVIOFYTCQ3PAPGS2W2YS1HV", "dateTime": 1521387673379}, {"current_trial": 93, "trialdata": {"rt": -1000, "trial_type": "single-audio", "word": "item", "stimulus": "/static/audio/wordpool/ITEM.wav", "conditions": [24, 800, "a", 24000], "internal_node_id": "0.0-66.0", "trial": 2, "time_elapsed": 522637, "serialpos": 4, "key_press": -1, "wordID": 745, "type": "PRES_AUD", "trial_index": 93}, "uniqueid": "MTK3778:3A1PQ49WVIOFYTCQ3PAPGS2W2YS1HV", "dateTime": 1521387675011}, {"current_trial": 94, "trialdata": {"rt": -1000, "trial_type": "single-audio", "word": "statue", "stimulus": "/static/audio/wordpool/STATUE.wav", "conditions": [24, 800, "a", 24000], "internal_node_id": "0.0-67.0", "trial": 2, "time_elapsed": 524553, "serialpos": 5, "key_press": -1, "wordID": 1373, "type": "PRES_AUD", "trial_index": 94}, "uniqueid": "MTK3778:3A1PQ49WVIOFYTCQ3PAPGS2W2YS1HV", "dateTime": 1521387676927}, {"current_trial": 95, "trialdata": {"rt": 56.73469387761543, "trial_type": "single-audio", "word": "headband", "stimulus": "/static/audio/wordpool/HEADBAND.wav", "conditions": [24, 800, "a", 24000], "internal_node_id": "0.0-68.0", "trial": 2, "time_elapsed": 526399, "serialpos": 6, "key_press": 87, "wordID": 695, "type": "PRES_AUD", "trial_index": 95}, "uniqueid": "MTK3778:3A1PQ49WVIOFYTCQ3PAPGS2W2YS1HV", "dateTime": 1521387678773}, {"current_trial": 96, "trialdata": {"rt": -1000, "trial_type": "single-audio", "word": "kitchen", "stimulus": "/static/audio/wordpool/KITCHEN.wav", "conditions": [24, 800, "a", 24000], "internal_node_id": "0.0-69.0", "trial": 2, "time_elapsed": 528372, "serialpos": 7, "key_press": -1, "wordID": 777, "type": "PRES_AUD", "trial_index": 96}, "uniqueid": "MTK3778:3A1PQ49WVIOFYTCQ3PAPGS2W2YS1HV", "dateTime": 1521387680746}, {"current_trial": 97, "trialdata": {"rt": 950.702947845798, "trial_type": "single-audio", "word": "cook", "stimulus": "/static/audio/wordpool/COOK.wav", "conditions": [24, 800, "a", 24000], "internal_node_id": "0.0-70.0", "trial": 2, "time_elapsed": 530154, "serialpos": 8, "key_press": 77, "wordID": 371, "type": "PRES_AUD", "trial_index": 97}, "uniqueid": "MTK3778:3A1PQ49WVIOFYTCQ3PAPGS2W2YS1HV", "dateTime": 1521387682528}, {"current_trial": 98, "trialdata": {"rt": -1000, "trial_type": "single-audio", "word": "luggage", "stimulus": "/static/audio/wordpool/LUGGAGE.wav", "conditions": [24, 800, "a", 24000], "internal_node_id": "0.0-71.0", "trial": 2, "time_elapsed": 532087, "serialpos": 9, "key_press": -1, "wordID": 846, "type": "PRES_AUD", "trial_index": 98}, "uniqueid": "MTK3778:3A1PQ49WVIOFYTCQ3PAPGS2W2YS1HV", "dateTime": 1521387684462}, {"current_trial": 99, "trialdata": {"rt": -1000, "trial_type": "single-audio", "word": "lion", "stimulus": "/static/audio/wordpool/LION.wav", "conditions": [24, 800, "a", 24000], "internal_node_id": "0.0-72.0", "trial": 2, "time_elapsed": 534038, "serialpos": 10, "key_press": -1, "wordID": 826, "type": "PRES_AUD", "trial_index": 99}, "uniqueid": "MTK3778:3A1PQ49WVIOFYTCQ3PAPGS2W2YS1HV", "dateTime": 1521387686412}, {"current_trial": 100, "trialdata": {"rt": -1000, "trial_type": "single-audio", "word": "mailman", "stimulus": "/static/audio/wordpool/MAILMAN.wav", "conditions": [24, 800, "a", 24000], "internal_node_id": "0.0-73.0", "trial": 2, "time_elapsed": 535960, "serialpos": 11, "key_press": -1, "wordID": 857, "type": "PRES_AUD", "trial_index": 100}, "uniqueid": "MTK3778:3A1PQ49WVIOFYTCQ3PAPGS2W2YS1HV", "dateTime": 1521387688334}, {"current_trial": 101, "trialdata": {"rt": -1000, "trial_type": "single-audio", "word": "outdoors", "stimulus": "/static/audio/wordpool/OUTDOORS.wav", "conditions": [24, 800, "a", 24000], "internal_node_id": "0.0-74.0", "trial": 2, "time_elapsed": 537800, "serialpos": 12, "key_press": -1, "wordID": 986, "type": "PRES_AUD", "trial_index": 101}, "uniqueid": "MTK3778:3A1PQ49WVIOFYTCQ3PAPGS2W2YS1HV", "dateTime": 1521387690174}, {"current_trial": 102, "trialdata": {"rt": -1000, "trial_type": "single-audio", "word": "padding", "stimulus": "/static/audio/wordpool/PADDING.wav", "conditions": [24, 800, "a", 24000], "internal_node_id": "0.0-75.0", "trial": 2, "time_elapsed": 539652, "serialpos": 13, "key_press": -1, "wordID": 998, "type": "PRES_AUD", "trial_index": 102}, "uniqueid": "MTK3778:3A1PQ49WVIOFYTCQ3PAPGS2W2YS1HV", "dateTime": 1521387692026}, {"current_trial": 103, "trialdata": {"rt": -1000, "trial_type": "single-audio", "word": "pork", "stimulus": "/static/audio/wordpool/PORK.wav", "conditions": [24, 800, "a", 24000], "internal_node_id": "0.0-76.0", "trial": 2, "time_elapsed": 541638, "serialpos": 14, "key_press": -1, "wordID": 1107, "type": "PRES_AUD", "trial_index": 103}, "uniqueid": "MTK3778:3A1PQ49WVIOFYTCQ3PAPGS2W2YS1HV", "dateTime": 1521387694012}, {"current_trial": 104, "trialdata": {"rt": -1000, "trial_type": "single-audio", "word": "gift", "stimulus": "/static/audio/wordpool/GIFT.wav", "conditions": [24, 800, "a", 24000], "internal_node_id": "0.0-77.0", "trial": 2, "time_elapsed": 543629, "serialpos": 15, "key_press": -1, "wordID": 634, "type": "PRES_AUD", "trial_index": 104}, "uniqueid": "MTK3778:3A1PQ49WVIOFYTCQ3PAPGS2W2YS1HV", "dateTime": 1521387696003}, {"current_trial": 105, "trialdata": {"rt": -1000, "trial_type": "single-audio", "word": "daughter", "stimulus": "/static/audio/wordpool/DAUGHTER.wav", "conditions": [24, 800, "a", 24000], "internal_node_id": "0.0-78.0", "trial": 2, "time_elapsed": 545406, "serialpos": 16, "key_press": -1, "wordID": 441, "type": "PRES_AUD", "trial_index": 105}, "uniqueid": "MTK3778:3A1PQ49WVIOFYTCQ3PAPGS2W2YS1HV", "dateTime": 1521387697780}, {"current_trial": 106, "trialdata": {"rt": -1000, "trial_type": "single-audio", "word": "pizza", "stimulus": "/static/audio/wordpool/PIZZA.wav", "conditions": [24, 800, "a", 24000], "internal_node_id": "0.0-79.0", "trial": 2, "time_elapsed": 547083, "serialpos": 17, "key_press": -1, "wordID": 1078, "type": "PRES_AUD", "trial_index": 106}, "uniqueid": "MTK3778:3A1PQ49WVIOFYTCQ3PAPGS2W2YS1HV", "dateTime": 1521387699457}, {"current_trial": 107, "trialdata": {"rt": -1000, "trial_type": "single-audio", "word": "diner", "stimulus": "/static/audio/wordpool/DINER.wav", "conditions": [24, 800, "a", 24000], "internal_node_id": "0.0-80.0", "trial": 2, "time_elapsed": 548743, "serialpos": 18, "key_press": -1, "wordID": 466, "type": "PRES_AUD", "trial_index": 107}, "uniqueid": "MTK3778:3A1PQ49WVIOFYTCQ3PAPGS2W2YS1HV", "dateTime": 1521387701117}, {"current_trial": 108, "trialdata": {"rt": -1000, "trial_type": "single-audio", "word": "slide", "stimulus": "/static/audio/wordpool/SLIDE.wav", "conditions": [24, 800, "a", 24000], "internal_node_id": "0.0-81.0", "trial": 2, "time_elapsed": 550647, "serialpos": 19, "key_press": -1, "wordID": 1325, "type": "PRES_AUD", "trial_index": 108}, "uniqueid": "MTK3778:3A1PQ49WVIOFYTCQ3PAPGS2W2YS1HV", "dateTime": 1521387703021}, {"current_trial": 109, "trialdata": {"rt": -1000, "trial_type": "single-audio", "word": "beef", "stimulus": "/static/audio/wordpool/BEEF.wav", "conditions": [24, 800, "a", 24000], "internal_node_id": "0.0-82.0", "trial": 2, "time_elapsed": 552424, "serialpos": 20, "key_press": -1, "wordID": 112, "type": "PRES_AUD", "trial_index": 109}, "uniqueid": "MTK3778:3A1PQ49WVIOFYTCQ3PAPGS2W2YS1HV", "dateTime": 1521387704798}, {"current_trial": 110, "trialdata": {"rt": -1000, "trial_type": "single-audio", "word": "chemist", "stimulus": "/static/audio/wordpool/CHEMIST.wav", "conditions": [24, 800, "a", 24000], "internal_node_id": "0.0-83.0", "trial": 2, "time_elapsed": 554159, "serialpos": 21, "key_press": -1, "wordID": 291, "type": "PRES_AUD", "trial_index": 110}, "uniqueid": "MTK3778:3A1PQ49WVIOFYTCQ3PAPGS2W2YS1HV", "dateTime": 1521387706533}, {"current_trial": 111, "trialdata": {"rt": -1000, "trial_type": "single-audio", "word": "dashboard", "stimulus": "/static/audio/wordpool/DASHBOARD.wav", "conditions": [24, 800, "a", 24000], "internal_node_id": "0.0-84.0", "trial": 2, "time_elapsed": 556098, "serialpos": 22, "key_press": -1, "wordID": 440, "type": "PRES_AUD", "trial_index": 111}, "uniqueid": "MTK3778:3A1PQ49WVIOFYTCQ3PAPGS2W2YS1HV", "dateTime": 1521387708472}, {"current_trial": 112, "trialdata": {"rt": -1000, "trial_type": "single-audio", "word": "tribe", "stimulus": "/static/audio/wordpool/TRIBE.wav", "conditions": [24, 800, "a", 24000], "internal_node_id": "0.0-85.0", "trial": 2, "time_elapsed": 557911, "serialpos": 23, "key_press": -1, "wordID": 1504, "type": "PRES_AUD", "trial_index": 112}, "uniqueid": "MTK3778:3A1PQ49WVIOFYTCQ3PAPGS2W2YS1HV", "dateTime": 1521387710285}, {"current_trial": 113, "trialdata": {"rt": -1, "trial_type": "single-stim", "stimulus": "", "internal_node_id": "0.0-86.0-0.0", "time_elapsed": 559286, "key_press": -1, "type": "PRE_RECALL_DELAY", "trial_index": 113}, "uniqueid": "MTK3778:3A1PQ49WVIOFYTCQ3PAPGS2W2YS1HV", "dateTime": 1521387711660}, {"current_trial": 114, "trialdata": {"rt": -1000, "trial_type": "single-audio", "stimulus": "/static/audio/400Hz.wav", "internal_node_id": "0.0-87.0", "time_elapsed": 559787, "key_press": -1, "type": "PRE_RECALL_ALERT", "trial_index": 114}, "uniqueid": "MTK3778:3A1PQ49WVIOFYTCQ3PAPGS2W2YS1HV", "dateTime": 1521387712161}, {"current_trial": 115, "trialdata": {"rt": [2282, 3796, 7026, 9926, 12119, 21395, 24706, 38220, 43645, 54559, 59097], "recwords": ["possum", "blender", "mailman", "outdoors", "beef", "dashboard", "gift", "blender", "outdoors", "trying", "wish"], "key_times": [822, 1098, 1253, 1401, 1600, 1770, 2282, 2605, 2795, 2908, 3038, 3132, 3302, 3494, 3796, 4291, 4443, 4616, 4975, 5134, 5265, 5543, 5698, 5795, 5954, 6359, 6427, 6640, 7026, 7509, 7707, 7908, 8285, 8430, 8571, 8667, 8978, 9926, 10830, 10940, 11098, 11294, 12119, 19173, 19304, 19504, 19652, 20269, 20523, 20606, 20775, 20951, 21395, 23829, 23978, 24183, 24284, 24706, 35701, 35858, 35999, 36153, 36249, 36611, 36766, 36915, 37017, 37168, 37261, 37420, 37635, 38220, 41257, 41412, 41658, 41866, 42229, 42418, 42520, 42841, 43332, 43429, 43645, 52399, 52586, 53790, 54009, 54129, 54232, 54559, 58325, 58479, 58615, 58731, 59097], "trial_type": "free-recall", "conditions": [24, 800, "a", 24000], "internal_node_id": "0.0-88.0-0.0", "key_presses": [80, 79, 83, 83, 85, 77, 13, 66, 76, 69, 78, 68, 69, 82, 13, 65, 73, 76, 8, 8, 8, 77, 65, 73, 76, 77, 65, 78, 13, 79, 85, 84, 68, 79, 79, 82, 83, 13, 66, 69, 69, 70, 13, 68, 65, 83, 72, 66, 79, 65, 82, 68, 13, 71, 73, 70, 84, 13, 66, 76, 65, 78, 68, 8, 8, 8, 69, 78, 68, 69, 82, 13, 79, 85, 84, 68, 79, 79, 82, 65, 8, 83, 13, 84, 82, 89, 73, 78, 71, 13, 87, 73, 83, 72, 13], "trial": 2, "time_elapsed": 619795, "type": "FREE_RECALL", "trial_index": 115}, "uniqueid": "MTK3778:3A1PQ49WVIOFYTCQ3PAPGS2W2YS1HV", "dateTime": 1521387772171}, {"current_trial": 116, "trialdata": {"rt": 1352, "trial_type": "text", "internal_node_id": "0.0-89.0", "time_elapsed": 623155, "key_press": 32, "type": "INSTRUCTIONS", "trial_index": 116}, "uniqueid": "MTK3778:3A1PQ49WVIOFYTCQ3PAPGS2W2YS1HV", "dateTime": 1521387775529}, {"current_trial": 117, "trialdata": {"rt": [2693, 5938, 10128], "trial_type": "math-distractor", "key_times": [2292, 2693, 5601, 5678, 5938, 9693, 9931, 10128], "responses": ["4", "12", "15"], "num2": [1, 5, 3, 4], "num3": [1, 2, 9, 3], "conditions": [12, 1600, "a", 12000], "internal_node_id": "0.0-90.0", "key_presses": [52, 13, 49, 50, 13, 49, 53, 13], "trial": 3, "time_elapsed": 637161, "type": "DISTRACTOR", "trial_index": 117, "num1": [2, 6, 3, 7]}, "uniqueid": "MTK3778:3A1PQ49WVIOFYTCQ3PAPGS2W2YS1HV", "dateTime": 1521387789535}, {"current_trial": 118, "trialdata": {"rt": -1, "trial_type": "single-stim", "stimulus": "<p id=\"stim\">10</p>", "internal_node_id": "0.0-91.0-0.0", "time_elapsed": 640168, "key_press": -1, "trial_index": 118}, "uniqueid": "MTK3778:3A1PQ49WVIOFYTCQ3PAPGS2W2YS1HV", "dateTime": 1521387792542}, {"current_trial": 119, "trialdata": {"rt": -1, "trial_type": "single-stim", "stimulus": "<p id=\"stim\">9</p>", "internal_node_id": "0.0-91.0-1.0", "time_elapsed": 641171, "key_press": -1, "trial_index": 119}, "uniqueid": "MTK3778:3A1PQ49WVIOFYTCQ3PAPGS2W2YS1HV", "dateTime": 1521387793546}, {"current_trial": 120, "trialdata": {"rt": -1, "trial_type": "single-stim", "stimulus": "<p id=\"stim\">8</p>", "internal_node_id": "0.0-91.0-2.0", "time_elapsed": 642175, "key_press": -1, "trial_index": 120}, "uniqueid": "MTK3778:3A1PQ49WVIOFYTCQ3PAPGS2W2YS1HV", "dateTime": 1521387794549}, {"current_trial": 121, "trialdata": {"rt": -1, "trial_type": "single-stim", "stimulus": "<p id=\"stim\">7</p>", "internal_node_id": "0.0-91.0-3.0", "time_elapsed": 643180, "key_press": -1, "trial_index": 121}, "uniqueid": "MTK3778:3A1PQ49WVIOFYTCQ3PAPGS2W2YS1HV", "dateTime": 1521387795554}, {"current_trial": 122, "trialdata": {"rt": -1, "trial_type": "single-stim", "stimulus": "<p id=\"stim\">6</p>", "internal_node_id": "0.0-91.0-4.0", "time_elapsed": 644184, "key_press": -1, "trial_index": 122}, "uniqueid": "MTK3778:3A1PQ49WVIOFYTCQ3PAPGS2W2YS1HV", "dateTime": 1521387796558}, {"current_trial": 123, "trialdata": {"rt": -1, "trial_type": "single-stim", "stimulus": "<p id=\"stim\">5</p>", "internal_node_id": "0.0-91.0-5.0", "time_elapsed": 645189, "key_press": -1, "trial_index": 123}, "uniqueid": "MTK3778:3A1PQ49WVIOFYTCQ3PAPGS2W2YS1HV", "dateTime": 1521387797563}, {"current_trial": 124, "trialdata": {"rt": -1, "trial_type": "single-stim", "stimulus": "<p id=\"stim\">4</p>", "internal_node_id": "0.0-91.0-6.0", "time_elapsed": 646194, "key_press": -1, "trial_index": 124}, "uniqueid": "MTK3778:3A1PQ49WVIOFYTCQ3PAPGS2W2YS1HV", "dateTime": 1521387798569}, {"current_trial": 125, "trialdata": {"rt": -1, "trial_type": "single-stim", "stimulus": "<p id=\"stim\">3</p>", "internal_node_id": "0.0-91.0-7.0", "time_elapsed": 647200, "key_press": -1, "trial_index": 125}, "uniqueid": "MTK3778:3A1PQ49WVIOFYTCQ3PAPGS2W2YS1HV", "dateTime": 1521387799574}, {"current_trial": 126, "trialdata": {"rt": -1, "trial_type": "single-stim", "stimulus": "<p id=\"stim\">2</p>", "internal_node_id": "0.0-91.0-8.0", "time_elapsed": 648203, "key_press": -1, "trial_index": 126}, "uniqueid": "MTK3778:3A1PQ49WVIOFYTCQ3PAPGS2W2YS1HV", "dateTime": 1521387800577}, {"current_trial": 127, "trialdata": {"rt": -1, "trial_type": "single-stim", "stimulus": "<p id=\"stim\">1</p>", "internal_node_id": "0.0-91.0-9.0", "time_elapsed": 649208, "key_press": -1, "trial_index": 127}, "uniqueid": "MTK3778:3A1PQ49WVIOFYTCQ3PAPGS2W2YS1HV", "dateTime": 1521387801582}, {"current_trial": 128, "trialdata": {"rt": -1, "trial_type": "single-stim", "stimulus": "<p id=\"stim\">+</p>", "internal_node_id": "0.0-92.0-0.0", "time_elapsed": 650713, "key_press": -1, "type": "FIXATION", "trial_index": 128}, "uniqueid": "MTK3778:3A1PQ49WVIOFYTCQ3PAPGS2W2YS1HV", "dateTime": 1521387803087}, {"current_trial": 129, "trialdata": {"rt": -1000, "trial_type": "single-audio", "word": "yacht", "stimulus": "/static/audio/wordpool/YACHT.wav", "conditions": [12, 1600, "a", 12000], "internal_node_id": "0.0-93.0", "trial": 3, "time_elapsed": 653487, "serialpos": 0, "key_press": -1, "wordID": 1628, "type": "PRES_AUD", "trial_index": 129}, "uniqueid": "MTK3778:3A1PQ49WVIOFYTCQ3PAPGS2W2YS1HV", "dateTime": 1521387805861}, {"current_trial": 130, "trialdata": {"rt": -1000, "trial_type": "single-audio", "word": "marsh", "stimulus": "/static/audio/wordpool/MARSH.wav", "conditions": [12, 1600, "a", 12000], "internal_node_id": "0.0-94.0", "trial": 3, "time_elapsed": 656206, "serialpos": 1, "key_press": -1, "wordID": 873, "type": "PRES_AUD", "trial_index": 130}, "uniqueid": "MTK3778:3A1PQ49WVIOFYTCQ3PAPGS2W2YS1HV", "dateTime": 1521387808582}, {"current_trial": 131, "trialdata": {"rt": -1000, "trial_type": "single-audio", "word": "fox", "stimulus": "/static/audio/wordpool/FOX.wav", "conditions": [12, 1600, "a", 12000], "internal_node_id": "0.0-95.0", "trial": 3, "time_elapsed": 658748, "serialpos": 2, "key_press": -1, "wordID": 597, "type": "PRES_AUD", "trial_index": 131}, "uniqueid": "MTK3778:3A1PQ49WVIOFYTCQ3PAPGS2W2YS1HV", "dateTime": 1521387811122}, {"current_trial": 132, "trialdata": {"rt": 1658.9115646257824, "trial_type": "single-audio", "word": "sponge", "stimulus": "/static/audio/wordpool/SPONGE.wav", "conditions": [12, 1600, "a", 12000], "internal_node_id": "0.0-96.0", "trial": 3, "time_elapsed": 661320, "serialpos": 3, "key_press": 83, "wordID": 1354, "type": "PRES_AUD", "trial_index": 132}, "uniqueid": "MTK3778:3A1PQ49WVIOFYTCQ3PAPGS2W2YS1HV", "dateTime": 1521387813694}, {"current_trial": 133, "trialdata": {"rt": -1000, "trial_type": "single-audio", "word": "gavel", "stimulus": "/static/audio/wordpool/GAVEL.wav", "conditions": [12, 1600, "a", 12000], "internal_node_id": "0.0-97.0", "trial": 3, "time_elapsed": 663776, "serialpos": 4, "key_press": -1, "wordID": 626, "type": "PRES_AUD", "trial_index": 133}, "uniqueid": "MTK3778:3A1PQ49WVIOFYTCQ3PAPGS2W2YS1HV", "dateTime": 1521387816150}, {"current_trial": 134, "trialdata": {"rt": 1618.2766439909528, "trial_type": "single-audio", "word": "glove", "stimulus": "/static/audio/wordpool/GLOVE.wav", "conditions": [12, 1600, "a", 12000], "internal_node_id": "0.0-98.0", "trial": 3, "time_elapsed": 666552, "serialpos": 5, "key_press": 77, "wordID": 641, "type": "PRES_AUD", "trial_index": 134}, "uniqueid": "MTK3778:3A1PQ49WVIOFYTCQ3PAPGS2W2YS1HV", "dateTime": 1521387818926}, {"current_trial": 135, "trialdata": {"rt": -1000, "trial_type": "single-audio", "word": "camel", "stimulus": "/static/audio/wordpool/CAMEL.wav", "conditions": [12, 1600, "a", 12000], "internal_node_id": "0.0-99.0", "trial": 3, "time_elapsed": 669001, "serialpos": 6, "key_press": -1, "wordID": 222, "type": "PRES_AUD", "trial_index": 135}, "uniqueid": "MTK3778:3A1PQ49WVIOFYTCQ3PAPGS2W2YS1HV", "dateTime": 1521387821375}, {"current_trial": 136, "trialdata": {"rt": -1000, "trial_type": "single-audio", "word": "donkey", "stimulus": "/static/audio/wordpool/DONKEY.wav", "conditions": [12, 1600, "a", 12000], "internal_node_id": "0.0-100.0", "trial": 3, "time_elapsed": 671595, "serialpos": 7, "key_press": -1, "wordID": 483, "type": "PRES_AUD", "trial_index": 136}, "uniqueid": "MTK3778:3A1PQ49WVIOFYTCQ3PAPGS2W2YS1HV", "dateTime": 1521387823969}, {"current_trial": 137, "trialdata": {"rt": -1000, "trial_type": "single-audio", "word": "daisy", "stimulus": "/static/audio/wordpool/DAISY.wav", "conditions": [12, 1600, "a", 12000], "internal_node_id": "0.0-101.0", "trial": 3, "time_elapsed": 674165, "serialpos": 8, "key_press": -1, "wordID": 434, "type": "PRES_AUD", "trial_index": 137}, "uniqueid": "MTK3778:3A1PQ49WVIOFYTCQ3PAPGS2W2YS1HV", "dateTime": 1521387826539}, {"current_trial": 138, "trialdata": {"rt": -1000, "trial_type": "single-audio", "word": "county", "stimulus": "/static/audio/wordpool/COUNTY.wav", "conditions": [12, 1600, "a", 12000], "internal_node_id": "0.0-102.0", "trial": 3, "time_elapsed": 676903, "serialpos": 9, "key_press": -1, "wordID": 388, "type": "PRES_AUD", "trial_index": 138}, "uniqueid": "MTK3778:3A1PQ49WVIOFYTCQ3PAPGS2W2YS1HV", "dateTime": 1521387829277}, {"current_trial": 139, "trialdata": {"rt": -1000, "trial_type": "single-audio", "word": "shortcake", "stimulus": "/static/audio/wordpool/SHORTCAKE.wav", "conditions": [12, 1600, "a", 12000], "internal_node_id": "0.0-103.0", "trial": 3, "time_elapsed": 679562, "serialpos": 10, "key_press": -1, "wordID": 1291, "type": "PRES_AUD", "trial_index": 139}, "uniqueid": "MTK3778:3A1PQ49WVIOFYTCQ3PAPGS2W2YS1HV", "dateTime": 1521387831937}, {"current_trial": 140, "trialdata": {"rt": -1000, "trial_type": "single-audio", "word": "flower", "stimulus": "/static/audio/wordpool/FLOWER.wav", "conditions": [12, 1600, "a", 12000], "internal_node_id": "0.0-104.0", "trial": 3, "time_elapsed": 682364, "serialpos": 11, "key_press": -1, "wordID": 583, "type": "PRES_AUD", "trial_index": 140}, "uniqueid": "MTK3778:3A1PQ49WVIOFYTCQ3PAPGS2W2YS1HV", "dateTime": 1521387834739}, {"current_trial": 141, "trialdata": {"rt": -1, "trial_type": "single-stim", "stimulus": "", "internal_node_id": "0.0-105.0-0.0", "time_elapsed": 683601, "key_press": -1, "type": "PRE_RECALL_DELAY", "trial_index": 141}, "uniqueid": "MTK3778:3A1PQ49WVIOFYTCQ3PAPGS2W2YS1HV", "dateTime": 1521387835975}, {"current_trial": 142, "trialdata": {"rt": -1000, "trial_type": "single-audio", "stimulus": "/static/audio/400Hz.wav", "internal_node_id": "0.0-106.0", "time_elapsed": 684102, "key_press": -1, "type": "PRE_RECALL_ALERT", "trial_index": 142}, "uniqueid": "MTK3778:3A1PQ49WVIOFYTCQ3PAPGS2W2YS1HV", "dateTime": 1521387836476}, {"current_trial": 143, "trialdata": {"rt": [4601, 6606, 11184, 13061, 18255, 20101, 21492, 29250, 39706, 55070], "recwords": ["yaught", "marsh", "shortcake", "flower", "camel", "donkey", "daisy", "sun", "water", "fun"], "key_times": [1651, 1760, 1879, 2142, 2749, 3828, 3923, 4028, 4601, 5397, 5477, 5651, 5909, 6031, 6606, 7413, 7521, 7766, 7914, 8297, 9022, 9252, 9343, 9521, 10087, 10256, 10587, 10680, 11184, 11885, 12018, 12177, 12257, 12566, 12857, 13061, 13465, 13651, 13794, 14283, 14786, 14998, 15114, 15788, 15942, 16134, 17469, 17651, 17750, 18255, 18790, 18900, 19056, 19252, 19349, 19475, 20101, 20582, 20692, 20849, 20974, 21114, 21492, 28467, 28587, 28731, 29250, 38922, 39061, 39177, 39318, 39497, 39706, 54524, 54648, 54721, 55070], "trial_type": "free-recall", "conditions": [12, 1600, "a", 12000], "internal_node_id": "0.0-107.0-0.0", "key_presses": [89, 65, 85, 71, 8, 71, 72, 84, 13, 77, 65, 82, 83, 72, 13, 83, 72, 79, 82, 8, 84, 8, 82, 84, 67, 65, 75, 69, 13, 70, 76, 79, 87, 69, 82, 13, 67, 65, 77, 80, 8, 76, 69, 8, 8, 8, 77, 69, 76, 13, 68, 79, 78, 75, 69, 89, 13, 68, 65, 73, 83, 89, 13, 83, 85, 78, 13, 87, 65, 84, 69, 82, 13, 70, 85, 78, 13], "trial": 3, "time_elapsed": 744110, "type": "FREE_RECALL", "trial_index": 143}, "uniqueid": "MTK3778:3A1PQ49WVIOFYTCQ3PAPGS2W2YS1HV", "dateTime": 1521387896487}, {"current_trial": 144, "trialdata": {"rt": 1053, "trial_type": "text", "internal_node_id": "0.0-108.0", "time_elapsed": 747173, "key_press": 32, "type": "INSTRUCTIONS", "trial_index": 144}, "uniqueid": "MTK3778:3A1PQ49WVIOFYTCQ3PAPGS2W2YS1HV", "dateTime": 1521387899547}, {"current_trial": 145, "trialdata": {"rt": [3719, 6352, 9241, 12206, 18773, 22299], "trial_type": "math-distractor", "key_times": [3356, 3719, 5851, 6089, 6352, 8845, 8964, 9241, 11899, 12051, 12206, 18330, 18488, 18773, 21585, 22074, 22299], "responses": ["9", "15", "16", "32", "17", "13"], "num2": [1, 3, 7, 8, 8, 7, 6], "num3": [6, 3, 2, 9, 4, 3, 8], "conditions": [24, 800, "a", 24000], "internal_node_id": "0.0-109.0", "key_presses": [57, 13, 49, 53, 13, 49, 54, 13, 51, 50, 13, 49, 55, 13, 49, 51, 13], "trial": 4, "time_elapsed": 773184, "type": "DISTRACTOR", "trial_index": 145, "num1": [2, 9, 7, 8, 5, 4, 3]}, "uniqueid": "MTK3778:3A1PQ49WVIOFYTCQ3PAPGS2W2YS1HV", "dateTime": 1521387925558}, {"current_trial": 146, "trialdata": {"rt": -1, "trial_type": "single-stim", "stimulus": "<p id=\"stim\">10</p>", "internal_node_id": "0.0-110.0-0.0", "time_elapsed": 776190, "key_press": -1, "trial_index": 146}, "uniqueid": "MTK3778:3A1PQ49WVIOFYTCQ3PAPGS2W2YS1HV", "dateTime": 1521387928564}, {"current_trial": 147, "trialdata": {"rt": -1, "trial_type": "single-stim", "stimulus": "<p id=\"stim\">9</p>", "internal_node_id": "0.0-110.0-1.0", "time_elapsed": 777194, "key_press": -1, "trial_index": 147}, "uniqueid": "MTK3778:3A1PQ49WVIOFYTCQ3PAPGS2W2YS1HV", "dateTime": 1521387929568}, {"current_trial": 148, "trialdata": {"rt": -1, "trial_type": "single-stim", "stimulus": "<p id=\"stim\">8</p>", "internal_node_id": "0.0-110.0-2.0", "time_elapsed": 778198, "key_press": -1, "trial_index": 148}, "uniqueid": "MTK3778:3A1PQ49WVIOFYTCQ3PAPGS2W2YS1HV", "dateTime": 1521387930573}, {"current_trial": 149, "trialdata": {"rt": -1, "trial_type": "single-stim", "stimulus": "<p id=\"stim\">7</p>", "internal_node_id": "0.0-110.0-3.0", "time_elapsed": 779202, "key_press": -1, "trial_index": 149}, "uniqueid": "MTK3778:3A1PQ49WVIOFYTCQ3PAPGS2W2YS1HV", "dateTime": 1521387931576}, {"current_trial": 150, "trialdata": {"rt": -1, "trial_type": "single-stim", "stimulus": "<p id=\"stim\">6</p>", "internal_node_id": "0.0-110.0-4.0", "time_elapsed": 780206, "key_press": -1, "trial_index": 150}, "uniqueid": "MTK3778:3A1PQ49WVIOFYTCQ3PAPGS2W2YS1HV", "dateTime": 1521387932580}, {"current_trial": 151, "trialdata": {"rt": -1, "trial_type": "single-stim", "stimulus": "<p id=\"stim\">5</p>", "internal_node_id": "0.0-110.0-5.0", "time_elapsed": 781211, "key_press": -1, "trial_index": 151}, "uniqueid": "MTK3778:3A1PQ49WVIOFYTCQ3PAPGS2W2YS1HV", "dateTime": 1521387933585}, {"current_trial": 152, "trialdata": {"rt": -1, "trial_type": "single-stim", "stimulus": "<p id=\"stim\">4</p>", "internal_node_id": "0.0-110.0-6.0", "time_elapsed": 782216, "key_press": -1, "trial_index": 152}, "uniqueid": "MTK3778:3A1PQ49WVIOFYTCQ3PAPGS2W2YS1HV", "dateTime": 1521387934591}, {"current_trial": 153, "trialdata": {"rt": -1, "trial_type": "single-stim", "stimulus": "<p id=\"stim\">3</p>", "internal_node_id": "0.0-110.0-7.0", "time_elapsed": 783220, "key_press": -1, "trial_index": 153}, "uniqueid": "MTK3778:3A1PQ49WVIOFYTCQ3PAPGS2W2YS1HV", "dateTime": 1521387935595}, {"current_trial": 154, "trialdata": {"rt": -1, "trial_type": "single-stim", "stimulus": "<p id=\"stim\">2</p>", "internal_node_id": "0.0-110.0-8.0", "time_elapsed": 784225, "key_press": -1, "trial_index": 154}, "uniqueid": "MTK3778:3A1PQ49WVIOFYTCQ3PAPGS2W2YS1HV", "dateTime": 1521387936601}, {"current_trial": 155, "trialdata": {"rt": -1, "trial_type": "single-stim", "stimulus": "<p id=\"stim\">1</p>", "internal_node_id": "0.0-110.0-9.0", "time_elapsed": 785233, "key_press": -1, "trial_index": 155}, "uniqueid": "MTK3778:3A1PQ49WVIOFYTCQ3PAPGS2W2YS1HV", "dateTime": 1521387937607}, {"current_trial": 156, "trialdata": {"rt": -1, "trial_type": "single-stim", "stimulus": "<p id=\"stim\">+</p>", "internal_node_id": "0.0-111.0-0.0", "time_elapsed": 786736, "key_press": -1, "type": "FIXATION", "trial_index": 156}, "uniqueid": "MTK3778:3A1PQ49WVIOFYTCQ3PAPGS2W2YS1HV", "dateTime": 1521387939110}, {"current_trial": 157, "trialdata": {"rt": -1000, "trial_type": "single-audio", "word": "dandruff", "stimulus": "/static/audio/wordpool/DANDRUFF.wav", "conditions": [24, 800, "a", 24000], "internal_node_id": "0.0-112.0", "trial": 4, "time_elapsed": 788448, "serialpos": 0, "key_press": -1, "wordID": 438, "type": "PRES_AUD", "trial_index": 157}, "uniqueid": "MTK3778:3A1PQ49WVIOFYTCQ3PAPGS2W2YS1HV", "dateTime": 1521387940823}, {"current_trial": 158, "trialdata": {"rt": -1000, "trial_type": "single-audio", "word": "female", "stimulus": "/static/audio/wordpool/FEMALE.wav", "conditions": [24, 800, "a", 24000], "internal_node_id": "0.0-113.0", "trial": 4, "time_elapsed": 790087, "serialpos": 1, "key_press": -1, "wordID": 558, "type": "PRES_AUD", "trial_index": 158}, "uniqueid": "MTK3778:3A1PQ49WVIOFYTCQ3PAPGS2W2YS1HV", "dateTime": 1521387942461}, {"current_trial": 159, "trialdata": {"rt": -1000, "trial_type": "single-audio", "word": "finger", "stimulus": "/static/audio/wordpool/FINGER.wav", "conditions": [24, 800, "a", 24000], "internal_node_id": "0.0-114.0", "trial": 4, "time_elapsed": 791921, "serialpos": 2, "key_press": -1, "wordID": 566, "type": "PRES_AUD", "trial_index": 159}, "uniqueid": "MTK3778:3A1PQ49WVIOFYTCQ3PAPGS2W2YS1HV", "dateTime": 1521387944295}, {"current_trial": 160, "trialdata": {"rt": -1000, "trial_type": "single-audio", "word": "whistle", "stimulus": "/static/audio/wordpool/WHISTLE.wav", "conditions": [24, 800, "a", 24000], "internal_node_id": "0.0-115.0", "trial": 4, "time_elapsed": 793743, "serialpos": 3, "key_press": -1, "wordID": 1605, "type": "PRES_AUD", "trial_index": 160}, "uniqueid": "MTK3778:3A1PQ49WVIOFYTCQ3PAPGS2W2YS1HV", "dateTime": 1521387946117}, {"current_trial": 161, "trialdata": {"rt": -1000, "trial_type": "single-audio", "word": "rifle", "stimulus": "/static/audio/wordpool/RIFLE.wav", "conditions": [24, 800, "a", 24000], "internal_node_id": "0.0-116.0", "trial": 4, "time_elapsed": 795357, "serialpos": 4, "key_press": -1, "wordID": 1191, "type": "PRES_AUD", "trial_index": 161}, "uniqueid": "MTK3778:3A1PQ49WVIOFYTCQ3PAPGS2W2YS1HV", "dateTime": 1521387947731}, {"current_trial": 162, "trialdata": {"rt": -1000, "trial_type": "single-audio", "word": "sunset", "stimulus": "/static/audio/wordpool/SUNSET.wav", "conditions": [24, 800, "a", 24000], "internal_node_id": "0.0-117.0", "trial": 4, "time_elapsed": 797064, "serialpos": 5, "key_press": -1, "wordID": 1407, "type": "PRES_AUD", "trial_index": 162}, "uniqueid": "MTK3778:3A1PQ49WVIOFYTCQ3PAPGS2W2YS1HV", "dateTime": 1521387949439}, {"current_trial": 163, "trialdata": {"rt": -70.975056689349, "trial_type": "single-audio", "word": "cloud", "stimulus": "/static/audio/wordpool/CLOUD.wav", "conditions": [24, 800, "a", 24000], "internal_node_id": "0.0-118.0", "trial": 4, "time_elapsed": 799014, "serialpos": 6, "key_press": 87, "wordID": 327, "type": "PRES_AUD", "trial_index": 163}, "uniqueid": "MTK3778:3A1PQ49WVIOFYTCQ3PAPGS2W2YS1HV", "dateTime": 1521387951388}, {"current_trial": 164, "trialdata": {"rt": -1000, "trial_type": "single-audio", "word": "student", "stimulus": "/static/audio/wordpool/STUDENT.wav", "conditions": [24, 800, "a", 24000], "internal_node_id": "0.0-119.0", "trial": 4, "time_elapsed": 800651, "serialpos": 7, "key_press": -1, "wordID": 1394, "type": "PRES_AUD", "trial_index": 164}, "uniqueid": "MTK3778:3A1PQ49WVIOFYTCQ3PAPGS2W2YS1HV", "dateTime": 1521387953026}, {"current_trial": 165, "trialdata": {"rt": -1000, "trial_type": "single-audio", "word": "teacher", "stimulus": "/static/audio/wordpool/TEACHER.wav", "conditions": [24, 800, "a", 24000], "internal_node_id": "0.0-120.0", "trial": 4, "time_elapsed": 802469, "serialpos": 8, "key_press": -1, "wordID": 1439, "type": "PRES_AUD", "trial_index": 165}, "uniqueid": "MTK3778:3A1PQ49WVIOFYTCQ3PAPGS2W2YS1HV", "dateTime": 1521387954843}, {"current_trial": 166, "trialdata": {"rt": -1000, "trial_type": "single-audio", "word": "sunrise", "stimulus": "/static/audio/wordpool/SUNRISE.wav", "conditions": [24, 800, "a", 24000], "internal_node_id": "0.0-121.0", "trial": 4, "time_elapsed": 804234, "serialpos": 9, "key_press": -1, "wordID": 1406, "type": "PRES_AUD", "trial_index": 166}, "uniqueid": "MTK3778:3A1PQ49WVIOFYTCQ3PAPGS2W2YS1HV", "dateTime": 1521387956608}, {"current_trial": 167, "trialdata": {"rt": -1000, "trial_type": "single-audio", "word": "bike", "stimulus": "/static/audio/wordpool/BIKE.wav", "conditions": [24, 800, "a", 24000], "internal_node_id": "0.0-122.0", "trial": 4, "time_elapsed": 806132, "serialpos": 10, "key_press": -1, "wordID": 124, "type": "PRES_AUD", "trial_index": 167}, "uniqueid": "MTK3778:3A1PQ49WVIOFYTCQ3PAPGS2W2YS1HV", "dateTime": 1521387958506}, {"current_trial": 168, "trialdata": {"rt": -1000, "trial_type": "single-audio", "word": "branch", "stimulus": "/static/audio/wordpool/BRANCH.wav", "conditions": [24, 800, "a", 24000], "internal_node_id": "0.0-123.0", "trial": 4, "time_elapsed": 807914, "serialpos": 11, "key_press": -1, "wordID": 167, "type": "PRES_AUD", "trial_index": 168}, "uniqueid": "MTK3778:3A1PQ49WVIOFYTCQ3PAPGS2W2YS1HV", "dateTime": 1521387960288}, {"current_trial": 169, "trialdata": {"rt": -1000, "trial_type": "single-audio", "word": "sparrow", "stimulus": "/static/audio/wordpool/SPARROW.wav", "conditions": [24, 800, "a", 24000], "internal_node_id": "0.0-124.0", "trial": 4, "time_elapsed": 809592, "serialpos": 12, "key_press": -1, "wordID": 1346, "type": "PRES_AUD", "trial_index": 169}, "uniqueid": "MTK3778:3A1PQ49WVIOFYTCQ3PAPGS2W2YS1HV", "dateTime": 1521387961966}, {"current_trial": 170, "trialdata": {"rt": -1000, "trial_type": "single-audio", "word": "globe", "stimulus": "/static/audio/wordpool/GLOBE.wav", "conditions": [24, 800, "a", 24000], "internal_node_id": "0.0-125.0", "trial": 4, "time_elapsed": 811418, "serialpos": 13, "key_press": -1, "wordID": 640, "type": "PRES_AUD", "trial_index": 170}, "uniqueid": "MTK3778:3A1PQ49WVIOFYTCQ3PAPGS2W2YS1HV", "dateTime": 1521387963792}, {"current_trial": 171, "trialdata": {"rt": -1000, "trial_type": "single-audio", "word": "ozone", "stimulus": "/static/audio/wordpool/OZONE.wav", "conditions": [24, 800, "a", 24000], "internal_node_id": "0.0-126.0", "trial": 4, "time_elapsed": 813268, "serialpos": 14, "key_press": -1, "wordID": 995, "type": "PRES_AUD", "trial_index": 171}, "uniqueid": "MTK3778:3A1PQ49WVIOFYTCQ3PAPGS2W2YS1HV", "dateTime": 1521387965642}, {"current_trial": 172, "trialdata": {"rt": -1000, "trial_type": "single-audio", "word": "spool", "stimulus": "/static/audio/wordpool/SPOOL.wav", "conditions": [24, 800, "a", 24000], "internal_node_id": "0.0-127.0", "trial": 4, "time_elapsed": 815246, "serialpos": 15, "key_press": -1, "wordID": 1355, "type": "PRES_AUD", "trial_index": 172}, "uniqueid": "MTK3778:3A1PQ49WVIOFYTCQ3PAPGS2W2YS1HV", "dateTime": 1521387967620}, {"current_trial": 173, "trialdata": {"rt": -1000, "trial_type": "single-audio", "word": "rod", "stimulus": "/static/audio/wordpool/ROD.wav", "conditions": [24, 800, "a", 24000], "internal_node_id": "0.0-128.0", "trial": 4, "time_elapsed": 817152, "serialpos": 16, "key_press": -1, "wordID": 1202, "type": "PRES_AUD", "trial_index": 173}, "uniqueid": "MTK3778:3A1PQ49WVIOFYTCQ3PAPGS2W2YS1HV", "dateTime": 1521387969526}, {"current_trial": 174, "trialdata": {"rt": -1000, "trial_type": "single-audio", "word": "tortoise", "stimulus": "/static/audio/wordpool/TORTOISE.wav", "conditions": [24, 800, "a", 24000], "internal_node_id": "0.0-129.0", "trial": 4, "time_elapsed": 818919, "serialpos": 17, "key_press": -1, "wordID": 1485, "type": "PRES_AUD", "trial_index": 174}, "uniqueid": "MTK3778:3A1PQ49WVIOFYTCQ3PAPGS2W2YS1HV", "dateTime": 1521387971294}, {"current_trial": 175, "trialdata": {"rt": -1000, "trial_type": "single-audio", "word": "world", "stimulus": "/static/audio/wordpool/WORLD.wav", "conditions": [24, 800, "a", 24000], "internal_node_id": "0.0-130.0", "trial": 4, "time_elapsed": 820663, "serialpos": 18, "key_press": -1, "wordID": 1621, "type": "PRES_AUD", "trial_index": 175}, "uniqueid": "MTK3778:3A1PQ49WVIOFYTCQ3PAPGS2W2YS1HV", "dateTime": 1521387973037}, {"current_trial": 176, "trialdata": {"rt": -1000, "trial_type": "single-audio", "word": "cafe", "stimulus": "/static/audio/wordpool/CAFE.wav", "conditions": [24, 800, "a", 24000], "internal_node_id": "0.0-131.0", "trial": 4, "time_elapsed": 822613, "serialpos": 19, "key_press": -1, "wordID": 215, "type": "PRES_AUD", "trial_index": 176}, "uniqueid": "MTK3778:3A1PQ49WVIOFYTCQ3PAPGS2W2YS1HV", "dateTime": 1521387974987}, {"current_trial": 177, "trialdata": {"rt": -1000, "trial_type": "single-audio", "word": "drug", "stimulus": "/static/audio/wordpool/DRUG.wav", "conditions": [24, 800, "a", 24000], "internal_node_id": "0.0-132.0", "trial": 4, "time_elapsed": 824606, "serialpos": 20, "key_press": -1, "wordID": 500, "type": "PRES_AUD", "trial_index": 177}, "uniqueid": "MTK3778:3A1PQ49WVIOFYTCQ3PAPGS2W2YS1HV", "dateTime": 1521387976980}, {"current_trial": 178, "trialdata": {"rt": -1000, "trial_type": "single-audio", "word": "dust", "stimulus": "/static/audio/wordpool/DUST.wav", "conditions": [24, 800, "a", 24000], "internal_node_id": "0.0-133.0", "trial": 4, "time_elapsed": 826380, "serialpos": 21, "key_press": -1, "wordID": 507, "type": "PRES_AUD", "trial_index": 178}, "uniqueid": "MTK3778:3A1PQ49WVIOFYTCQ3PAPGS2W2YS1HV", "dateTime": 1521387978754}, {"current_trial": 179, "trialdata": {"rt": -1000, "trial_type": "single-audio", "word": "shirt", "stimulus": "/static/audio/wordpool/SHIRT.wav", "conditions": [24, 800, "a", 24000], "internal_node_id": "0.0-134.0", "trial": 4, "time_elapsed": 828267, "serialpos": 22, "key_press": -1, "wordID": 1286, "type": "PRES_AUD", "trial_index": 179}, "uniqueid": "MTK3778:3A1PQ49WVIOFYTCQ3PAPGS2W2YS1HV", "dateTime": 1521387980641}, {"current_trial": 180, "trialdata": {"rt": -1000, "trial_type": "single-audio", "word": "crayon", "stimulus": "/static/audio/wordpool/CRAYON.wav", "conditions": [24, 800, "a", 24000], "internal_node_id": "0.0-135.0", "trial": 4, "time_elapsed": 829916, "serialpos": 23, "key_press": -1, "wordID": 400, "type": "PRES_AUD", "trial_index": 180}, "uniqueid": "MTK3778:3A1PQ49WVIOFYTCQ3PAPGS2W2YS1HV", "dateTime": 1521387982290}, {"current_trial": 181, "trialdata": {"rt": -1, "trial_type": "single-stim", "stimulus": "", "internal_node_id": "0.0-136.0-0.0", "time_elapsed": 831303, "key_press": -1, "type": "PRE_RECALL_DELAY", "trial_index": 181}, "uniqueid": "MTK3778:3A1PQ49WVIOFYTCQ3PAPGS2W2YS1HV", "dateTime": 1521387983677}, {"current_trial": 182, "trialdata": {"rt": -1000, "trial_type": "single-audio", "stimulus": "/static/audio/400Hz.wav", "internal_node_id": "0.0-137.0", "time_elapsed": 831804, "key_press": -1, "type": "PRE_RECALL_ALERT", "trial_index": 182}, "uniqueid": "MTK3778:3A1PQ49WVIOFYTCQ3PAPGS2W2YS1HV", "dateTime": 1521387984178}, {"current_trial": 183, "trialdata": {"rt": [2336, 6008, 11466, 13222, 17017, 18754, 45248], "recwords": ["female", "finger", "wistle", "student", "teacher", "cloud", "cloud"], "key_times": [717, 858, 1055, 1171, 1727, 1826, 2336, 2868, 3034, 3775, 3944, 4072, 4075, 4227, 4539, 4684, 4837, 4945, 5142, 6008, 8085, 8387, 8508, 8630, 9051, 9425, 9585, 9740, 10126, 10243, 10485, 10574, 11466, 11865, 12128, 12311, 12501, 12649, 12760, 12935, 13222, 13923, 14022, 14212, 14309, 14428, 14609, 15294, 15435, 15572, 15693, 15836, 16293, 16432, 16525, 16699, 17017, 17524, 17667, 17834, 18017, 18141, 18754, 42915, 43013, 43297, 43852, 44162, 44369, 44479, 45248, 56486, 56681, 56776, 57042, 57218, 57397], "trial_type": "free-recall", "conditions": [24, 800, "a", 24000], "internal_node_id": "0.0-138.0-0.0", "key_presses": [70, 69, 77, 65, 76, 69, 13, 70, 73, 78, 71, 87, 69, 82, 8, 8, 8, 69, 82, 13, 87, 73, 83, 84, 69, 8, 8, 8, 83, 84, 76, 69, 13, 83, 84, 85, 68, 69, 78, 84, 13, 84, 69, 67, 72, 69, 82, 8, 8, 8, 8, 65, 67, 72, 69, 82, 13, 67, 76, 79, 85, 68, 13, 67, 76, 85, 8, 79, 85, 68, 13, 84, 72, 69, 8, 8, 8], "trial": 4, "time_elapsed": 891813, "type": "FREE_RECALL", "trial_index": 183}, "uniqueid": "MTK3778:3A1PQ49WVIOFYTCQ3PAPGS2W2YS1HV", "dateTime": 1521388044191}, {"current_trial": 184, "trialdata": {"rt": 1310, "trial_type": "text", "internal_node_id": "0.0-139.0", "time_elapsed": 895130, "key_press": 32, "type": "INSTRUCTIONS", "trial_index": 184}, "uniqueid": "MTK3778:3A1PQ49WVIOFYTCQ3PAPGS2W2YS1HV", "dateTime": 1521388047505}, {"current_trial": 185, "trialdata": {"rt": [4578, 7704, 11342], "trial_type": "math-distractor", "key_times": [4172, 4271, 4578, 7196, 7408, 7704, 10048, 10221, 10471, 11124, 11342], "responses": ["25", "26", "15"], "num2": [6, 8, 1, 7], "num3": [7, 8, 5, 9], "conditions": [12, 800, "a", 12000], "internal_node_id": "0.0-140.0", "key_presses": [50, 53, 13, 50, 54, 13, 49, 53, 220, 8, 13], "trial": 5, "time_elapsed": 909134, "type": "DISTRACTOR", "trial_index": 185, "num1": [6, 2, 9, 6]}, "uniqueid": "MTK3778:3A1PQ49WVIOFYTCQ3PAPGS2W2YS1HV", "dateTime": 1521388061508}, {"current_trial": 186, "trialdata": {"rt": -1, "trial_type": "single-stim", "stimulus": "<p id=\"stim\">10</p>", "internal_node_id": "0.0-141.0-0.0", "time_elapsed": 912135, "key_press": -1, "trial_index": 186}, "uniqueid": "MTK3778:3A1PQ49WVIOFYTCQ3PAPGS2W2YS1HV", "dateTime": 1521388064510}, {"current_trial": 187, "trialdata": {"rt": -1, "trial_type": "single-stim", "stimulus": "<p id=\"stim\">9</p>", "internal_node_id": "0.0-141.0-1.0", "time_elapsed": 913137, "key_press": -1, "trial_index": 187}, "uniqueid": "MTK3778:3A1PQ49WVIOFYTCQ3PAPGS2W2YS1HV", "dateTime": 1521388065511}, {"current_trial": 188, "trialdata": {"rt": -1, "trial_type": "single-stim", "stimulus": "<p id=\"stim\">8</p>", "internal_node_id": "0.0-141.0-2.0", "time_elapsed": 914141, "key_press": -1, "trial_index": 188}, "uniqueid": "MTK3778:3A1PQ49WVIOFYTCQ3PAPGS2W2YS1HV", "dateTime": 1521388066515}, {"current_trial": 189, "trialdata": {"rt": -1, "trial_type": "single-stim", "stimulus": "<p id=\"stim\">7</p>", "internal_node_id": "0.0-141.0-3.0", "time_elapsed": 915145, "key_press": -1, "trial_index": 189}, "uniqueid": "MTK3778:3A1PQ49WVIOFYTCQ3PAPGS2W2YS1HV", "dateTime": 1521388067519}, {"current_trial": 190, "trialdata": {"rt": -1, "trial_type": "single-stim", "stimulus": "<p id=\"stim\">6</p>", "internal_node_id": "0.0-141.0-4.0", "time_elapsed": 916149, "key_press": -1, "trial_index": 190}, "uniqueid": "MTK3778:3A1PQ49WVIOFYTCQ3PAPGS2W2YS1HV", "dateTime": 1521388068524}, {"current_trial": 191, "trialdata": {"rt": -1, "trial_type": "single-stim", "stimulus": "<p id=\"stim\">5</p>", "internal_node_id": "0.0-141.0-5.0", "time_elapsed": 917154, "key_press": -1, "trial_index": 191}, "uniqueid": "MTK3778:3A1PQ49WVIOFYTCQ3PAPGS2W2YS1HV", "dateTime": 1521388069528}, {"current_trial": 192, "trialdata": {"rt": -1, "trial_type": "single-stim", "stimulus": "<p id=\"stim\">4</p>", "internal_node_id": "0.0-141.0-6.0", "time_elapsed": 918158, "key_press": -1, "trial_index": 192}, "uniqueid": "MTK3778:3A1PQ49WVIOFYTCQ3PAPGS2W2YS1HV", "dateTime": 1521388070532}, {"current_trial": 193, "trialdata": {"rt": -1, "trial_type": "single-stim", "stimulus": "<p id=\"stim\">3</p>", "internal_node_id": "0.0-141.0-7.0", "time_elapsed": 919162, "key_press": -1, "trial_index": 193}, "uniqueid": "MTK3778:3A1PQ49WVIOFYTCQ3PAPGS2W2YS1HV", "dateTime": 1521388071536}, {"current_trial": 194, "trialdata": {"rt": -1, "trial_type": "single-stim", "stimulus": "<p id=\"stim\">2</p>", "internal_node_id": "0.0-141.0-8.0", "time_elapsed": 920165, "key_press": -1, "trial_index": 194}, "uniqueid": "MTK3778:3A1PQ49WVIOFYTCQ3PAPGS2W2YS1HV", "dateTime": 1521388072539}, {"current_trial": 195, "trialdata": {"rt": -1, "trial_type": "single-stim", "stimulus": "<p id=\"stim\">1</p>", "internal_node_id": "0.0-141.0-9.0", "time_elapsed": 921171, "key_press": -1, "trial_index": 195}, "uniqueid": "MTK3778:3A1PQ49WVIOFYTCQ3PAPGS2W2YS1HV", "dateTime": 1521388073545}, {"current_trial": 196, "trialdata": {"rt": -1, "trial_type": "single-stim", "stimulus": "<p id=\"stim\">+</p>", "internal_node_id": "0.0-142.0-0.0", "time_elapsed": 922673, "key_press": -1, "type": "FIXATION", "trial_index": 196}, "uniqueid": "MTK3778:3A1PQ49WVIOFYTCQ3PAPGS2W2YS1HV", "dateTime": 1521388075047}, {"current_trial": 197, "trialdata": {"rt": -1000, "trial_type": "single-audio", "word": "piston", "stimulus": "/static/audio/wordpool/PISTON.wav", "conditions": [12, 800, "a", 12000], "internal_node_id": "0.0-143.0", "trial": 5, "time_elapsed": 924363, "serialpos": 0, "key_press": -1, "wordID": 1075, "type": "PRES_AUD", "trial_index": 197}, "uniqueid": "MTK3778:3A1PQ49WVIOFYTCQ3PAPGS2W2YS1HV", "dateTime": 1521388076737}, {"current_trial": 198, "trialdata": {"rt": -1000, "trial_type": "single-audio", "word": "shovel", "stimulus": "/static/audio/wordpool/SHOVEL.wav", "conditions": [12, 800, "a", 12000], "internal_node_id": "0.0-144.0", "trial": 5, "time_elapsed": 926102, "serialpos": 1, "key_press": -1, "wordID": 1294, "type": "PRES_AUD", "trial_index": 198}, "uniqueid": "MTK3778:3A1PQ49WVIOFYTCQ3PAPGS2W2YS1HV", "dateTime": 1521388078477}, {"current_trial": 199, "trialdata": {"rt": -1000, "trial_type": "single-audio", "word": "eyelash", "stimulus": "/static/audio/wordpool/EYELASH.wav", "conditions": [12, 800, "a", 12000], "internal_node_id": "0.0-145.0", "trial": 5, "time_elapsed": 927812, "serialpos": 2, "key_press": -1, "wordID": 545, "type": "PRES_AUD", "trial_index": 199}, "uniqueid": "MTK3778:3A1PQ49WVIOFYTCQ3PAPGS2W2YS1HV", "dateTime": 1521388080186}, {"current_trial": 200, "trialdata": {"rt": -1000, "trial_type": "single-audio", "word": "waitress", "stimulus": "/static/audio/wordpool/WAITRESS.wav", "conditions": [12, 800, "a", 12000], "internal_node_id": "0.0-146.0", "trial": 5, "time_elapsed": 929719, "serialpos": 3, "key_press": -1, "wordID": 1580, "type": "PRES_AUD", "trial_index": 200}, "uniqueid": "MTK3778:3A1PQ49WVIOFYTCQ3PAPGS2W2YS1HV", "dateTime": 1521388082093}, {"current_trial": 201, "trialdata": {"rt": -1000, "trial_type": "single-audio", "word": "salt", "stimulus": "/static/audio/wordpool/SALT.wav", "conditions": [12, 800, "a", 12000], "internal_node_id": "0.0-147.0", "trial": 5, "time_elapsed": 931330, "serialpos": 4, "key_press": -1, "wordID": 1228, "type": "PRES_AUD", "trial_index": 201}, "uniqueid": "MTK3778:3A1PQ49WVIOFYTCQ3PAPGS2W2YS1HV", "dateTime": 1521388083704}, {"current_trial": 202, "trialdata": {"rt": -1000, "trial_type": "single-audio", "word": "valve", "stimulus": "/static/audio/wordpool/VALVE.wav", "conditions": [12, 800, "a", 12000], "internal_node_id": "0.0-148.0", "trial": 5, "time_elapsed": 933286, "serialpos": 5, "key_press": -1, "wordID": 1545, "type": "PRES_AUD", "trial_index": 202}, "uniqueid": "MTK3778:3A1PQ49WVIOFYTCQ3PAPGS2W2YS1HV", "dateTime": 1521388085660}, {"current_trial": 203, "trialdata": {"rt": -1000, "trial_type": "single-audio", "word": "peach", "stimulus": "/static/audio/wordpool/PEACH.wav", "conditions": [12, 800, "a", 12000], "internal_node_id": "0.0-149.0", "trial": 5, "time_elapsed": 935126, "serialpos": 6, "key_press": -1, "wordID": 1030, "type": "PRES_AUD", "trial_index": 203}, "uniqueid": "MTK3778:3A1PQ49WVIOFYTCQ3PAPGS2W2YS1HV", "dateTime": 1521388087500}, {"current_trial": 204, "trialdata": {"rt": -1000, "trial_type": "single-audio", "word": "crutch", "stimulus": "/static/audio/wordpool/CRUTCH.wav", "conditions": [12, 800, "a", 12000], "internal_node_id": "0.0-150.0", "trial": 5, "time_elapsed": 936965, "serialpos": 7, "key_press": -1, "wordID": 416, "type": "PRES_AUD", "trial_index": 204}, "uniqueid": "MTK3778:3A1PQ49WVIOFYTCQ3PAPGS2W2YS1HV", "dateTime": 1521388089339}, {"current_trial": 205, "trialdata": {"rt": -1000, "trial_type": "single-audio", "word": "scalpel", "stimulus": "/static/audio/wordpool/SCALPEL.wav", "conditions": [12, 800, "a", 12000], "internal_node_id": "0.0-151.0", "trial": 5, "time_elapsed": 938946, "serialpos": 8, "key_press": -1, "wordID": 1242, "type": "PRES_AUD", "trial_index": 205}, "uniqueid": "MTK3778:3A1PQ49WVIOFYTCQ3PAPGS2W2YS1HV", "dateTime": 1521388091320}, {"current_trial": 206, "trialdata": {"rt": -1000, "trial_type": "single-audio", "word": "country", "stimulus": "/static/audio/wordpool/COUNTRY.wav", "conditions": [12, 800, "a", 12000], "internal_node_id": "0.0-152.0", "trial": 5, "time_elapsed": 940691, "serialpos": 9, "key_press": -1, "wordID": 387, "type": "PRES_AUD", "trial_index": 206}, "uniqueid": "MTK3778:3A1PQ49WVIOFYTCQ3PAPGS2W2YS1HV", "dateTime": 1521388093066}, {"current_trial": 207, "trialdata": {"rt": -1000, "trial_type": "single-audio", "word": "valley", "stimulus": "/static/audio/wordpool/VALLEY.wav", "conditions": [12, 800, "a", 12000], "internal_node_id": "0.0-153.0", "trial": 5, "time_elapsed": 942691, "serialpos": 10, "key_press": -1, "wordID": 1544, "type": "PRES_AUD", "trial_index": 207}, "uniqueid": "MTK3778:3A1PQ49WVIOFYTCQ3PAPGS2W2YS1HV", "dateTime": 1521388095065}, {"current_trial": 208, "trialdata": {"rt": -1000, "trial_type": "single-audio", "word": "canyon", "stimulus": "/static/audio/wordpool/CANYON.wav", "conditions": [12, 800, "a", 12000], "internal_node_id": "0.0-154.0", "trial": 5, "time_elapsed": 944426, "serialpos": 11, "key_press": -1, "wordID": 234, "type": "PRES_AUD", "trial_index": 208}, "uniqueid": "MTK3778:3A1PQ49WVIOFYTCQ3PAPGS2W2YS1HV", "dateTime": 1521388096800}, {"current_trial": 209, "trialdata": {"rt": -1, "trial_type": "single-stim", "stimulus": "", "internal_node_id": "0.0-155.0-0.0", "time_elapsed": 945763, "key_press": -1, "type": "PRE_RECALL_DELAY", "trial_index": 209}, "uniqueid": "MTK3778:3A1PQ49WVIOFYTCQ3PAPGS2W2YS1HV", "dateTime": 1521388098137}, {"current_trial": 210, "trialdata": {"rt": -1000, "trial_type": "single-audio", "stimulus": "/static/audio/400Hz.wav", "internal_node_id": "0.0-156.0", "time_elapsed": 946264, "key_press": -1, "type": "PRE_RECALL_ALERT", "trial_index": 210}, "uniqueid": "MTK3778:3A1PQ49WVIOFYTCQ3PAPGS2W2YS1HV", "dateTime": 1521388098639}, {"current_trial": 211, "trialdata": {"rt": [7207, 9155, 12381, 16426, 18196, 29616, 44972, 53295, 57164], "recwords": ["eyelash", "valley", "cannyon", "waitress", "salt", "journey", "table", "bush", "trial"], "key_times": [1527, 2916, 3270, 3512, 3891, 4114, 4354, 4504, 4983, 5134, 5299, 5441, 5564, 5953, 6065, 6235, 6346, 7207, 8372, 8472, 8651, 8787, 8885, 9020, 9155, 9280, 9393, 10632, 10743, 11402, 11588, 11751, 12381, 13588, 13790, 13951, 14096, 14541, 14740, 15026, 15194, 16426, 16883, 17029, 17182, 17492, 18196, 22724, 22907, 23009, 23121, 23232, 23343, 23888, 24040, 24194, 24344, 24508, 24652, 25127, 25402, 25559, 25682, 25828, 25908, 26423, 26585, 26745, 26915, 27103, 27313, 27862, 28192, 28607, 28808, 28998, 29108, 29203, 29616, 41344, 42489, 43724, 43835, 43960, 44176, 44241, 44972, 47499, 47833, 48062, 50239, 53295, 55596, 55810, 56465, 56573, 56702, 57164], "trial_type": "free-recall", "conditions": [12, 800, "a", 12000], "internal_node_id": "0.0-157.0-0.0", "key_presses": [69, 84, 8, 89, 76, 65, 83, 84, 8, 8, 8, 8, 69, 76, 65, 83, 72, 13, 86, 65, 76, 76, 69, 89, 32, 67, 65, 78, 78, 89, 79, 78, 13, 87, 65, 73, 84, 82, 69, 83, 83, 13, 83, 65, 76, 84, 13, 72, 79, 69, 78, 69, 89, 8, 8, 8, 8, 8, 8, 72, 79, 69, 78, 69, 89, 8, 8, 8, 8, 8, 8, 74, 79, 85, 82, 78, 69, 89, 13, 72, 8, 84, 65, 66, 76, 69, 13, 66, 85, 83, 72, 13, 84, 82, 73, 65, 76, 13], "trial": 5, "time_elapsed": 1006271, "type": "FREE_RECALL", "trial_index": 211}, "uniqueid": "MTK3778:3A1PQ49WVIOFYTCQ3PAPGS2W2YS1HV", "dateTime": 1521388158648}, {"current_trial": 212, "trialdata": {"rt": 2326, "trial_type": "text", "internal_node_id": "0.0-158.0", "time_elapsed": 1010606, "key_press": 32, "type": "INSTRUCTIONS", "trial_index": 212}, "uniqueid": "MTK3778:3A1PQ49WVIOFYTCQ3PAPGS2W2YS1HV", "dateTime": 1521388162980}, {"current_trial": 213, "trialdata": {"rt": [3864, 9307], "trial_type": "math-distractor", "key_times": [2725, 2960, 3392, 3532, 3864, 9034, 9138, 9307], "responses": ["16", "14"], "num2": [6, 4, 1], "num3": [5, 7, 8], "conditions": [24, 1600, "a", 12000], "internal_node_id": "0.0-159.0", "key_presses": [49, 53, 8, 54, 13, 49, 52, 13], "trial": 6, "time_elapsed": 1024612, "type": "DISTRACTOR", "trial_index": 213, "num1": [5, 5, 9]}, "uniqueid": "MTK3778:3A1PQ49WVIOFYTCQ3PAPGS2W2YS1HV", "dateTime": 1521388176986}, {"current_trial": 214, "trialdata": {"rt": -1, "trial_type": "single-stim", "stimulus": "<p id=\"stim\">10</p>", "internal_node_id": "0.0-160.0-0.0", "time_elapsed": 1027619, "key_press": -1, "trial_index": 214}, "uniqueid": "MTK3778:3A1PQ49WVIOFYTCQ3PAPGS2W2YS1HV", "dateTime": 1521388179993}, {"current_trial": 215, "trialdata": {"rt": -1, "trial_type": "single-stim", "stimulus": "<p id=\"stim\">9</p>", "internal_node_id": "0.0-160.0-1.0", "time_elapsed": 1028622, "key_press": -1, "trial_index": 215}, "uniqueid": "MTK3778:3A1PQ49WVIOFYTCQ3PAPGS2W2YS1HV", "dateTime": 1521388180996}, {"current_trial": 216, "trialdata": {"rt": -1, "trial_type": "single-stim", "stimulus": "<p id=\"stim\">8</p>", "internal_node_id": "0.0-160.0-2.0", "time_elapsed": 1029627, "key_press": -1, "trial_index": 216}, "uniqueid": "MTK3778:3A1PQ49WVIOFYTCQ3PAPGS2W2YS1HV", "dateTime": 1521388182001}, {"current_trial": 217, "trialdata": {"rt": -1, "trial_type": "single-stim", "stimulus": "<p id=\"stim\">7</p>", "internal_node_id": "0.0-160.0-3.0", "time_elapsed": 1030631, "key_press": -1, "trial_index": 217}, "uniqueid": "MTK3778:3A1PQ49WVIOFYTCQ3PAPGS2W2YS1HV", "dateTime": 1521388183005}, {"current_trial": 218, "trialdata": {"rt": -1, "trial_type": "single-stim", "stimulus": "<p id=\"stim\">6</p>", "internal_node_id": "0.0-160.0-4.0", "time_elapsed": 1031635, "key_press": -1, "trial_index": 218}, "uniqueid": "MTK3778:3A1PQ49WVIOFYTCQ3PAPGS2W2YS1HV", "dateTime": 1521388184010}, {"current_trial": 219, "trialdata": {"rt": -1, "trial_type": "single-stim", "stimulus": "<p id=\"stim\">5</p>", "internal_node_id": "0.0-160.0-5.0", "time_elapsed": 1032640, "key_press": -1, "trial_index": 219}, "uniqueid": "MTK3778:3A1PQ49WVIOFYTCQ3PAPGS2W2YS1HV", "dateTime": 1521388185014}, {"current_trial": 220, "trialdata": {"rt": -1, "trial_type": "single-stim", "stimulus": "<p id=\"stim\">4</p>", "internal_node_id": "0.0-160.0-6.0", "time_elapsed": 1033643, "key_press": -1, "trial_index": 220}, "uniqueid": "MTK3778:3A1PQ49WVIOFYTCQ3PAPGS2W2YS1HV", "dateTime": 1521388186018}, {"current_trial": 221, "trialdata": {"rt": -1, "trial_type": "single-stim", "stimulus": "<p id=\"stim\">3</p>", "internal_node_id": "0.0-160.0-7.0", "time_elapsed": 1034647, "key_press": -1, "trial_index": 221}, "uniqueid": "MTK3778:3A1PQ49WVIOFYTCQ3PAPGS2W2YS1HV", "dateTime": 1521388187021}, {"current_trial": 222, "trialdata": {"rt": -1, "trial_type": "single-stim", "stimulus": "<p id=\"stim\">2</p>", "internal_node_id": "0.0-160.0-8.0", "time_elapsed": 1035652, "key_press": -1, "trial_index": 222}, "uniqueid": "MTK3778:3A1PQ49WVIOFYTCQ3PAPGS2W2YS1HV", "dateTime": 1521388188026}, {"current_trial": 223, "trialdata": {"rt": -1, "trial_type": "single-stim", "stimulus": "<p id=\"stim\">1</p>", "internal_node_id": "0.0-160.0-9.0", "time_elapsed": 1036655, "key_press": -1, "trial_index": 223}, "uniqueid": "MTK3778:3A1PQ49WVIOFYTCQ3PAPGS2W2YS1HV", "dateTime": 1521388189029}, {"current_trial": 224, "trialdata": {"rt": -1, "trial_type": "single-stim", "stimulus": "<p id=\"stim\">+</p>", "internal_node_id": "0.0-161.0-0.0", "time_elapsed": 1038159, "key_press": -1, "type": "FIXATION", "trial_index": 224}, "uniqueid": "MTK3778:3A1PQ49WVIOFYTCQ3PAPGS2W2YS1HV", "dateTime": 1521388190536}, {"current_trial": 225, "trialdata": {"rt": -1000, "trial_type": "single-audio", "word": "barrel", "stimulus": "/static/audio/wordpool/BARREL.wav", "conditions": [24, 1600, "a", 12000], "internal_node_id": "0.0-162.0", "trial": 6, "time_elapsed": 1040859, "serialpos": 0, "key_press": -1, "wordID": 90, "type": "PRES_AUD", "trial_index": 225}, "uniqueid": "MTK3778:3A1PQ49WVIOFYTCQ3PAPGS2W2YS1HV", "dateTime": 1521388193233}, {"current_trial": 226, "trialdata": {"rt": -1000, "trial_type": "single-audio", "word": "victim", "stimulus": "/static/audio/wordpool/VICTIM.wav", "conditions": [24, 1600, "a", 12000], "internal_node_id": "0.0-163.0", "trial": 6, "time_elapsed": 1043343, "serialpos": 1, "key_press": -1, "wordID": 1561, "type": "PRES_AUD", "trial_index": 226}, "uniqueid": "MTK3778:3A1PQ49WVIOFYTCQ3PAPGS2W2YS1HV", "dateTime": 1521388195717}, {"current_trial": 227, "trialdata": {"rt": -1000, "trial_type": "single-audio", "word": "garlic", "stimulus": "/static/audio/wordpool/GARLIC.wav", "conditions": [24, 1600, "a", 12000], "internal_node_id": "0.0-164.0", "trial": 6, "time_elapsed": 1045884, "serialpos": 2, "key_press": -1, "wordID": 623, "type": "PRES_AUD", "trial_index": 227}, "uniqueid": "MTK3778:3A1PQ49WVIOFYTCQ3PAPGS2W2YS1HV", "dateTime": 1521388198259}, {"current_trial": 228, "trialdata": {"rt": 39.319727891324874, "trial_type": "single-audio", "word": "tombstone", "stimulus": "/static/audio/wordpool/TOMBSTONE.wav", "conditions": [24, 1600, "a", 12000], "internal_node_id": "0.0-165.0", "trial": 6, "time_elapsed": 1048295, "serialpos": 3, "key_press": 71, "wordID": 1477, "type": "PRES_AUD", "trial_index": 228}, "uniqueid": "MTK3778:3A1PQ49WVIOFYTCQ3PAPGS2W2YS1HV", "dateTime": 1521388200669}, {"current_trial": 229, "trialdata": {"rt": -1000, "trial_type": "single-audio", "word": "casket", "stimulus": "/static/audio/wordpool/CASKET.wav", "conditions": [24, 1600, "a", 12000], "internal_node_id": "0.0-166.0", "trial": 6, "time_elapsed": 1050728, "serialpos": 4, "key_press": -1, "wordID": 254, "type": "PRES_AUD", "trial_index": 229}, "uniqueid": "MTK3778:3A1PQ49WVIOFYTCQ3PAPGS2W2YS1HV", "dateTime": 1521388203102}, {"current_trial": 230, "trialdata": {"rt": -1000, "trial_type": "single-audio", "word": "uncle", "stimulus": "/static/audio/wordpool/UNCLE.wav", "conditions": [24, 1600, "a", 12000], "internal_node_id": "0.0-167.0", "trial": 6, "time_elapsed": 1053148, "serialpos": 5, "key_press": -1, "wordID": 1535, "type": "PRES_AUD", "trial_index": 230}, "uniqueid": "MTK3778:3A1PQ49WVIOFYTCQ3PAPGS2W2YS1HV", "dateTime": 1521388205522}, {"current_trial": 231, "trialdata": {"rt": -1000, "trial_type": "single-audio", "word": "salad", "stimulus": "/static/audio/wordpool/SALAD.wav", "conditions": [24, 1600, "a", 12000], "internal_node_id": "0.0-168.0", "trial": 6, "time_elapsed": 1055613, "serialpos": 6, "key_press": -1, "wordID": 1223, "type": "PRES_AUD", "trial_index": 231}, "uniqueid": "MTK3778:3A1PQ49WVIOFYTCQ3PAPGS2W2YS1HV", "dateTime": 1521388207987}, {"current_trial": 232, "trialdata": {"rt": -1000, "trial_type": "single-audio", "word": "record", "stimulus": "/static/audio/wordpool/RECORD.wav", "conditions": [24, 1600, "a", 12000], "internal_node_id": "0.0-169.0", "trial": 6, "time_elapsed": 1058164, "serialpos": 7, "key_press": -1, "wordID": 1175, "type": "PRES_AUD", "trial_index": 232}, "uniqueid": "MTK3778:3A1PQ49WVIOFYTCQ3PAPGS2W2YS1HV", "dateTime": 1521388210538}, {"current_trial": 233, "trialdata": {"rt": -1000, "trial_type": "single-audio", "word": "cyclone", "stimulus": "/static/audio/wordpool/CYCLONE.wav", "conditions": [24, 1600, "a", 12000], "internal_node_id": "0.0-170.0", "trial": 6, "time_elapsed": 1060630, "serialpos": 8, "key_press": -1, "wordID": 430, "type": "PRES_AUD", "trial_index": 233}, "uniqueid": "MTK3778:3A1PQ49WVIOFYTCQ3PAPGS2W2YS1HV", "dateTime": 1521388213004}, {"current_trial": 234, "trialdata": {"rt": -1000, "trial_type": "single-audio", "word": "scarecrow", "stimulus": "/static/audio/wordpool/SCARECROW.wav", "conditions": [24, 1600, "a", 12000], "internal_node_id": "0.0-171.0", "trial": 6, "time_elapsed": 1063325, "serialpos": 9, "key_press": -1, "wordID": 1244, "type": "PRES_AUD", "trial_index": 234}, "uniqueid": "MTK3778:3A1PQ49WVIOFYTCQ3PAPGS2W2YS1HV", "dateTime": 1521388215699}, {"current_trial": 235, "trialdata": {"rt": -1000, "trial_type": "single-audio", "word": "bunny", "stimulus": "/static/audio/wordpool/BUNNY.wav", "conditions": [24, 1600, "a", 12000], "internal_node_id": "0.0-172.0", "trial": 6, "time_elapsed": 1065884, "serialpos": 10, "key_press": -1, "wordID": 197, "type": "PRES_AUD", "trial_index": 235}, "uniqueid": "MTK3778:3A1PQ49WVIOFYTCQ3PAPGS2W2YS1HV", "dateTime": 1521388218258}, {"current_trial": 236, "trialdata": {"rt": -1000, "trial_type": "single-audio", "word": "comet", "stimulus": "/static/audio/wordpool/COMET.wav", "conditions": [24, 1600, "a", 12000], "internal_node_id": "0.0-173.0", "trial": 6, "time_elapsed": 1068547, "serialpos": 11, "key_press": -1, "wordID": 352, "type": "PRES_AUD", "trial_index": 236}, "uniqueid": "MTK3778:3A1PQ49WVIOFYTCQ3PAPGS2W2YS1HV", "dateTime": 1521388220921}, {"current_trial": 237, "trialdata": {"rt": -1000, "trial_type": "single-audio", "word": "custard", "stimulus": "/static/audio/wordpool/CUSTARD.wav", "conditions": [24, 1600, "a", 12000], "internal_node_id": "0.0-174.0", "trial": 6, "time_elapsed": 1070963, "serialpos": 12, "key_press": -1, "wordID": 428, "type": "PRES_AUD", "trial_index": 237}, "uniqueid": "MTK3778:3A1PQ49WVIOFYTCQ3PAPGS2W2YS1HV", "dateTime": 1521388223337}, {"current_trial": 238, "trialdata": {"rt": -1000, "trial_type": "single-audio", "word": "seafood", "stimulus": "/static/audio/wordpool/SEAFOOD.wav", "conditions": [24, 1600, "a", 12000], "internal_node_id": "0.0-175.0", "trial": 6, "time_elapsed": 1073750, "serialpos": 13, "key_press": -1, "wordID": 1259, "type": "PRES_AUD", "trial_index": 238}, "uniqueid": "MTK3778:3A1PQ49WVIOFYTCQ3PAPGS2W2YS1HV", "dateTime": 1521388226124}, {"current_trial": 239, "trialdata": {"rt": -1000, "trial_type": "single-audio", "word": "salmon", "stimulus": "/static/audio/wordpool/SALMON.wav", "conditions": [24, 1600, "a", 12000], "internal_node_id": "0.0-176.0", "trial": 6, "time_elapsed": 1076404, "serialpos": 14, "key_press": -1, "wordID": 1226, "type": "PRES_AUD", "trial_index": 239}, "uniqueid": "MTK3778:3A1PQ49WVIOFYTCQ3PAPGS2W2YS1HV", "dateTime": 1521388228778}, {"current_trial": 240, "trialdata": {"rt": -1000, "trial_type": "single-audio", "word": "woman", "stimulus": "/static/audio/wordpool/WOMAN.wav", "conditions": [24, 1600, "a", 12000], "internal_node_id": "0.0-177.0", "trial": 6, "time_elapsed": 1078941, "serialpos": 15, "key_press": -1, "wordID": 1619, "type": "PRES_AUD", "trial_index": 240}, "uniqueid": "MTK3778:3A1PQ49WVIOFYTCQ3PAPGS2W2YS1HV", "dateTime": 1521388231315}, {"current_trial": 241, "trialdata": {"rt": -59.36507936507951, "trial_type": "single-audio", "word": "blade", "stimulus": "/static/audio/wordpool/BLADE.wav", "conditions": [24, 1600, "a", 12000], "internal_node_id": "0.0-178.0", "trial": 6, "time_elapsed": 1081657, "serialpos": 16, "key_press": 86, "wordID": 133, "type": "PRES_AUD", "trial_index": 241}, "uniqueid": "MTK3778:3A1PQ49WVIOFYTCQ3PAPGS2W2YS1HV", "dateTime": 1521388234031}, {"current_trial": 242, "trialdata": {"rt": -1000, "trial_type": "single-audio", "word": "antler", "stimulus": "/static/audio/wordpool/ANTLER.wav", "conditions": [24, 1600, "a", 12000], "internal_node_id": "0.0-179.0", "trial": 6, "time_elapsed": 1084455, "serialpos": 17, "key_press": -1, "wordID": 28, "type": "PRES_AUD", "trial_index": 242}, "uniqueid": "MTK3778:3A1PQ49WVIOFYTCQ3PAPGS2W2YS1HV", "dateTime": 1521388236829}, {"current_trial": 243, "trialdata": {"rt": -1000, "trial_type": "single-audio", "word": "omelet", "stimulus": "/static/audio/wordpool/OMELET.wav", "conditions": [24, 1600, "a", 12000], "internal_node_id": "0.0-180.0", "trial": 6, "time_elapsed": 1087143, "serialpos": 18, "key_press": -1, "wordID": 975, "type": "PRES_AUD", "trial_index": 243}, "uniqueid": "MTK3778:3A1PQ49WVIOFYTCQ3PAPGS2W2YS1HV", "dateTime": 1521388239517}, {"current_trial": 244, "trialdata": {"rt": -1000, "trial_type": "single-audio", "word": "concert", "stimulus": "/static/audio/wordpool/CONCERT.wav", "conditions": [24, 1600, "a", 12000], "internal_node_id": "0.0-181.0", "trial": 6, "time_elapsed": 1089756, "serialpos": 19, "key_press": -1, "wordID": 359, "type": "PRES_AUD", "trial_index": 244}, "uniqueid": "MTK3778:3A1PQ49WVIOFYTCQ3PAPGS2W2YS1HV", "dateTime": 1521388242130}, {"current_trial": 245, "trialdata": {"rt": -1000, "trial_type": "single-audio", "word": "ulcer", "stimulus": "/static/audio/wordpool/ULCER.wav", "conditions": [24, 1600, "a", 12000], "internal_node_id": "0.0-182.0", "trial": 6, "time_elapsed": 1092525, "serialpos": 20, "key_press": -1, "wordID": 1532, "type": "PRES_AUD", "trial_index": 245}, "uniqueid": "MTK3778:3A1PQ49WVIOFYTCQ3PAPGS2W2YS1HV", "dateTime": 1521388244899}, {"current_trial": 246, "trialdata": {"rt": -1000, "trial_type": "single-audio", "word": "iceberg", "stimulus": "/static/audio/wordpool/ICEBERG.wav", "conditions": [24, 1600, "a", 12000], "internal_node_id": "0.0-183.0", "trial": 6, "time_elapsed": 1095032, "serialpos": 21, "key_press": -1, "wordID": 730, "type": "PRES_AUD", "trial_index": 246}, "uniqueid": "MTK3778:3A1PQ49WVIOFYTCQ3PAPGS2W2YS1HV", "dateTime": 1521388247406}, {"current_trial": 247, "trialdata": {"rt": -1000, "trial_type": "single-audio", "word": "bacon", "stimulus": "/static/audio/wordpool/BACON.wav", "conditions": [24, 1600, "a", 12000], "internal_node_id": "0.0-184.0", "trial": 6, "time_elapsed": 1097734, "serialpos": 22, "key_press": -1, "wordID": 66, "type": "PRES_AUD", "trial_index": 247}, "uniqueid": "MTK3778:3A1PQ49WVIOFYTCQ3PAPGS2W2YS1HV", "dateTime": 1521388250109}, {"current_trial": 248, "trialdata": {"rt": -1000, "trial_type": "single-audio", "word": "fruit", "stimulus": "/static/audio/wordpool/FRUIT.wav", "conditions": [24, 1600, "a", 12000], "internal_node_id": "0.0-185.0", "trial": 6, "time_elapsed": 1100257, "serialpos": 23, "key_press": -1, "wordID": 609, "type": "PRES_AUD", "trial_index": 248}, "uniqueid": "MTK3778:3A1PQ49WVIOFYTCQ3PAPGS2W2YS1HV", "dateTime": 1521388252631}, {"current_tr