{"assignmentId": "35L9RVQFCPPV7Q3O5DK9RU7TCFUHUI", "workerId": "MTK3627", "questiondata": {"origin": "United States", "strat-rehearsal": "0", "marital": "Single", "education": "Bachelor's degree", "ethnicity": "Not Hispanic", "color_depth": 24, "distracted": "No", "wrote-notes": "No", "strat-other": "n/a", "screen_width": 1366, "avail_screen_width": 1366, "avail_screen_height": 728, "strat-image": "10", "language": "English", "gender": "Female", "age": "38", "gender_other": "", "race": ["Black"], "strat-categorize": "50", "pixel_depth": 24, "strat-spatial": "0", "strat-story": "50", "race_other": "", "screen_height": 768}, "bonus": 0, "hitId": "3BO3NEOQM0O91S2GFOG12L0UKBOIAJ", "counterbalance": 2547, "useragent": "Mozilla/5.0 (Windows NT 6.3; Win64; x64) AppleWebKit/537.36 (KHTML, like Gecko) Chrome/64.0.3282.186 Safari/537.36", "eventdata": [{"eventtype": "initialized", "interval": 0, "value": null, "timestamp": 1520873585153}, {"eventtype": "window_resize", "interval": 0, "value": [1362, 713], "timestamp": 1520873585153}, {"eventtype": "focus", "interval": 8655, "value": "off", "timestamp": 1520873593808}, {"eventtype": "focus", "interval": 6990, "value": "on", "timestamp": 1520873600798}, {"eventtype": "focus", "interval": 65567, "value": "off", "timestamp": 1520873666365}, {"eventtype": "focus", "interval": 14596, "value": "on", "timestamp": 1520873680961}, {"eventtype": "focus", "interval": 4144, "value": "off", "timestamp": 1520873685105}, {"eventtype": "focus", "interval": 43874, "value": "on", "timestamp": 1520873728979}, {"eventtype": "focus", "interval": 4062, "value": "off", "timestamp": 1520873733041}, {"eventtype": "focus", "interval": 11420, "value": "on", "timestamp": 1520873744461}, {"eventtype": "focus", "interval": 199283, "value": "off", "timestamp": 1520873943744}, {"eventtype": "focus", "interval": 4795, "value": "on", "timestamp": 1520873948539}, {"eventtype": "focus", "interval": 1789365, "value": "off", "timestamp": 1520875737904}, {"eventtype": "focus", "interval": 7839, "value": "on", "timestamp": 1520875745743}, {"eventtype": "focus", "interval": 401047, "value": "off", "timestamp": 1520876146790}, {"eventtype": "focus", "interval": 8994, "value": "on", "timestamp": 1520876155784}], "data": [{"current_trial": 0, "trialdata": {"rt": 4121, "trial_type": "text", "internal_node_id": "0.0-0.0", "time_elapsed": 4135, "key_press": 74, "type": "INSTRUCTIONS", "trial_index": 0}, "uniqueid": "MTK3627:35L9RVQFCPPV7Q3O5DK9RU7TCFUHUI", "dateTime": 1520873590050}, {"current_trial": 1, "trialdata": {"rt": 48986, "trial_type": "text", "internal_node_id": "0.0-1.0", "time_elapsed": 53135, "key_press": 74, "type": "INSTRUCTIONS", "trial_index": 1}, "uniqueid": "MTK3627:35L9RVQFCPPV7Q3O5DK9RU7TCFUHUI", "dateTime": 1520873639042}, {"current_trial": 2, "trialdata": {"rt": [18019], "trial_type": "audio-test", "responses": ["ocean"], "internal_node_id": "0.0-2.0", "time_elapsed": 71192, "type": "AUDIO_TEST", "trial_index": 2}, "uniqueid": "MTK3627:35L9RVQFCPPV7Q3O5DK9RU7TCFUHUI", "dateTime": 1520873657100}, {"current_trial": 3, "trialdata": {"rt": [89881], "trial_type": "audio-test", "responses": ["crystal"], "internal_node_id": "0.0-3.0", "time_elapsed": 161085, "type": "AUDIO_TEST", "trial_index": 3}, "uniqueid": "MTK3627:35L9RVQFCPPV7Q3O5DK9RU7TCFUHUI", "dateTime": 1520873746992}, {"current_trial": 4, "trialdata": {"rt": [7129], "trial_type": "audio-test", "responses": ["spice"], "internal_node_id": "0.0-4.0", "time_elapsed": 168225, "type": "AUDIO_TEST", "trial_index": 4}, "uniqueid": "MTK3627:35L9RVQFCPPV7Q3O5DK9RU7TCFUHUI", "dateTime": 1520873754133}, {"current_trial": 5, "trialdata": {"rt": 52971, "trial_type": "survey-text", "responses": "{\"Q0\":\"10 PM\",\"Q1\":\"8:30\",\"Q2\":\"5\"}", "internal_node_id": "0.0-5.0", "time_elapsed": 221952, "type": "SLEEP_SURVEY", "trial_index": 5}, "uniqueid": "MTK3627:35L9RVQFCPPV7Q3O5DK9RU7TCFUHUI", "dateTime": 1520873807859}, {"current_trial": 6, "trialdata": {"rt": 104659, "trial_type": "text", "internal_node_id": "0.0-6.0", "time_elapsed": 327615, "key_press": 13, "type": "INSTRUCTIONS", "trial_index": 6}, "uniqueid": "MTK3627:35L9RVQFCPPV7Q3O5DK9RU7TCFUHUI", "dateTime": 1520873913522}, {"current_trial": 7, "trialdata": {"rt": 116747, "trial_type": "text", "internal_node_id": "0.0-7.0", "time_elapsed": 444865, "key_press": 13, "type": "INSTRUCTIONS", "trial_index": 7}, "uniqueid": "MTK3627:35L9RVQFCPPV7Q3O5DK9RU7TCFUHUI", "dateTime": 1520874030773}, {"current_trial": 8, "trialdata": {"rt": 11042, "trial_type": "text", "internal_node_id": "0.0-8.0", "time_elapsed": 456414, "key_press": 13, "type": "INSTRUCTIONS", "trial_index": 8}, "uniqueid": "MTK3627:35L9RVQFCPPV7Q3O5DK9RU7TCFUHUI", "dateTime": 1520874042321}, {"current_trial": 9, "trialdata": {"rt": [4164, 9641], "trial_type": "math-distractor", "key_times": [2978, 3519, 4164, 7328, 9641], "responses": ["15", "6"], "num2": [5, 1, 9], "num3": [5, 1, 8], "conditions": [18, 1200, "v", 18000], "internal_node_id": "0.0-9.0", "key_presses": [49, 53, 13, 54, 13], "trial": 0, "time_elapsed": 475442, "type": "DISTRACTOR", "trial_index": 9, "num1": [5, 4, 6]}, "uniqueid": "MTK3627:35L9RVQFCPPV7Q3O5DK9RU7TCFUHUI", "dateTime": 1520874061349}, {"current_trial": 10, "trialdata": {"rt": -1, "trial_type": "single-stim", "stimulus": "<p id=\"stim\">10</p>", "internal_node_id": "0.0-10.0-0.0", "time_elapsed": 478452, "key_press": -1, "trial_index": 10}, "uniqueid": "MTK3627:35L9RVQFCPPV7Q3O5DK9RU7TCFUHUI", "dateTime": 1520874064359}, {"current_trial": 11, "trialdata": {"rt": -1, "trial_type": "single-stim", "stimulus": "<p id=\"stim\">9</p>", "internal_node_id": "0.0-10.0-1.0", "time_elapsed": 479460, "key_press": -1, "trial_index": 11}, "uniqueid": "MTK3627:35L9RVQFCPPV7Q3O5DK9RU7TCFUHUI", "dateTime": 1520874065367}, {"current_trial": 12, "trialdata": {"rt": -1, "trial_type": "single-stim", "stimulus": "<p id=\"stim\">8</p>", "internal_node_id": "0.0-10.0-2.0", "time_elapsed": 480465, "key_press": -1, "trial_index": 12}, "uniqueid": "MTK3627:35L9RVQFCPPV7Q3O5DK9RU7TCFUHUI", "dateTime": 1520874066373}, {"current_trial": 13, "trialdata": {"rt": -1, "trial_type": "single-stim", "stimulus": "<p id=\"stim\">7</p>", "internal_node_id": "0.0-10.0-3.0", "time_elapsed": 481471, "key_press": -1, "trial_index": 13}, "uniqueid": "MTK3627:35L9RVQFCPPV7Q3O5DK9RU7TCFUHUI", "dateTime": 1520874067379}, {"current_trial": 14, "trialdata": {"rt": -1, "trial_type": "single-stim", "stimulus": "<p id=\"stim\">6</p>", "internal_node_id": "0.0-10.0-4.0", "time_elapsed": 482474, "key_press": -1, "trial_index": 14}, "uniqueid": "MTK3627:35L9RVQFCPPV7Q3O5DK9RU7TCFUHUI", "dateTime": 1520874068382}, {"current_trial": 15, "trialdata": {"rt": -1, "trial_type": "single-stim", "stimulus": "<p id=\"stim\">5</p>", "internal_node_id": "0.0-10.0-5.0", "time_elapsed": 483477, "key_press": -1, "trial_index": 15}, "uniqueid": "MTK3627:35L9RVQFCPPV7Q3O5DK9RU7TCFUHUI", "dateTime": 1520874069384}, {"current_trial": 16, "trialdata": {"rt": -1, "trial_type": "single-stim", "stimulus": "<p id=\"stim\">4</p>", "internal_node_id": "0.0-10.0-6.0", "time_elapsed": 484478, "key_press": -1, "trial_index": 16}, "uniqueid": "MTK3627:35L9RVQFCPPV7Q3O5DK9RU7TCFUHUI", "dateTime": 1520874070385}, {"current_trial": 17, "trialdata": {"rt": -1, "trial_type": "single-stim", "stimulus": "<p id=\"stim\">3</p>", "internal_node_id": "0.0-10.0-7.0", "time_elapsed": 485481, "key_press": -1, "trial_index": 17}, "uniqueid": "MTK3627:35L9RVQFCPPV7Q3O5DK9RU7TCFUHUI", "dateTime": 1520874071388}, {"current_trial": 18, "trialdata": {"rt": -1, "trial_type": "single-stim", "stimulus": "<p id=\"stim\">2</p>", "internal_node_id": "0.0-10.0-8.0", "time_elapsed": 486484, "key_press": -1, "trial_index": 18}, "uniqueid": "MTK3627:35L9RVQFCPPV7Q3O5DK9RU7TCFUHUI", "dateTime": 1520874072391}, {"current_trial": 19, "trialdata": {"rt": -1, "trial_type": "single-stim", "stimulus": "<p id=\"stim\">1</p>", "internal_node_id": "0.0-10.0-9.0", "time_elapsed": 487488, "key_press": -1, "trial_index": 19}, "uniqueid": "MTK3627:35L9RVQFCPPV7Q3O5DK9RU7TCFUHUI", "dateTime": 1520874073395}, {"current_trial": 20, "trialdata": {"rt": -1, "trial_type": "single-stim", "stimulus": "<p id=\"stim\">+</p>", "internal_node_id": "0.0-11.0-0.0", "time_elapsed": 489031, "key_press": -1, "type": "FIXATION", "trial_index": 20}, "uniqueid": "MTK3627:35L9RVQFCPPV7Q3O5DK9RU7TCFUHUI", "dateTime": 1520874074938}, {"current_trial": 21, "trialdata": {"rt": -1, "trial_type": "single-stim", "word": "jury", "stimulus": "<p id=\"stim\">JURY</p>", "conditions": [18, 1200, "v", 18000], "internal_node_id": "0.0-12.0", "trial": 0, "time_elapsed": 490236, "serialpos": 0, "key_press": -1, "wordID": 765, "type": "PRES_VIS", "trial_index": 21}, "uniqueid": "MTK3627:35L9RVQFCPPV7Q3O5DK9RU7TCFUHUI", "dateTime": 1520874076143}, {"current_trial": 22, "trialdata": {"rt": -1, "trial_type": "single-stim", "word": "globe", "stimulus": "<p id=\"stim\">GLOBE</p>", "conditions": [18, 1200, "v", 18000], "internal_node_id": "0.0-13.0", "trial": 0, "time_elapsed": 492616, "serialpos": 1, "key_press": -1, "wordID": 640, "type": "PRES_VIS", "trial_index": 22}, "uniqueid": "MTK3627:35L9RVQFCPPV7Q3O5DK9RU7TCFUHUI", "dateTime": 1520874078524}, {"current_trial": 23, "trialdata": {"rt": -1, "trial_type": "single-stim", "word": "server", "stimulus": "<p id=\"stim\">SERVER</p>", "conditions": [18, 1200, "v", 18000], "internal_node_id": "0.0-14.0", "trial": 0, "time_elapsed": 494931, "serialpos": 2, "key_press": -1, "wordID": 1271, "type": "PRES_VIS", "trial_index": 23}, "uniqueid": "MTK3627:35L9RVQFCPPV7Q3O5DK9RU7TCFUHUI", "dateTime": 1520874080838}, {"current_trial": 24, "trialdata": {"rt": -1, "trial_type": "single-stim", "word": "knapsack", "stimulus": "<p id=\"stim\">KNAPSACK</p>", "conditions": [18, 1200, "v", 18000], "internal_node_id": "0.0-15.0", "trial": 0, "time_elapsed": 497298, "serialpos": 3, "key_press": -1, "wordID": 782, "type": "PRES_VIS", "trial_index": 24}, "uniqueid": "MTK3627:35L9RVQFCPPV7Q3O5DK9RU7TCFUHUI", "dateTime": 1520874083205}, {"current_trial": 25, "trialdata": {"rt": -1, "trial_type": "single-stim", "word": "girl", "stimulus": "<p id=\"stim\">GIRL</p>", "conditions": [18, 1200, "v", 18000], "internal_node_id": "0.0-16.0", "trial": 0, "time_elapsed": 499682, "serialpos": 4, "key_press": -1, "wordID": 636, "type": "PRES_VIS", "trial_index": 25}, "uniqueid": "MTK3627:35L9RVQFCPPV7Q3O5DK9RU7TCFUHUI", "dateTime": 1520874085589}, {"current_trial": 26, "trialdata": {"rt": -1, "trial_type": "single-stim", "word": "snail", "stimulus": "<p id=\"stim\">SNAIL</p>", "conditions": [18, 1200, "v", 18000], "internal_node_id": "0.0-17.0", "trial": 0, "time_elapsed": 501902, "serialpos": 5, "key_press": -1, "wordID": 1331, "type": "PRES_VIS", "trial_index": 26}, "uniqueid": "MTK3627:35L9RVQFCPPV7Q3O5DK9RU7TCFUHUI", "dateTime": 1520874087810}, {"current_trial": 27, "trialdata": {"rt": -1, "trial_type": "single-stim", "word": "suspect", "stimulus": "<p id=\"stim\">SUSPECT</p>", "conditions": [18, 1200, "v", 18000], "internal_node_id": "0.0-18.0", "trial": 0, "time_elapsed": 504226, "serialpos": 6, "key_press": -1, "wordID": 1414, "type": "PRES_VIS", "trial_index": 27}, "uniqueid": "MTK3627:35L9RVQFCPPV7Q3O5DK9RU7TCFUHUI", "dateTime": 1520874090134}, {"current_trial": 28, "trialdata": {"rt": -1, "trial_type": "single-stim", "word": "palace", "stimulus": "<p id=\"stim\">PALACE</p>", "conditions": [18, 1200, "v", 18000], "internal_node_id": "0.0-19.0", "trial": 0, "time_elapsed": 506592, "serialpos": 7, "key_press": -1, "wordID": 1005, "type": "PRES_VIS", "trial_index": 28}, "uniqueid": "MTK3627:35L9RVQFCPPV7Q3O5DK9RU7TCFUHUI", "dateTime": 1520874092500}, {"current_trial": 29, "trialdata": {"rt": -1, "trial_type": "single-stim", "word": "spider", "stimulus": "<p id=\"stim\">SPIDER</p>", "conditions": [18, 1200, "v", 18000], "internal_node_id": "0.0-20.0", "trial": 0, "time_elapsed": 508765, "serialpos": 8, "key_press": -1, "wordID": 1350, "type": "PRES_VIS", "trial_index": 29}, "uniqueid": "MTK3627:35L9RVQFCPPV7Q3O5DK9RU7TCFUHUI", "dateTime": 1520874094673}, {"current_trial": 30, "trialdata": {"rt": -1, "trial_type": "single-stim", "word": "seal", "stimulus": "<p id=\"stim\">SEAL</p>", "conditions": [18, 1200, "v", 18000], "internal_node_id": "0.0-21.0", "trial": 0, "time_elapsed": 510916, "serialpos": 9, "key_press": -1, "wordID": 1261, "type": "PRES_VIS", "trial_index": 30}, "uniqueid": "MTK3627:35L9RVQFCPPV7Q3O5DK9RU7TCFUHUI", "dateTime": 1520874096823}, {"current_trial": 31, "trialdata": {"rt": -1, "trial_type": "single-stim", "word": "empire", "stimulus": "<p id=\"stim\">EMPIRE</p>", "conditions": [18, 1200, "v", 18000], "internal_node_id": "0.0-22.0", "trial": 0, "time_elapsed": 513269, "serialpos": 10, "key_press": -1, "wordID": 529, "type": "PRES_VIS", "trial_index": 31}, "uniqueid": "MTK3627:35L9RVQFCPPV7Q3O5DK9RU7TCFUHUI", "dateTime": 1520874099176}, {"current_trial": 32, "trialdata": {"rt": -1, "trial_type": "single-stim", "word": "cloud", "stimulus": "<p id=\"stim\">CLOUD</p>", "conditions": [18, 1200, "v", 18000], "internal_node_id": "0.0-23.0", "trial": 0, "time_elapsed": 515506, "serialpos": 11, "key_press": -1, "wordID": 327, "type": "PRES_VIS", "trial_index": 32}, "uniqueid": "MTK3627:35L9RVQFCPPV7Q3O5DK9RU7TCFUHUI", "dateTime": 1520874101414}, {"current_trial": 33, "trialdata": {"rt": -1, "trial_type": "single-stim", "word": "london", "stimulus": "<p id=\"stim\">LONDON</p>", "conditions": [18, 1200, "v", 18000], "internal_node_id": "0.0-24.0", "trial": 0, "time_elapsed": 517552, "serialpos": 12, "key_press": -1, "wordID": 842, "type": "PRES_VIS", "trial_index": 33}, "uniqueid": "MTK3627:35L9RVQFCPPV7Q3O5DK9RU7TCFUHUI", "dateTime": 1520874103460}, {"current_trial": 34, "trialdata": {"rt": -1, "trial_type": "single-stim", "word": "partner", "stimulus": "<p id=\"stim\">PARTNER</p>", "conditions": [18, 1200, "v", 18000], "internal_node_id": "0.0-25.0", "trial": 0, "time_elapsed": 519754, "serialpos": 13, "key_press": -1, "wordID": 1016, "type": "PRES_VIS", "trial_index": 34}, "uniqueid": "MTK3627:35L9RVQFCPPV7Q3O5DK9RU7TCFUHUI", "dateTime": 1520874105662}, {"current_trial": 35, "trialdata": {"rt": -1, "trial_type": "single-stim", "word": "scarecrow", "stimulus": "<p id=\"stim\">SCARECROW</p>", "conditions": [18, 1200, "v", 18000], "internal_node_id": "0.0-26.0", "trial": 0, "time_elapsed": 522104, "serialpos": 14, "key_press": -1, "wordID": 1244, "type": "PRES_VIS", "trial_index": 35}, "uniqueid": "MTK3627:35L9RVQFCPPV7Q3O5DK9RU7TCFUHUI", "dateTime": 1520874108011}, {"current_trial": 36, "trialdata": {"rt": -1, "trial_type": "single-stim", "word": "saddle", "stimulus": "<p id=\"stim\">SADDLE</p>", "conditions": [18, 1200, "v", 18000], "internal_node_id": "0.0-27.0", "trial": 0, "time_elapsed": 524401, "serialpos": 15, "key_press": -1, "wordID": 1220, "type": "PRES_VIS", "trial_index": 36}, "uniqueid": "MTK3627:35L9RVQFCPPV7Q3O5DK9RU7TCFUHUI", "dateTime": 1520874110310}, {"current_trial": 37, "trialdata": {"rt": -1, "trial_type": "single-stim", "word": "popcorn", "stimulus": "<p id=\"stim\">POPCORN</p>", "conditions": [18, 1200, "v", 18000], "internal_node_id": "0.0-28.0", "trial": 0, "time_elapsed": 526769, "serialpos": 16, "key_press": -1, "wordID": 1103, "type": "PRES_VIS", "trial_index": 37}, "uniqueid": "MTK3627:35L9RVQFCPPV7Q3O5DK9RU7TCFUHUI", "dateTime": 1520874112677}, {"current_trial": 38, "trialdata": {"rt": -1, "trial_type": "single-stim", "word": "hound", "stimulus": "<p id=\"stim\">HOUND</p>", "conditions": [18, 1200, "v", 18000], "internal_node_id": "0.0-29.0", "trial": 0, "time_elapsed": 529068, "serialpos": 17, "key_press": -1, "wordID": 723, "type": "PRES_VIS", "trial_index": 38}, "uniqueid": "MTK3627:35L9RVQFCPPV7Q3O5DK9RU7TCFUHUI", "dateTime": 1520874114975}, {"current_trial": 39, "trialdata": {"rt": -1, "trial_type": "single-stim", "stimulus": "", "internal_node_id": "0.0-30.0-0.0", "time_elapsed": 531408, "key_press": -1, "type": "PRE_RECALL_DELAY", "trial_index": 39}, "uniqueid": "MTK3627:35L9RVQFCPPV7Q3O5DK9RU7TCFUHUI", "dateTime": 1520874117315}, {"current_trial": 40, "trialdata": {"rt": -1000, "trial_type": "single-audio", "stimulus": "/static/audio/400Hz.wav", "internal_node_id": "0.0-31.0", "time_elapsed": 531933, "key_press": -1, "type": "PRE_RECALL_ALERT", "trial_index": 40}, "uniqueid": "MTK3627:35L9RVQFCPPV7Q3O5DK9RU7TCFUHUI", "dateTime": 1520874117840}, {"current_trial": 41, "trialdata": {"rt": [5993, 10077, 12574, 12660, 17597, 22192, 23537, 26454, 29842, 33142, 37242, 41156, 48593, 51278, 55812], "recwords": ["hound", "snapeback", "seal", "\\", "palace", "server", "gir", "girl", "empire", "cloud", "suspect", "snake", "london", "sadd", "saddle"], "key_times": [3340, 3592, 3756, 3880, 4125, 4605, 4796, 5993, 7057, 7503, 8160, 8873, 8992, 9255, 9366, 9485, 9617, 10077, 11557, 11736, 11928, 12097, 12574, 12577, 12660, 14744, 14884, 15015, 15136, 15352, 15550, 15780, 16247, 16587, 16799, 16988, 17151, 17597, 20626, 20894, 21110, 21319, 21509, 21694, 22192, 22927, 23193, 23342, 23537, 25078, 25371, 25519, 25698, 26454, 28454, 28711, 28954, 29180, 29328, 29509, 29842, 31066, 31391, 31585, 31852, 32408, 33142, 34872, 35221, 35489, 35893, 36054, 36485, 36853, 37242, 39930, 40427, 40571, 40718, 40888, 41156, 47153, 47352, 47614, 47828, 48038, 48294, 48593, 50457, 50655, 50811, 50996, 51278, 51288, 51949, 52861, 53229, 53413, 53666, 54078, 54209, 55218, 55366, 55812, 58503, 58955, 59177, 59364, 59600], "trial_type": "free-recall", "conditions": [18, 1200, "v", 18000], "internal_node_id": "0.0-32.0-0.0", "key_presses": [20, 72, 20, 79, 85, 78, 68, 13, 83, 78, 65, 80, 69, 66, 65, 67, 75, 13, 83, 69, 65, 76, 13, 220, 13, 80, 65, 76, 65, 78, 67, 69, 8, 8, 8, 67, 69, 13, 83, 69, 82, 86, 69, 82, 13, 71, 73, 82, 186, 71, 73, 82, 76, 13, 69, 77, 80, 73, 82, 69, 13, 67, 76, 79, 85, 68, 13, 83, 85, 83, 80, 69, 67, 84, 13, 83, 78, 65, 75, 69, 13, 76, 79, 78, 68, 79, 78, 13, 83, 65, 68, 68, 186, 76, 8, 68, 8, 83, 65, 68, 68, 76, 69, 13, 83, 67, 65, 82, 69], "trial": 0, "time_elapsed": 591947, "type": "FREE_RECALL", "trial_index": 41}, "uniqueid": "MTK3627:35L9RVQFCPPV7Q3O5DK9RU7TCFUHUI", "dateTime": 1520874177872}, {"current_trial": 42, "trialdata": {"rt": 2085, "trial_type": "text", "internal_node_id": "0.0-33.0", "time_elapsed": 596052, "key_press": 13, "type": "INSTRUCTIONS", "trial_index": 42}, "uniqueid": "MTK3627:35L9RVQFCPPV7Q3O5DK9RU7TCFUHUI", "dateTime": 1520874181959}, {"current_trial": 43, "trialdata": {"rt": [5159, 8623, 14486], "trial_type": "math-distractor", "key_times": [4255, 5159, 8181, 8383, 8623, 13426, 14141, 14486], "responses": ["9", "11", "17"], "num2": [4, 2, 5, 2], "num3": [6, 8, 3, 6], "conditions": [18, 1200, "v", 18000], "internal_node_id": "0.0-34.0", "key_presses": [57, 13, 49, 49, 13, 49, 55, 13], "trial": 1, "time_elapsed": 616067, "type": "DISTRACTOR", "trial_index": 43, "num1": [1, 1, 9, 6]}, "uniqueid": "MTK3627:35L9RVQFCPPV7Q3O5DK9RU7TCFUHUI", "dateTime": 1520874201974}, {"current_trial": 44, "trialdata": {"rt": -1, "trial_type": "single-stim", "stimulus": "<p id=\"stim\">10</p>", "internal_node_id": "0.0-35.0-0.0", "time_elapsed": 619078, "key_press": -1, "trial_index": 44}, "uniqueid": "MTK3627:35L9RVQFCPPV7Q3O5DK9RU7TCFUHUI", "dateTime": 1520874204986}, {"current_trial": 45, "trialdata": {"rt": -1, "trial_type": "single-stim", "stimulus": "<p id=\"stim\">9</p>", "internal_node_id": "0.0-35.0-1.0", "time_elapsed": 620085, "key_press": -1, "trial_index": 45}, "uniqueid": "MTK3627:35L9RVQFCPPV7Q3O5DK9RU7TCFUHUI", "dateTime": 1520874205992}, {"current_trial": 46, "trialdata": {"rt": -1, "trial_type": "single-stim", "stimulus": "<p id=\"stim\">8</p>", "internal_node_id": "0.0-35.0-2.0", "time_elapsed": 621090, "key_press": -1, "trial_index": 46}, "uniqueid": "MTK3627:35L9RVQFCPPV7Q3O5DK9RU7TCFUHUI", "dateTime": 1520874206998}, {"current_trial": 47, "trialdata": {"rt": -1, "trial_type": "single-stim", "stimulus": "<p id=\"stim\">7</p>", "internal_node_id": "0.0-35.0-3.0", "time_elapsed": 622096, "key_press": -1, "trial_index": 47}, "uniqueid": "MTK3627:35L9RVQFCPPV7Q3O5DK9RU7TCFUHUI", "dateTime": 1520874208004}, {"current_trial": 48, "trialdata": {"rt": -1, "trial_type": "single-stim", "stimulus": "<p id=\"stim\">6</p>", "internal_node_id": "0.0-35.0-4.0", "time_elapsed": 623104, "key_press": -1, "trial_index": 48}, "uniqueid": "MTK3627:35L9RVQFCPPV7Q3O5DK9RU7TCFUHUI", "dateTime": 1520874209012}, {"current_trial": 49, "trialdata": {"rt": -1, "trial_type": "single-stim", "stimulus": "<p id=\"stim\">5</p>", "internal_node_id": "0.0-35.0-5.0", "time_elapsed": 624115, "key_press": -1, "trial_index": 49}, "uniqueid": "MTK3627:35L9RVQFCPPV7Q3O5DK9RU7TCFUHUI", "dateTime": 1520874210023}, {"current_trial": 50, "trialdata": {"rt": -1, "trial_type": "single-stim", "stimulus": "<p id=\"stim\">4</p>", "internal_node_id": "0.0-35.0-6.0", "time_elapsed": 625122, "key_press": -1, "trial_index": 50}, "uniqueid": "MTK3627:35L9RVQFCPPV7Q3O5DK9RU7TCFUHUI", "dateTime": 1520874211033}, {"current_trial": 51, "trialdata": {"rt": -1, "trial_type": "single-stim", "stimulus": "<p id=\"stim\">3</p>", "internal_node_id": "0.0-35.0-7.0", "time_elapsed": 626136, "key_press": -1, "trial_index": 51}, "uniqueid": "MTK3627:35L9RVQFCPPV7Q3O5DK9RU7TCFUHUI", "dateTime": 1520874212043}, {"current_trial": 52, "trialdata": {"rt": -1, "trial_type": "single-stim", "stimulus": "<p id=\"stim\">2</p>", "internal_node_id": "0.0-35.0-8.0", "time_elapsed": 627158, "key_press": -1, "trial_index": 52}, "uniqueid": "MTK3627:35L9RVQFCPPV7Q3O5DK9RU7TCFUHUI", "dateTime": 1520874213065}, {"current_trial": 53, "trialdata": {"rt": -1, "trial_type": "single-stim", "stimulus": "<p id=\"stim\">1</p>", "internal_node_id": "0.0-35.0-9.0", "time_elapsed": 628166, "key_press": -1, "trial_index": 53}, "uniqueid": "MTK3627:35L9RVQFCPPV7Q3O5DK9RU7TCFUHUI", "dateTime": 1520874214074}, {"current_trial": 54, "trialdata": {"rt": -1, "trial_type": "single-stim", "stimulus": "<p id=\"stim\">+</p>", "internal_node_id": "0.0-36.0-0.0", "time_elapsed": 629682, "key_press": -1, "type": "FIXATION", "trial_index": 54}, "uniqueid": "MTK3627:35L9RVQFCPPV7Q3O5DK9RU7TCFUHUI", "dateTime": 1520874215590}, {"current_trial": 55, "trialdata": {"rt": -1, "trial_type": "single-stim", "word": "piston", "stimulus": "<p id=\"stim\">PISTON</p>", "conditions": [18, 1200, "v", 18000], "internal_node_id": "0.0-37.0", "trial": 1, "time_elapsed": 630891, "serialpos": 0, "key_press": -1, "wordID": 1075, "type": "PRES_VIS", "trial_index": 55}, "uniqueid": "MTK3627:35L9RVQFCPPV7Q3O5DK9RU7TCFUHUI", "dateTime": 1520874216798}, {"current_trial": 56, "trialdata": {"rt": -1, "trial_type": "single-stim", "word": "barrel", "stimulus": "<p id=\"stim\">BARREL</p>", "conditions": [18, 1200, "v", 18000], "internal_node_id": "0.0-38.0", "trial": 1, "time_elapsed": 632917, "serialpos": 1, "key_press": -1, "wordID": 90, "type": "PRES_VIS", "trial_index": 56}, "uniqueid": "MTK3627:35L9RVQFCPPV7Q3O5DK9RU7TCFUHUI", "dateTime": 1520874218825}, {"current_trial": 57, "trialdata": {"rt": -1, "trial_type": "single-stim", "word": "kidney", "stimulus": "<p id=\"stim\">KIDNEY</p>", "conditions": [18, 1200, "v", 18000], "internal_node_id": "0.0-39.0", "trial": 1, "time_elapsed": 635012, "serialpos": 2, "key_press": -1, "wordID": 775, "type": "PRES_VIS", "trial_index": 57}, "uniqueid": "MTK3627:35L9RVQFCPPV7Q3O5DK9RU7TCFUHUI", "dateTime": 1520874220920}, {"current_trial": 58, "trialdata": {"rt": -1, "trial_type": "single-stim", "word": "plaid", "stimulus": "<p id=\"stim\">PLAID</p>", "conditions": [18, 1200, "v", 18000], "internal_node_id": "0.0-40.0", "trial": 1, "time_elapsed": 637383, "serialpos": 3, "key_press": -1, "wordID": 1079, "type": "PRES_VIS", "trial_index": 58}, "uniqueid": "MTK3627:35L9RVQFCPPV7Q3O5DK9RU7TCFUHUI", "dateTime": 1520874223290}, {"current_trial": 59, "trialdata": {"rt": -1, "trial_type": "single-stim", "word": "snack", "stimulus": "<p id=\"stim\">SNACK</p>", "conditions": [18, 1200, "v", 18000], "internal_node_id": "0.0-41.0", "trial": 1, "time_elapsed": 639400, "serialpos": 4, "key_press": -1, "wordID": 1330, "type": "PRES_VIS", "trial_index": 59}, "uniqueid": "MTK3627:35L9RVQFCPPV7Q3O5DK9RU7TCFUHUI", "dateTime": 1520874225307}, {"current_trial": 60, "trialdata": {"rt": -1, "trial_type": "single-stim", "word": "racket", "stimulus": "<p id=\"stim\">RACKET</p>", "conditions": [18, 1200, "v", 18000], "internal_node_id": "0.0-42.0", "trial": 1, "time_elapsed": 641719, "serialpos": 5, "key_press": -1, "wordID": 1154, "type": "PRES_VIS", "trial_index": 60}, "uniqueid": "MTK3627:35L9RVQFCPPV7Q3O5DK9RU7TCFUHUI", "dateTime": 1520874227626}, {"current_trial": 61, "trialdata": {"rt": -1, "trial_type": "single-stim", "word": "dress", "stimulus": "<p id=\"stim\">DRESS</p>", "conditions": [18, 1200, "v", 18000], "internal_node_id": "0.0-43.0", "trial": 1, "time_elapsed": 643792, "serialpos": 6, "key_press": -1, "wordID": 494, "type": "PRES_VIS", "trial_index": 61}, "uniqueid": "MTK3627:35L9RVQFCPPV7Q3O5DK9RU7TCFUHUI", "dateTime": 1520874229699}, {"current_trial": 62, "trialdata": {"rt": -1, "trial_type": "single-stim", "word": "lumber", "stimulus": "<p id=\"stim\">LUMBER</p>", "conditions": [18, 1200, "v", 18000], "internal_node_id": "0.0-44.0", "trial": 1, "time_elapsed": 645943, "serialpos": 7, "key_press": -1, "wordID": 847, "type": "PRES_VIS", "trial_index": 62}, "uniqueid": "MTK3627:35L9RVQFCPPV7Q3O5DK9RU7TCFUHUI", "dateTime": 1520874231851}, {"current_trial": 63, "trialdata": {"rt": -1, "trial_type": "single-stim", "word": "pigeon", "stimulus": "<p id=\"stim\">PIGEON</p>", "conditions": [18, 1200, "v", 18000], "internal_node_id": "0.0-45.0", "trial": 1, "time_elapsed": 648312, "serialpos": 8, "key_press": -1, "wordID": 1064, "type": "PRES_VIS", "trial_index": 63}, "uniqueid": "MTK3627:35L9RVQFCPPV7Q3O5DK9RU7TCFUHUI", "dateTime": 1520874234219}, {"current_trial": 64, "trialdata": {"rt": -1, "trial_type": "single-stim", "word": "rust", "stimulus": "<p id=\"stim\">RUST</p>", "conditions": [18, 1200, "v", 18000], "internal_node_id": "0.0-46.0", "trial": 1, "time_elapsed": 650468, "serialpos": 9, "key_press": -1, "wordID": 1218, "type": "PRES_VIS", "trial_index": 64}, "uniqueid": "MTK3627:35L9RVQFCPPV7Q3O5DK9RU7TCFUHUI", "dateTime": 1520874236376}, {"current_trial": 65, "trialdata": {"rt": -1, "trial_type": "single-stim", "word": "transplant", "stimulus": "<p id=\"stim\">TRANSPLANT</p>", "conditions": [18, 1200, "v", 18000], "internal_node_id": "0.0-47.0", "trial": 1, "time_elapsed": 652815, "serialpos": 10, "key_press": -1, "wordID": 1495, "type": "PRES_VIS", "trial_index": 65}, "uniqueid": "MTK3627:35L9RVQFCPPV7Q3O5DK9RU7TCFUHUI", "dateTime": 1520874238723}, {"current_trial": 66, "trialdata": {"rt": -1, "trial_type": "single-stim", "word": "cabin", "stimulus": "<p id=\"stim\">CABIN</p>", "conditions": [18, 1200, "v", 18000], "internal_node_id": "0.0-48.0", "trial": 1, "time_elapsed": 655057, "serialpos": 11, "key_press": -1, "wordID": 210, "type": "PRES_VIS", "trial_index": 66}, "uniqueid": "MTK3627:35L9RVQFCPPV7Q3O5DK9RU7TCFUHUI", "dateTime": 1520874240966}, {"current_trial": 67, "trialdata": {"rt": -1, "trial_type": "single-stim", "word": "powder", "stimulus": "<p id=\"stim\">POWDER</p>", "conditions": [18, 1200, "v", 18000], "internal_node_id": "0.0-49.0", "trial": 1, "time_elapsed": 657373, "serialpos": 12, "key_press": -1, "wordID": 1116, "type": "PRES_VIS", "trial_index": 67}, "uniqueid": "MTK3627:35L9RVQFCPPV7Q3O5DK9RU7TCFUHUI", "dateTime": 1520874243281}, {"current_trial": 68, "trialdata": {"rt": -1, "trial_type": "single-stim", "word": "dolphin", "stimulus": "<p id=\"stim\">DOLPHIN</p>", "conditions": [18, 1200, "v", 18000], "internal_node_id": "0.0-50.0", "trial": 1, "time_elapsed": 659517, "serialpos": 13, "key_press": -1, "wordID": 482, "type": "PRES_VIS", "trial_index": 68}, "uniqueid": "MTK3627:35L9RVQFCPPV7Q3O5DK9RU7TCFUHUI", "dateTime": 1520874245432}, {"current_trial": 69, "trialdata": {"rt": -1, "trial_type": "single-stim", "word": "laser", "stimulus": "<p id=\"stim\">LASER</p>", "conditions": [18, 1200, "v", 18000], "internal_node_id": "0.0-51.0", "trial": 1, "time_elapsed": 661690, "serialpos": 14, "key_press": -1, "wordID": 800, "type": "PRES_VIS", "trial_index": 69}, "uniqueid": "MTK3627:35L9RVQFCPPV7Q3O5DK9RU7TCFUHUI", "dateTime": 1520874247598}, {"current_trial": 70, "trialdata": {"rt": -1, "trial_type": "single-stim", "word": "basement", "stimulus": "<p id=\"stim\">BASEMENT</p>", "conditions": [18, 1200, "v", 18000], "internal_node_id": "0.0-52.0", "trial": 1, "time_elapsed": 663927, "serialpos": 15, "key_press": -1, "wordID": 93, "type": "PRES_VIS", "trial_index": 70}, "uniqueid": "MTK3627:35L9RVQFCPPV7Q3O5DK9RU7TCFUHUI", "dateTime": 1520874249834}, {"current_trial": 71, "trialdata": {"rt": -1, "trial_type": "single-stim", "word": "perfume", "stimulus": "<p id=\"stim\">PERFUME</p>", "conditions": [18, 1200, "v", 18000], "internal_node_id": "0.0-53.0", "trial": 1, "time_elapsed": 666193, "serialpos": 16, "key_press": -1, "wordID": 1048, "type": "PRES_VIS", "trial_index": 71}, "uniqueid": "MTK3627:35L9RVQFCPPV7Q3O5DK9RU7TCFUHUI", "dateTime": 1520874252101}, {"current_trial": 72, "trialdata": {"rt": -1, "trial_type": "single-stim", "word": "queen", "stimulus": "<p id=\"stim\">QUEEN</p>", "conditions": [18, 1200, "v", 18000], "internal_node_id": "0.0-54.0", "trial": 1, "time_elapsed": 668401, "serialpos": 17, "key_press": -1, "wordID": 1148, "type": "PRES_VIS", "trial_index": 72}, "uniqueid": "MTK3627:35L9RVQFCPPV7Q3O5DK9RU7TCFUHUI", "dateTime": 1520874254308}, {"current_trial": 73, "trialdata": {"rt": -1, "trial_type": "single-stim", "stimulus": "", "internal_node_id": "0.0-55.0-0.0", "time_elapsed": 670629, "key_press": -1, "type": "PRE_RECALL_DELAY", "trial_index": 73}, "uniqueid": "MTK3627:35L9RVQFCPPV7Q3O5DK9RU7TCFUHUI", "dateTime": 1520874256536}, {"current_trial": 74, "trialdata": {"rt": -1000, "trial_type": "single-audio", "stimulus": "/static/audio/400Hz.wav", "internal_node_id": "0.0-56.0", "time_elapsed": 671137, "key_press": -1, "type": "PRE_RECALL_ALERT", "trial_index": 74}, "uniqueid": "MTK3627:35L9RVQFCPPV7Q3O5DK9RU7TCFUHUI", "dateTime": 1520874257044}, {"current_trial": 75, "trialdata": {"rt": [10764, 22608, 32225, 34519, 37768, 40854, 43439, 47334, 49682, 57993], "recwords": ["rust", "pistol", "dolphin", "cabin", "queen", "snack", "kidney", "plaid", "powder", "basment"], "key_times": [9339, 9698, 9884, 9936, 10196, 10379, 10764, 18651, 18947, 19144, 19340, 20932, 22067, 22608, 25912, 26289, 26574, 26844, 27398, 27543, 27674, 27929, 28274, 28683, 28897, 29217, 29540, 29780, 30033, 30579, 30945, 31577, 31780, 32225, 33053, 33237, 33429, 33716, 33996, 34519, 36535, 36792, 37021, 37122, 37346, 37768, 39062, 39771, 39993, 40156, 40383, 40854, 41923, 42100, 42230, 42394, 42633, 42817, 43439, 45643, 45910, 46164, 46585, 46775, 47334, 47959, 48172, 48367, 48785, 49010, 49202, 49682, 54467, 54604, 54695, 54882, 55467, 55932, 56160, 56267, 57419, 57993], "trial_type": "free-recall", "conditions": [18, 1200, "v", 18000], "internal_node_id": "0.0-57.0-0.0", "key_presses": [20, 82, 20, 85, 83, 84, 13, 80, 73, 83, 84, 79, 76, 13, 68, 79, 83, 80, 8, 8, 8, 76, 8, 79, 76, 80, 72, 79, 78, 8, 8, 73, 78, 13, 67, 65, 66, 73, 78, 13, 81, 85, 69, 69, 78, 13, 83, 78, 65, 67, 75, 13, 75, 73, 68, 78, 69, 89, 13, 80, 76, 65, 73, 68, 13, 80, 79, 87, 68, 69, 82, 13, 66, 65, 83, 78, 8, 77, 69, 78, 84, 13], "trial": 1, "time_elapsed": 731157, "type": "FREE_RECALL", "trial_index": 75}, "uniqueid": "MTK3627:35L9RVQFCPPV7Q3O5DK9RU7TCFUHUI", "dateTime": 1520874317079}, {"current_trial": 76, "trialdata": {"rt": 43968, "trial_type": "text", "internal_node_id": "0.0-58.0", "time_elapsed": 777146, "key_press": 13, "type": "INSTRUCTIONS", "trial_index": 76}, "uniqueid": "MTK3627:35L9RVQFCPPV7Q3O5DK9RU7TCFUHUI", "dateTime": 1520874363053}, {"current_trial": 77, "trialdata": {"rt": [5904], "trial_type": "math-distractor", "key_times": [4263, 4687, 5078, 5620, 5904], "responses": ["13"], "num2": [7, 5], "num3": [2, 8], "conditions": [12, 1600, "v", 12000], "internal_node_id": "0.0-59.0", "key_presses": [49, 51, 220, 8, 13], "trial": 2, "time_elapsed": 790159, "type": "DISTRACTOR", "trial_index": 77, "num1": [4, 6]}, "uniqueid": "MTK3627:35L9RVQFCPPV7Q3O5DK9RU7TCFUHUI", "dateTime": 1520874376067}, {"current_trial": 78, "trialdata": {"rt": -1, "trial_type": "single-stim", "stimulus": "<p id=\"stim\">10</p>", "internal_node_id": "0.0-60.0-0.0", "time_elapsed": 793168, "key_press": -1, "trial_index": 78}, "uniqueid": "MTK3627:35L9RVQFCPPV7Q3O5DK9RU7TCFUHUI", "dateTime": 1520874379076}, {"current_trial": 79, "trialdata": {"rt": -1, "trial_type": "single-stim", "stimulus": "<p id=\"stim\">9</p>", "internal_node_id": "0.0-60.0-1.0", "time_elapsed": 794173, "key_press": -1, "trial_index": 79}, "uniqueid": "MTK3627:35L9RVQFCPPV7Q3O5DK9RU7TCFUHUI", "dateTime": 1520874380081}, {"current_trial": 80, "trialdata": {"rt": -1, "trial_type": "single-stim", "stimulus": "<p id=\"stim\">8</p>", "internal_node_id": "0.0-60.0-2.0", "time_elapsed": 795180, "key_press": -1, "trial_index": 80}, "uniqueid": "MTK3627:35L9RVQFCPPV7Q3O5DK9RU7TCFUHUI", "dateTime": 1520874381088}, {"current_trial": 81, "trialdata": {"rt": -1, "trial_type": "single-stim", "stimulus": "<p id=\"stim\">7</p>", "internal_node_id": "0.0-60.0-3.0", "time_elapsed": 796186, "key_press": -1, "trial_index": 81}, "uniqueid": "MTK3627:35L9RVQFCPPV7Q3O5DK9RU7TCFUHUI", "dateTime": 1520874382094}, {"current_trial": 82, "trialdata": {"rt": -1, "trial_type": "single-stim", "stimulus": "<p id=\"stim\">6</p>", "internal_node_id": "0.0-60.0-4.0", "time_elapsed": 797194, "key_press": -1, "trial_index": 82}, "uniqueid": "MTK3627:35L9RVQFCPPV7Q3O5DK9RU7TCFUHUI", "dateTime": 1520874383102}, {"current_trial": 83, "trialdata": {"rt": -1, "trial_type": "single-stim", "stimulus": "<p id=\"stim\">5</p>", "internal_node_id": "0.0-60.0-5.0", "time_elapsed": 798200, "key_press": -1, "trial_index": 83}, "uniqueid": "MTK3627:35L9RVQFCPPV7Q3O5DK9RU7TCFUHUI", "dateTime": 1520874384107}, {"current_trial": 84, "trialdata": {"rt": -1, "trial_type": "single-stim", "stimulus": "<p id=\"stim\">4</p>", "internal_node_id": "0.0-60.0-6.0", "time_elapsed": 799204, "key_press": -1, "trial_index": 84}, "uniqueid": "MTK3627:35L9RVQFCPPV7Q3O5DK9RU7TCFUHUI", "dateTime": 1520874385112}, {"current_trial": 85, "trialdata": {"rt": -1, "trial_type": "single-stim", "stimulus": "<p id=\"stim\">3</p>", "internal_node_id": "0.0-60.0-7.0", "time_elapsed": 800209, "key_press": -1, "trial_index": 85}, "uniqueid": "MTK3627:35L9RVQFCPPV7Q3O5DK9RU7TCFUHUI", "dateTime": 1520874386117}, {"current_trial": 86, "trialdata": {"rt": -1, "trial_type": "single-stim", "stimulus": "<p id=\"stim\">2</p>", "internal_node_id": "0.0-60.0-8.0", "time_elapsed": 801217, "key_press": -1, "trial_index": 86}, "uniqueid": "MTK3627:35L9RVQFCPPV7Q3O5DK9RU7TCFUHUI", "dateTime": 1520874387124}, {"current_trial": 87, "trialdata": {"rt": -1, "trial_type": "single-stim", "stimulus": "<p id=\"stim\">1</p>", "internal_node_id": "0.0-60.0-9.0", "time_elapsed": 802223, "key_press": -1, "trial_index": 87}, "uniqueid": "MTK3627:35L9RVQFCPPV7Q3O5DK9RU7TCFUHUI", "dateTime": 1520874388130}, {"current_trial": 88, "trialdata": {"rt": -1, "trial_type": "single-stim", "stimulus": "<p id=\"stim\">+</p>", "internal_node_id": "0.0-61.0-0.0", "time_elapsed": 803728, "key_press": -1, "type": "FIXATION", "trial_index": 88}, "uniqueid": "MTK3627:35L9RVQFCPPV7Q3O5DK9RU7TCFUHUI", "dateTime": 1520874389636}, {"current_trial": 89, "trialdata": {"rt": -1, "trial_type": "single-stim", "word": "county", "stimulus": "<p id=\"stim\">COUNTY</p>", "conditions": [12, 1600, "v", 12000], "internal_node_id": "0.0-62.0", "trial": 2, "time_elapsed": 805333, "serialpos": 0, "key_press": -1, "wordID": 388, "type": "PRES_VIS", "trial_index": 89}, "uniqueid": "MTK3627:35L9RVQFCPPV7Q3O5DK9RU7TCFUHUI", "dateTime": 1520874391241}, {"current_trial": 90, "trialdata": {"rt": -1, "trial_type": "single-stim", "word": "icing", "stimulus": "<p id=\"stim\">ICING</p>", "conditions": [12, 1600, "v", 12000], "internal_node_id": "0.0-63.0", "trial": 2, "time_elapsed": 807922, "serialpos": 1, "key_press": -1, "wordID": 731, "type": "PRES_VIS", "trial_index": 90}, "uniqueid": "MTK3627:35L9RVQFCPPV7Q3O5DK9RU7TCFUHUI", "dateTime": 1520874393829}, {"current_trial": 91, "trialdata": {"rt": -1, "trial_type": "single-stim", "word": "tile", "stimulus": "<p id=\"stim\">TILE</p>", "conditions": [12, 1600, "v", 12000], "internal_node_id": "0.0-64.0", "trial": 2, "time_elapsed": 810522, "serialpos": 2, "key_press": -1, "wordID": 1467, "type": "PRES_VIS", "trial_index": 91}, "uniqueid": "MTK3627:35L9RVQFCPPV7Q3O5DK9RU7TCFUHUI", "dateTime": 1520874396429}, {"current_trial": 92, "trialdata": {"rt": -1, "trial_type": "single-stim", "word": "brick", "stimulus": "<p id=\"stim\">BRICK</p>", "conditions": [12, 1600, "v", 12000], "internal_node_id": "0.0-65.0", "trial": 2, "time_elapsed": 813001, "serialpos": 3, "key_press": -1, "wordID": 171, "type": "PRES_VIS", "trial_index": 92}, "uniqueid": "MTK3627:35L9RVQFCPPV7Q3O5DK9RU7TCFUHUI", "dateTime": 1520874398909}, {"current_trial": 93, "trialdata": {"rt": -1, "trial_type": "single-stim", "word": "nomad", "stimulus": "<p id=\"stim\">NOMAD</p>", "conditions": [12, 1600, "v", 12000], "internal_node_id": "0.0-66.0", "trial": 2, "time_elapsed": 815514, "serialpos": 4, "key_press": -1, "wordID": 954, "type": "PRES_VIS", "trial_index": 93}, "uniqueid": "MTK3627:35L9RVQFCPPV7Q3O5DK9RU7TCFUHUI", "dateTime": 1520874401422}, {"current_trial": 94, "trialdata": {"rt": -1, "trial_type": "single-stim", "word": "sheriff", "stimulus": "<p id=\"stim\">SHERIFF</p>", "conditions": [12, 1600, "v", 12000], "internal_node_id": "0.0-67.0", "trial": 2, "time_elapsed": 818295, "serialpos": 5, "key_press": -1, "wordID": 1283, "type": "PRES_VIS", "trial_index": 94}, "uniqueid": "MTK3627:35L9RVQFCPPV7Q3O5DK9RU7TCFUHUI", "dateTime": 1520874404202}, {"current_trial": 95, "trialdata": {"rt": -1, "trial_type": "single-stim", "word": "kitchen", "stimulus": "<p id=\"stim\">KITCHEN</p>", "conditions": [12, 1600, "v", 12000], "internal_node_id": "0.0-68.0", "trial": 2, "time_elapsed": 820960, "serialpos": 6, "key_press": -1, "wordID": 777, "type": "PRES_VIS", "trial_index": 95}, "uniqueid": "MTK3627:35L9RVQFCPPV7Q3O5DK9RU7TCFUHUI", "dateTime": 1520874406867}, {"current_trial": 96, "trialdata": {"rt": -1, "trial_type": "single-stim", "word": "lunch", "stimulus": "<p id=\"stim\">LUNCH</p>", "conditions": [12, 1600, "v", 12000], "internal_node_id": "0.0-69.0", "trial": 2, "time_elapsed": 823458, "serialpos": 7, "key_press": -1, "wordID": 848, "type": "PRES_VIS", "trial_index": 96}, "uniqueid": "MTK3627:35L9RVQFCPPV7Q3O5DK9RU7TCFUHUI", "dateTime": 1520874409365}, {"current_trial": 97, "trialdata": {"rt": -1, "trial_type": "single-stim", "word": "sunset", "stimulus": "<p id=\"stim\">SUNSET</p>", "conditions": [12, 1600, "v", 12000], "internal_node_id": "0.0-70.0", "trial": 2, "time_elapsed": 826077, "serialpos": 8, "key_press": -1, "wordID": 1407, "type": "PRES_VIS", "trial_index": 97}, "uniqueid": "MTK3627:35L9RVQFCPPV7Q3O5DK9RU7TCFUHUI", "dateTime": 1520874411984}, {"current_trial": 98, "trialdata": {"rt": -1, "trial_type": "single-stim", "word": "parrot", "stimulus": "<p id=\"stim\">PARROT</p>", "conditions": [12, 1600, "v", 12000], "internal_node_id": "0.0-71.0", "trial": 2, "time_elapsed": 828668, "serialpos": 9, "key_press": -1, "wordID": 1014, "type": "PRES_VIS", "trial_index": 98}, "uniqueid": "MTK3627:35L9RVQFCPPV7Q3O5DK9RU7TCFUHUI", "dateTime": 1520874414575}, {"current_trial": 99, "trialdata": {"rt": -1, "trial_type": "single-stim", "word": "slide", "stimulus": "<p id=\"stim\">SLIDE</p>", "conditions": [12, 1600, "v", 12000], "internal_node_id": "0.0-72.0", "trial": 2, "time_elapsed": 831160, "serialpos": 10, "key_press": -1, "wordID": 1325, "type": "PRES_VIS", "trial_index": 99}, "uniqueid": "MTK3627:35L9RVQFCPPV7Q3O5DK9RU7TCFUHUI", "dateTime": 1520874417067}, {"current_trial": 100, "trialdata": {"rt": -1, "trial_type": "single-stim", "word": "army", "stimulus": "<p id=\"stim\">ARMY</p>", "conditions": [12, 1600, "v", 12000], "internal_node_id": "0.0-73.0", "trial": 2, "time_elapsed": 833737, "serialpos": 11, "key_press": -1, "wordID": 38, "type": "PRES_VIS", "trial_index": 100}, "uniqueid": "MTK3627:35L9RVQFCPPV7Q3O5DK9RU7TCFUHUI", "dateTime": 1520874419645}, {"current_trial": 101, "trialdata": {"rt": -1, "trial_type": "single-stim", "stimulus": "", "internal_node_id": "0.0-74.0-0.0", "time_elapsed": 836266, "key_press": -1, "type": "PRE_RECALL_DELAY", "trial_index": 101}, "uniqueid": "MTK3627:35L9RVQFCPPV7Q3O5DK9RU7TCFUHUI", "dateTime": 1520874422173}, {"current_trial": 102, "trialdata": {"rt": -1000, "trial_type": "single-audio", "stimulus": "/static/audio/400Hz.wav", "internal_node_id": "0.0-75.0", "time_elapsed": 836779, "key_press": -1, "type": "PRE_RECALL_ALERT", "trial_index": 102}, "uniqueid": "MTK3627:35L9RVQFCPPV7Q3O5DK9RU7TCFUHUI", "dateTime": 1520874422686}, {"current_trial": 103, "trialdata": {"rt": [5241, 8236, 11106, 14011, 18288, 21746, 26498, 32119, 36217, 40532, 45237, 49950, 58283], "recwords": ["county", "lunch", "icing", "sunset", "title", "brick", "parrot", "army", "nomad", "sheriff", "slide", "kitchen", "parrot"], "key_times": [3109, 3298, 3540, 3744, 4061, 4267, 5241, 7068, 7325, 7557, 7763, 7804, 8236, 9981, 10139, 10239, 10429, 10680, 11106, 12324, 12529, 12740, 13059, 13235, 13512, 14011, 15961, 16263, 16568, 17225, 17561, 17738, 17914, 18288, 19983, 20145, 20278, 20439, 20535, 21746, 22951, 23095, 23637, 23856, 23966, 24444, 24492, 25424, 25637, 26016, 26498, 27644, 29394, 29620, 29825, 30095, 30602, 32119, 35054, 35408, 35669, 35821, 35970, 36217, 37813, 37916, 38076, 38505, 39107, 39266, 39426, 39661, 40336, 40532, 44128, 44483, 44764, 44904, 45096, 45237, 48241, 48424, 48866, 49110, 49187, 49353, 49493, 49950, 56897, 57014, 57258, 57401, 57532, 57916, 58283], "trial_type": "free-recall", "conditions": [12, 1600, "v", 12000], "internal_node_id": "0.0-76.0-0.0", "key_presses": [67, 79, 85, 78, 84, 89, 13, 76, 85, 78, 67, 72, 13, 73, 67, 73, 78, 71, 13, 83, 85, 78, 83, 69, 84, 13, 84, 73, 89, 8, 84, 76, 69, 13, 66, 82, 73, 67, 75, 13, 80, 65, 82, 82, 79, 89, 84, 8, 8, 84, 13, 83, 8, 65, 82, 77, 89, 13, 78, 79, 77, 65, 68, 13, 83, 72, 69, 73, 8, 82, 73, 70, 70, 13, 83, 76, 73, 68, 69, 13, 75, 73, 84, 67, 72, 69, 78, 13, 80, 65, 82, 82, 79, 84, 13], "trial": 2, "time_elapsed": 896779, "type": "FREE_RECALL", "trial_index": 103}, "uniqueid": "MTK3627:35L9RVQFCPPV7Q3O5DK9RU7TCFUHUI", "dateTime": 1520874482700}, {"current_trial": 104, "trialdata": {"rt": 2363, "trial_type": "text", "internal_node_id": "0.0-77.0", "time_elapsed": 901158, "key_press": 13, "type": "INSTRUCTIONS", "trial_index": 104}, "uniqueid": "MTK3627:35L9RVQFCPPV7Q3O5DK9RU7TCFUHUI", "dateTime": 1520874487066}, {"current_trial": 105, "trialdata": {"rt": [3386], "trial_type": "math-distractor", "key_times": [2638, 3077, 3386], "responses": ["14"], "num2": [2, 9], "num3": [6, 4], "conditions": [24, 1600, "v", 12000], "internal_node_id": "0.0-78.0", "key_presses": [49, 52, 13], "trial": 3, "time_elapsed": 915181, "type": "DISTRACTOR", "trial_index": 105, "num1": [6, 7]}, "uniqueid": "MTK3627:35L9RVQFCPPV7Q3O5DK9RU7TCFUHUI", "dateTime": 1520874501088}, {"current_trial": 106, "trialdata": {"rt": -1, "trial_type": "single-stim", "stimulus": "<p id=\"stim\">10</p>", "internal_node_id": "0.0-79.0-0.0", "time_elapsed": 918204, "key_press": -1, "trial_index": 106}, "uniqueid": "MTK3627:35L9RVQFCPPV7Q3O5DK9RU7TCFUHUI", "dateTime": 1520874504112}, {"current_trial": 107, "trialdata": {"rt": -1, "trial_type": "single-stim", "stimulus": "<p id=\"stim\">9</p>", "internal_node_id": "0.0-79.0-1.0", "time_elapsed": 919210, "key_press": -1, "trial_index": 107}, "uniqueid": "MTK3627:35L9RVQFCPPV7Q3O5DK9RU7TCFUHUI", "dateTime": 1520874505117}, {"current_trial": 108, "trialdata": {"rt": -1, "trial_type": "single-stim", "stimulus": "<p id=\"stim\">8</p>", "internal_node_id": "0.0-79.0-2.0", "time_elapsed": 920217, "key_press": -1, "trial_index": 108}, "uniqueid": "MTK3627:35L9RVQFCPPV7Q3O5DK9RU7TCFUHUI", "dateTime": 1520874506125}, {"current_trial": 109, "trialdata": {"rt": -1, "trial_type": "single-stim", "stimulus": "<p id=\"stim\">7</p>", "internal_node_id": "0.0-79.0-3.0", "time_elapsed": 921227, "key_press": -1, "trial_index": 109}, "uniqueid": "MTK3627:35L9RVQFCPPV7Q3O5DK9RU7TCFUHUI", "dateTime": 1520874507134}, {"current_trial": 110, "trialdata": {"rt": -1, "trial_type": "single-stim", "stimulus": "<p id=\"stim\">6</p>", "internal_node_id": "0.0-79.0-4.0", "time_elapsed": 922232, "key_press": -1, "trial_index": 110}, "uniqueid": "MTK3627:35L9RVQFCPPV7Q3O5DK9RU7TCFUHUI", "dateTime": 1520874508140}, {"current_trial": 111, "trialdata": {"rt": -1, "trial_type": "single-stim", "stimulus": "<p id=\"stim\">5</p>", "internal_node_id": "0.0-79.0-5.0", "time_elapsed": 923238, "key_press": -1, "trial_index": 111}, "uniqueid": "MTK3627:35L9RVQFCPPV7Q3O5DK9RU7TCFUHUI", "dateTime": 1520874509145}, {"current_trial": 112, "trialdata": {"rt": -1, "trial_type": "single-stim", "stimulus": "<p id=\"stim\">4</p>", "internal_node_id": "0.0-79.0-6.0", "time_elapsed": 924243, "key_press": -1, "trial_index": 112}, "uniqueid": "MTK3627:35L9RVQFCPPV7Q3O5DK9RU7TCFUHUI", "dateTime": 1520874510150}, {"current_trial": 113, "trialdata": {"rt": -1, "trial_type": "single-stim", "stimulus": "<p id=\"stim\">3</p>", "internal_node_id": "0.0-79.0-7.0", "time_elapsed": 925249, "key_press": -1, "trial_index": 113}, "uniqueid": "MTK3627:35L9RVQFCPPV7Q3O5DK9RU7TCFUHUI", "dateTime": 1520874511156}, {"current_trial": 114, "trialdata": {"rt": -1, "trial_type": "single-stim", "stimulus": "<p id=\"stim\">2</p>", "internal_node_id": "0.0-79.0-8.0", "time_elapsed": 926253, "key_press": -1, "trial_index": 114}, "uniqueid": "MTK3627:35L9RVQFCPPV7Q3O5DK9RU7TCFUHUI", "dateTime": 1520874512161}, {"current_trial": 115, "trialdata": {"rt": -1, "trial_type": "single-stim", "stimulus": "<p id=\"stim\">1</p>", "internal_node_id": "0.0-79.0-9.0", "time_elapsed": 927258, "key_press": -1, "trial_index": 115}, "uniqueid": "MTK3627:35L9RVQFCPPV7Q3O5DK9RU7TCFUHUI", "dateTime": 1520874513165}, {"current_trial": 116, "trialdata": {"rt": -1, "trial_type": "single-stim", "stimulus": "<p id=\"stim\">+</p>", "internal_node_id": "0.0-80.0-0.0", "time_elapsed": 928763, "key_press": -1, "type": "FIXATION", "trial_index": 116}, "uniqueid": "MTK3627:35L9RVQFCPPV7Q3O5DK9RU7TCFUHUI", "dateTime": 1520874514671}, {"current_trial": 117, "trialdata": {"rt": -1, "trial_type": "single-stim", "word": "cocoon", "stimulus": "<p id=\"stim\">COCOON</p>", "conditions": [24, 1600, "v", 12000], "internal_node_id": "0.0-81.0", "trial": 3, "time_elapsed": 930368, "serialpos": 0, "key_press": -1, "wordID": 338, "type": "PRES_VIS", "trial_index": 117}, "uniqueid": "MTK3627:35L9RVQFCPPV7Q3O5DK9RU7TCFUHUI", "dateTime": 1520874516275}, {"current_trial": 118, "trialdata": {"rt": -1, "trial_type": "single-stim", "word": "seafood", "stimulus": "<p id=\"stim\">SEAFOOD</p>", "conditions": [24, 1600, "v", 12000], "internal_node_id": "0.0-82.0", "trial": 3, "time_elapsed": 932782, "serialpos": 1, "key_press": -1, "wordID": 1259, "type": "PRES_VIS", "trial_index": 118}, "uniqueid": "MTK3627:35L9RVQFCPPV7Q3O5DK9RU7TCFUHUI", "dateTime": 1520874518690}, {"current_trial": 119, "trialdata": {"rt": -1, "trial_type": "single-stim", "word": "cod", "stimulus": "<p id=\"stim\">COD</p>", "conditions": [24, 1600, "v", 12000], "internal_node_id": "0.0-83.0", "trial": 3, "time_elapsed": 935411, "serialpos": 2, "key_press": -1, "wordID": 339, "type": "PRES_VIS", "trial_index": 119}, "uniqueid": "MTK3627:35L9RVQFCPPV7Q3O5DK9RU7TCFUHUI", "dateTime": 1520874521318}, {"current_trial": 120, "trialdata": {"rt": -1, "trial_type": "single-stim", "word": "hamper", "stimulus": "<p id=\"stim\">HAMPER</p>", "conditions": [24, 1600, "v", 12000], "internal_node_id": "0.0-84.0", "trial": 3, "time_elapsed": 937844, "serialpos": 3, "key_press": -1, "wordID": 681, "type": "PRES_VIS", "trial_index": 120}, "uniqueid": "MTK3627:35L9RVQFCPPV7Q3O5DK9RU7TCFUHUI", "dateTime": 1520874523751}, {"current_trial": 121, "trialdata": {"rt": -1, "trial_type": "single-stim", "word": "cabbage", "stimulus": "<p id=\"stim\">CABBAGE</p>", "conditions": [24, 1600, "v", 12000], "internal_node_id": "0.0-85.0", "trial": 3, "time_elapsed": 940424, "serialpos": 4, "key_press": -1, "wordID": 209, "type": "PRES_VIS", "trial_index": 121}, "uniqueid": "MTK3627:35L9RVQFCPPV7Q3O5DK9RU7TCFUHUI", "dateTime": 1520874526332}, {"current_trial": 122, "trialdata": {"rt": -1, "trial_type": "single-stim", "word": "zebra", "stimulus": "<p id=\"stim\">ZEBRA</p>", "conditions": [24, 1600, "v", 12000], "internal_node_id": "0.0-86.0", "trial": 3, "time_elapsed": 942845, "serialpos": 5, "key_press": -1, "wordID": 1634, "type": "PRES_VIS", "trial_index": 122}, "uniqueid": "MTK3627:35L9RVQFCPPV7Q3O5DK9RU7TCFUHUI", "dateTime": 1520874528753}, {"current_trial": 123, "trialdata": {"rt": -1, "trial_type": "single-stim", "word": "sphinx", "stimulus": "<p id=\"stim\">SPHINX</p>", "conditions": [24, 1600, "v", 12000], "internal_node_id": "0.0-87.0", "trial": 3, "time_elapsed": 945468, "serialpos": 6, "key_press": -1, "wordID": 1348, "type": "PRES_VIS", "trial_index": 123}, "uniqueid": "MTK3627:35L9RVQFCPPV7Q3O5DK9RU7TCFUHUI", "dateTime": 1520874531375}, {"current_trial": 124, "trialdata": {"rt": -1, "trial_type": "single-stim", "word": "skirt", "stimulus": "<p id=\"stim\">SKIRT</p>", "conditions": [24, 1600, "v", 12000], "internal_node_id": "0.0-88.0", "trial": 3, "time_elapsed": 947963, "serialpos": 7, "key_press": -1, "wordID": 1318, "type": "PRES_VIS", "trial_index": 124}, "uniqueid": "MTK3627:35L9RVQFCPPV7Q3O5DK9RU7TCFUHUI", "dateTime": 1520874533870}, {"current_trial": 125, "trialdata": {"rt": -1, "trial_type": "single-stim", "word": "balloon", "stimulus": "<p id=\"stim\">BALLOON</p>", "conditions": [24, 1600, "v", 12000], "internal_node_id": "0.0-89.0", "trial": 3, "time_elapsed": 950431, "serialpos": 8, "key_press": -1, "wordID": 74, "type": "PRES_VIS", "trial_index": 125}, "uniqueid": "MTK3627:35L9RVQFCPPV7Q3O5DK9RU7TCFUHUI", "dateTime": 1520874536339}, {"current_trial": 126, "trialdata": {"rt": -1, "trial_type": "single-stim", "word": "whistle", "stimulus": "<p id=\"stim\">WHISTLE</p>", "conditions": [24, 1600, "v", 12000], "internal_node_id": "0.0-90.0", "trial": 3, "time_elapsed": 952867, "serialpos": 9, "key_press": -1, "wordID": 1605, "type": "PRES_VIS", "trial_index": 126}, "uniqueid": "MTK3627:35L9RVQFCPPV7Q3O5DK9RU7TCFUHUI", "dateTime": 1520874538775}, {"current_trial": 127, "trialdata": {"rt": -1, "trial_type": "single-stim", "word": "brook", "stimulus": "<p id=\"stim\">BROOK</p>", "conditions": [24, 1600, "v", 12000], "internal_node_id": "0.0-91.0", "trial": 3, "time_elapsed": 955280, "serialpos": 10, "key_press": -1, "wordID": 176, "type": "PRES_VIS", "trial_index": 127}, "uniqueid": "MTK3627:35L9RVQFCPPV7Q3O5DK9RU7TCFUHUI", "dateTime": 1520874541187}, {"current_trial": 128, "trialdata": {"rt": -1, "trial_type": "single-stim", "word": "garlic", "stimulus": "<p id=\"stim\">GARLIC</p>", "conditions": [24, 1600, "v", 12000], "internal_node_id": "0.0-92.0", "trial": 3, "time_elapsed": 957910, "serialpos": 11, "key_press": -1, "wordID": 623, "type": "PRES_VIS", "trial_index": 128}, "uniqueid": "MTK3627:35L9RVQFCPPV7Q3O5DK9RU7TCFUHUI", "dateTime": 1520874543818}, {"current_trial": 129, "trialdata": {"rt": -1, "trial_type": "single-stim", "word": "postage", "stimulus": "<p id=\"stim\">POSTAGE</p>", "conditions": [24, 1600, "v", 12000], "internal_node_id": "0.0-93.0", "trial": 3, "time_elapsed": 960589, "serialpos": 12, "key_press": -1, "wordID": 1112, "type": "PRES_VIS", "trial_index": 129}, "uniqueid": "MTK3627:35L9RVQFCPPV7Q3O5DK9RU7TCFUHUI", "dateTime": 1520874546497}, {"current_trial": 130, "trialdata": {"rt": -1, "trial_type": "single-stim", "word": "comet", "stimulus": "<p id=\"stim\">COMET</p>", "conditions": [24, 1600, "v", 12000], "internal_node_id": "0.0-94.0", "trial": 3, "time_elapsed": 963104, "serialpos": 13, "key_press": -1, "wordID": 352, "type": "PRES_VIS", "trial_index": 130}, "uniqueid": "MTK3627:35L9RVQFCPPV7Q3O5DK9RU7TCFUHUI", "dateTime": 1520874549012}, {"current_trial": 131, "trialdata": {"rt": -1, "trial_type": "single-stim", "word": "typist", "stimulus": "<p id=\"stim\">TYPIST</p>", "conditions": [24, 1600, "v", 12000], "internal_node_id": "0.0-95.0", "trial": 3, "time_elapsed": 965885, "serialpos": 14, "key_press": -1, "wordID": 1531, "type": "PRES_VIS", "trial_index": 131}, "uniqueid": "MTK3627:35L9RVQFCPPV7Q3O5DK9RU7TCFUHUI", "dateTime": 1520874551792}, {"current_trial": 132, "trialdata": {"rt": -1, "trial_type": "single-stim", "word": "apple", "stimulus": "<p id=\"stim\">APPLE</p>", "conditions": [24, 1600, "v", 12000], "internal_node_id": "0.0-96.0", "trial": 3, "time_elapsed": 968686, "serialpos": 15, "key_press": -1, "wordID": 32, "type": "PRES_VIS", "trial_index": 132}, "uniqueid": "MTK3627:35L9RVQFCPPV7Q3O5DK9RU7TCFUHUI", "dateTime": 1520874554593}, {"current_trial": 133, "trialdata": {"rt": -1, "trial_type": "single-stim", "word": "turnip", "stimulus": "<p id=\"stim\">TURNIP</p>", "conditions": [24, 1600, "v", 12000], "internal_node_id": "0.0-97.0", "trial": 3, "time_elapsed": 971339, "serialpos": 16, "key_press": -1, "wordID": 1520, "type": "PRES_VIS", "trial_index": 133}, "uniqueid": "MTK3627:35L9RVQFCPPV7Q3O5DK9RU7TCFUHUI", "dateTime": 1520874557246}, {"current_trial": 134, "trialdata": {"rt": -1, "trial_type": "single-stim", "word": "radish", "stimulus": "<p id=\"stim\">RADISH</p>", "conditions": [24, 1600, "v", 12000], "internal_node_id": "0.0-98.0", "trial": 3, "time_elapsed": 973780, "serialpos": 17, "key_press": -1, "wordID": 1157, "type": "PRES_VIS", "trial_index": 134}, "uniqueid": "MTK3627:35L9RVQFCPPV7Q3O5DK9RU7TCFUHUI", "dateTime": 1520874559687}, {"current_trial": 135, "trialdata": {"rt": -1, "trial_type": "single-stim", "word": "rifle", "stimulus": "<p id=\"stim\">RIFLE</p>", "conditions": [24, 1600, "v", 12000], "internal_node_id": "0.0-99.0", "trial": 3, "time_elapsed": 976376, "serialpos": 18, "key_press": -1, "wordID": 1191, "type": "PRES_VIS", "trial_index": 135}, "uniqueid": "MTK3627:35L9RVQFCPPV7Q3O5DK9RU7TCFUHUI", "dateTime": 1520874562283}, {"current_trial": 136, "trialdata": {"rt": -1, "trial_type": "single-stim", "word": "mailbox", "stimulus": "<p id=\"stim\">MAILBOX</p>", "conditions": [24, 1600, "v", 12000], "internal_node_id": "0.0-100.0", "trial": 3, "time_elapsed": 979028, "serialpos": 19, "key_press": -1, "wordID": 856, "type": "PRES_VIS", "trial_index": 136}, "uniqueid": "MTK3627:35L9RVQFCPPV7Q3O5DK9RU7TCFUHUI", "dateTime": 1520874564936}, {"current_trial": 137, "trialdata": {"rt": -1, "trial_type": "single-stim", "word": "pocket", "stimulus": "<p id=\"stim\">POCKET</p>", "conditions": [24, 1600, "v", 12000], "internal_node_id": "0.0-101.0", "trial": 3, "time_elapsed": 981626, "serialpos": 20, "key_press": -1, "wordID": 1092, "type": "PRES_VIS", "trial_index": 137}, "uniqueid": "MTK3627:35L9RVQFCPPV7Q3O5DK9RU7TCFUHUI", "dateTime": 1520874567533}, {"current_trial": 138, "trialdata": {"rt": -1, "trial_type": "single-stim", "word": "wife", "stimulus": "<p id=\"stim\">WIFE</p>", "conditions": [24, 1600, "v", 12000], "internal_node_id": "0.0-102.0", "trial": 3, "time_elapsed": 984205, "serialpos": 21, "key_press": -1, "wordID": 1608, "type": "PRES_VIS", "trial_index": 138}, "uniqueid": "MTK3627:35L9RVQFCPPV7Q3O5DK9RU7TCFUHUI", "dateTime": 1520874570113}, {"current_trial": 139, "trialdata": {"rt": -1, "trial_type": "single-stim", "word": "onion", "stimulus": "<p id=\"stim\">ONION</p>", "conditions": [24, 1600, "v", 12000], "internal_node_id": "0.0-103.0", "trial": 3, "time_elapsed": 986699, "serialpos": 22, "key_press": -1, "wordID": 976, "type": "PRES_VIS", "trial_index": 139}, "uniqueid": "MTK3627:35L9RVQFCPPV7Q3O5DK9RU7TCFUHUI", "dateTime": 1520874572607}, {"current_trial": 140, "trialdata": {"rt": -1, "trial_type": "single-stim", "word": "hero", "stimulus": "<p id=\"stim\">HERO</p>", "conditions": [24, 1600, "v", 12000], "internal_node_id": "0.0-104.0", "trial": 3, "time_elapsed": 989458, "serialpos": 23, "key_press": -1, "wordID": 705, "type": "PRES_VIS", "trial_index": 140}, "uniqueid": "MTK3627:35L9RVQFCPPV7Q3O5DK9RU7TCFUHUI", "dateTime": 1520874575366}, {"current_trial": 141, "trialdata": {"rt": -1, "trial_type": "single-stim", "stimulus": "", "internal_node_id": "0.0-105.0-0.0", "time_elapsed": 991691, "key_press": -1, "type": "PRE_RECALL_DELAY", "trial_index": 141}, "uniqueid": "MTK3627:35L9RVQFCPPV7Q3O5DK9RU7TCFUHUI", "dateTime": 1520874577598}, {"current_trial": 142, "trialdata": {"rt": -1000, "trial_type": "single-audio", "stimulus": "/static/audio/400Hz.wav", "internal_node_id": "0.0-106.0", "time_elapsed": 992201, "key_press": -1, "type": "PRE_RECALL_ALERT", "trial_index": 142}, "uniqueid": "MTK3627:35L9RVQFCPPV7Q3O5DK9RU7TCFUHUI", "dateTime": 1520874578108}, {"current_trial": 143, "trialdata": {"rt": [21187, 25691, 28672, 32426, 47397, 50694, 52921], "recwords": ["hero", "cocoon", "cabbage", "apple", "seafood", "turnip", "radish"], "key_times": [20324, 20454, 20693, 20810, 21187, 22914, 23120, 23517, 23663, 23838, 24468, 24630, 24917, 25059, 25307, 25691, 27107, 27240, 27453, 27604, 27808, 28195, 28347, 28672, 31271, 31660, 31836, 32029, 32165, 32426, 44901, 45166, 45395, 45635, 45830, 46292, 46632, 46791, 46944, 47397, 48847, 49221, 49451, 49572, 49811, 50247, 50694, 51389, 51538, 51732, 52147, 52330, 52498, 52921, 59275, 59678, 59864], "trial_type": "free-recall", "conditions": [24, 1600, "v", 12000], "internal_node_id": "0.0-107.0-0.0", "key_presses": [72, 69, 82, 79, 13, 67, 79, 67, 67, 79, 8, 8, 79, 79, 78, 13, 67, 65, 66, 66, 65, 71, 69, 13, 65, 80, 80, 76, 69, 13, 83, 69, 65, 70, 70, 8, 79, 79, 68, 13, 84, 85, 82, 78, 73, 80, 13, 82, 65, 68, 73, 83, 72, 13, 70, 8, 82], "trial": 3, "time_elapsed": 1052216, "type": "FREE_RECALL", "trial_index": 143}, "uniqueid": "MTK3627:35L9RVQFCPPV7Q3O5DK9RU7TCFUHUI", "dateTime": 1520874638143}, {"current_trial": 144, "trialdata": {"rt": 55186, "trial_type": "text", "internal_node_id": "0.0-108.0", "time_elapsed": 1109425, "key_press": 13, "type": "INSTRUCTIONS", "trial_index": 144}, "uniqueid": "MTK3627:35L9RVQFCPPV7Q3O5DK9RU7TCFUHUI", "dateTime": 1520874695333}, {"current_trial": 145, "trialdata": {"rt": [11968, 17379], "trial_type": "math-distractor", "key_times": [11385, 11673, 11968, 16539, 16795, 17379], "responses": ["17", "13"], "num2": [8, 6, 5], "num3": [2, 2, 6], "conditions": [24, 800, "v", 24000], "internal_node_id": "0.0-109.0", "key_presses": [49, 55, 13, 49, 51, 13], "trial": 4, "time_elapsed": 1135439, "type": "DISTRACTOR", "trial_index": 145, "num1": [7, 5, 8]}, "uniqueid": "MTK3627:35L9RVQFCPPV7Q3O5DK9RU7TCFUHUI", "dateTime": 1520874721346}, {"current_trial": 146, "trialdata": {"rt": -1, "trial_type": "single-stim", "stimulus": "<p id=\"stim\">10</p>", "internal_node_id": "0.0-110.0-0.0", "time_elapsed": 1138447, "key_press": -1, "trial_index": 146}, "uniqueid": "MTK3627:35L9RVQFCPPV7Q3O5DK9RU7TCFUHUI", "dateTime": 1520874724354}, {"current_trial": 147, "trialdata": {"rt": -1, "trial_type": "single-stim", "stimulus": "<p id=\"stim\">9</p>", "internal_node_id": "0.0-110.0-1.0", "time_elapsed": 1139453, "key_press": -1, "trial_index": 147}, "uniqueid": "MTK3627:35L9RVQFCPPV7Q3O5DK9RU7TCFUHUI", "dateTime": 1520874725360}, {"current_trial": 148, "trialdata": {"rt": -1, "trial_type": "single-stim", "stimulus": "<p id=\"stim\">8</p>", "internal_node_id": "0.0-110.0-2.0", "time_elapsed": 1140456, "key_press": -1, "trial_index": 148}, "uniqueid": "MTK3627:35L9RVQFCPPV7Q3O5DK9RU7TCFUHUI", "dateTime": 1520874726364}, {"current_trial": 149, "trialdata": {"rt": -1, "trial_type": "single-stim", "stimulus": "<p id=\"stim\">7</p>", "internal_node_id": "0.0-110.0-3.0", "time_elapsed": 1141460, "key_press": -1, "trial_index": 149}, "uniqueid": "MTK3627:35L9RVQFCPPV7Q3O5DK9RU7TCFUHUI", "dateTime": 1520874727367}, {"current_trial": 150, "trialdata": {"rt": -1, "trial_type": "single-stim", "stimulus": "<p id=\"stim\">6</p>", "internal_node_id": "0.0-110.0-4.0", "time_elapsed": 1142464, "key_press": -1, "trial_index": 150}, "uniqueid": "MTK3627:35L9RVQFCPPV7Q3O5DK9RU7TCFUHUI", "dateTime": 1520874728371}, {"current_trial": 151, "trialdata": {"rt": -1, "trial_type": "single-stim", "stimulus": "<p id=\"stim\">5</p>", "internal_node_id": "0.0-110.0-5.0", "time_elapsed": 1143469, "key_press": -1, "trial_index": 151}, "uniqueid": "MTK3627:35L9RVQFCPPV7Q3O5DK9RU7TCFUHUI", "dateTime": 1520874729377}, {"current_trial": 152, "trialdata": {"rt": -1, "trial_type": "single-stim", "stimulus": "<p id=\"stim\">4</p>", "internal_node_id": "0.0-110.0-6.0", "time_elapsed": 1144475, "key_press": -1, "trial_index": 152}, "uniqueid": "MTK3627:35L9RVQFCPPV7Q3O5DK9RU7TCFUHUI", "dateTime": 1520874730382}, {"current_trial": 153, "trialdata": {"rt": -1, "trial_type": "single-stim", "stimulus": "<p id=\"stim\">3</p>", "internal_node_id": "0.0-110.0-7.0", "time_elapsed": 1145480, "key_press": -1, "trial_index": 153}, "uniqueid": "MTK3627:35L9RVQFCPPV7Q3O5DK9RU7TCFUHUI", "dateTime": 1520874731387}, {"current_trial": 154, "trialdata": {"rt": -1, "trial_type": "single-stim", "stimulus": "<p id=\"stim\">2</p>", "internal_node_id": "0.0-110.0-8.0", "time_elapsed": 1146488, "key_press": -1, "trial_index": 154}, "uniqueid": "MTK3627:35L9RVQFCPPV7Q3O5DK9RU7TCFUHUI", "dateTime": 1520874732395}, {"current_trial": 155, "trialdata": {"rt": -1, "trial_type": "single-stim", "stimulus": "<p id=\"stim\">1</p>", "internal_node_id": "0.0-110.0-9.0", "time_elapsed": 1147492, "key_press": -1, "trial_index": 155}, "uniqueid": "MTK3627:35L9RVQFCPPV7Q3O5DK9RU7TCFUHUI", "dateTime": 1520874733400}, {"current_trial": 156, "trialdata": {"rt": -1, "trial_type": "single-stim", "stimulus": "<p id=\"stim\">+</p>", "internal_node_id": "0.0-111.0-0.0", "time_elapsed": 1148996, "key_press": -1, "type": "FIXATION", "trial_index": 156}, "uniqueid": "MTK3627:35L9RVQFCPPV7Q3O5DK9RU7TCFUHUI", "dateTime": 1520874734904}, {"current_trial": 157, "trialdata": {"rt": -1, "trial_type": "single-stim", "word": "virus", "stimulus": "<p id=\"stim\">VIRUS</p>", "conditions": [24, 800, "v", 24000], "internal_node_id": "0.0-112.0", "trial": 4, "time_elapsed": 1149803, "serialpos": 0, "key_press": -1, "wordID": 1571, "type": "PRES_VIS", "trial_index": 157}, "uniqueid": "MTK3627:35L9RVQFCPPV7Q3O5DK9RU7TCFUHUI", "dateTime": 1520874735711}, {"current_trial": 158, "trialdata": {"rt": -1, "trial_type": "single-stim", "word": "termite", "stimulus": "<p id=\"stim\">TERMITE</p>", "conditions": [24, 800, "v", 24000], "internal_node_id": "0.0-113.0", "trial": 4, "time_elapsed": 1151601, "serialpos": 1, "key_press": -1, "wordID": 1450, "type": "PRES_VIS", "trial_index": 158}, "uniqueid": "MTK3627:35L9RVQFCPPV7Q3O5DK9RU7TCFUHUI", "dateTime": 1520874737508}, {"current_trial": 159, "trialdata": {"rt": -1, "trial_type": "single-stim", "word": "rocket", "stimulus": "<p id=\"stim\">ROCKET</p>", "conditions": [24, 800, "v", 24000], "internal_node_id": "0.0-114.0", "trial": 4, "time_elapsed": 1153232, "serialpos": 2, "key_press": -1, "wordID": 1201, "type": "PRES_VIS", "trial_index": 159}, "uniqueid": "MTK3627:35L9RVQFCPPV7Q3O5DK9RU7TCFUHUI", "dateTime": 1520874739139}, {"current_trial": 160, "trialdata": {"rt": -1, "trial_type": "single-stim", "word": "neutron", "stimulus": "<p id=\"stim\">NEUTRON</p>", "conditions": [24, 800, "v", 24000], "internal_node_id": "0.0-115.0", "trial": 4, "time_elapsed": 1155005, "serialpos": 3, "key_press": -1, "wordID": 946, "type": "PRES_VIS", "trial_index": 160}, "uniqueid": "MTK3627:35L9RVQFCPPV7Q3O5DK9RU7TCFUHUI", "dateTime": 1520874740913}, {"current_trial": 161, "trialdata": {"rt": -1, "trial_type": "single-stim", "word": "guitar", "stimulus": "<p id=\"stim\">GUITAR</p>", "conditions": [24, 800, "v", 24000], "internal_node_id": "0.0-116.0", "trial": 4, "time_elapsed": 1156698, "serialpos": 4, "key_press": -1, "wordID": 669, "type": "PRES_VIS", "trial_index": 161}, "uniqueid": "MTK3627:35L9RVQFCPPV7Q3O5DK9RU7TCFUHUI", "dateTime": 1520874742605}, {"current_trial": 162, "trialdata": {"rt": -1, "trial_type": "single-stim", "word": "harp", "stimulus": "<p id=\"stim\">HARP</p>", "conditions": [24, 800, "v", 24000], "internal_node_id": "0.0-117.0", "trial": 4, "time_elapsed": 1158649, "serialpos": 5, "key_press": -1, "wordID": 688, "type": "PRES_VIS", "trial_index": 162}, "uniqueid": "MTK3627:35L9RVQFCPPV7Q3O5DK9RU7TCFUHUI", "dateTime": 1520874744556}, {"current_trial": 163, "trialdata": {"rt": -1, "trial_type": "single-stim", "word": "missile", "stimulus": "<p id=\"stim\">MISSILE</p>", "conditions": [24, 800, "v", 24000], "internal_node_id": "0.0-118.0", "trial": 4, "time_elapsed": 1160450, "serialpos": 6, "key_press": -1, "wordID": 899, "type": "PRES_VIS", "trial_index": 163}, "uniqueid": "MTK3627:35L9RVQFCPPV7Q3O5DK9RU7TCFUHUI", "dateTime": 1520874746358}, {"current_trial": 164, "trialdata": {"rt": -1, "trial_type": "single-stim", "word": "lagoon", "stimulus": "<p id=\"stim\">LAGOON</p>", "conditions": [24, 800, "v", 24000], "internal_node_id": "0.0-119.0", "trial": 4, "time_elapsed": 1162268, "serialpos": 7, "key_press": -1, "wordID": 794, "type": "PRES_VIS", "trial_index": 164}, "uniqueid": "MTK3627:35L9RVQFCPPV7Q3O5DK9RU7TCFUHUI", "dateTime": 1520874748175}, {"current_trial": 165, "trialdata": {"rt": -1, "trial_type": "single-stim", "word": "student", "stimulus": "<p id=\"stim\">STUDENT</p>", "conditions": [24, 800, "v", 24000], "internal_node_id": "0.0-120.0", "trial": 4, "time_elapsed": 1164158, "serialpos": 8, "key_press": -1, "wordID": 1394, "type": "PRES_VIS", "trial_index": 165}, "uniqueid": "MTK3627:35L9RVQFCPPV7Q3O5DK9RU7TCFUHUI", "dateTime": 1520874750065}, {"current_trial": 166, "trialdata": {"rt": -1, "trial_type": "single-stim", "word": "drill", "stimulus": "<p id=\"stim\">DRILL</p>", "conditions": [24, 800, "v", 24000], "internal_node_id": "0.0-121.0", "trial": 4, "time_elapsed": 1166158, "serialpos": 9, "key_press": -1, "wordID": 496, "type": "PRES_VIS", "trial_index": 166}, "uniqueid": "MTK3627:35L9RVQFCPPV7Q3O5DK9RU7TCFUHUI", "dateTime": 1520874752065}, {"current_trial": 167, "trialdata": {"rt": -1, "trial_type": "single-stim", "word": "chipmunk", "stimulus": "<p id=\"stim\">CHIPMUNK</p>", "conditions": [24, 800, "v", 24000], "internal_node_id": "0.0-122.0", "trial": 4, "time_elapsed": 1167776, "serialpos": 10, "key_press": -1, "wordID": 303, "type": "PRES_VIS", "trial_index": 167}, "uniqueid": "MTK3627:35L9RVQFCPPV7Q3O5DK9RU7TCFUHUI", "dateTime": 1520874753684}, {"current_trial": 168, "trialdata": {"rt": -1, "trial_type": "single-stim", "word": "marsh", "stimulus": "<p id=\"stim\">MARSH</p>", "conditions": [24, 800, "v", 24000], "internal_node_id": "0.0-123.0", "trial": 4, "time_elapsed": 1169539, "serialpos": 11, "key_press": -1, "wordID": 873, "type": "PRES_VIS", "trial_index": 168}, "uniqueid": "MTK3627:35L9RVQFCPPV7Q3O5DK9RU7TCFUHUI", "dateTime": 1520874755446}, {"current_trial": 169, "trialdata": {"rt": -1, "trial_type": "single-stim", "word": "human", "stimulus": "<p id=\"stim\">HUMAN</p>", "conditions": [24, 800, "v", 24000], "internal_node_id": "0.0-124.0", "trial": 4, "time_elapsed": 1171215, "serialpos": 12, "key_press": -1, "wordID": 725, "type": "PRES_VIS", "trial_index": 169}, "uniqueid": "MTK3627:35L9RVQFCPPV7Q3O5DK9RU7TCFUHUI", "dateTime": 1520874757122}, {"current_trial": 170, "trialdata": {"rt": -1, "trial_type": "single-stim", "word": "flower", "stimulus": "<p id=\"stim\">FLOWER</p>", "conditions": [24, 800, "v", 24000], "internal_node_id": "0.0-125.0", "trial": 4, "time_elapsed": 1173208, "serialpos": 13, "key_press": -1, "wordID": 583, "type": "PRES_VIS", "trial_index": 170}, "uniqueid": "MTK3627:35L9RVQFCPPV7Q3O5DK9RU7TCFUHUI", "dateTime": 1520874759115}, {"current_trial": 171, "trialdata": {"rt": -1, "trial_type": "single-stim", "word": "market", "stimulus": "<p id=\"stim\">MARKET</p>", "conditions": [24, 800, "v", 24000], "internal_node_id": "0.0-126.0", "trial": 4, "time_elapsed": 1175133, "serialpos": 14, "key_press": -1, "wordID": 870, "type": "PRES_VIS", "trial_index": 171}, "uniqueid": "MTK3627:35L9RVQFCPPV7Q3O5DK9RU7TCFUHUI", "dateTime": 1520874761040}, {"current_trial": 172, "trialdata": {"rt": -1, "trial_type": "single-stim", "word": "police", "stimulus": "<p id=\"stim\">POLICE</p>", "conditions": [24, 800, "v", 24000], "internal_node_id": "0.0-127.0", "trial": 4, "time_elapsed": 1176878, "serialpos": 15, "key_press": -1, "wordID": 1097, "type": "PRES_VIS", "trial_index": 172}, "uniqueid": "MTK3627:35L9RVQFCPPV7Q3O5DK9RU7TCFUHUI", "dateTime": 1520874762786}, {"current_trial": 173, "trialdata": {"rt": -1, "trial_type": "single-stim", "word": "actor", "stimulus": "<p id=\"stim\">ACTOR</p>", "conditions": [24, 800, "v", 24000], "internal_node_id": "0.0-128.0", "trial": 4, "time_elapsed": 1178523, "serialpos": 16, "key_press": -1, "wordID": 4, "type": "PRES_VIS", "trial_index": 173}, "uniqueid": "MTK3627:35L9RVQFCPPV7Q3O5DK9RU7TCFUHUI", "dateTime": 1520874764430}, {"current_trial": 174, "trialdata": {"rt": -1, "trial_type": "single-stim", "word": "film", "stimulus": "<p id=\"stim\">FILM</p>", "conditions": [24, 800, "v", 24000], "internal_node_id": "0.0-129.0", "trial": 4, "time_elapsed": 1180195, "serialpos": 17, "key_press": -1, "wordID": 564, "type": "PRES_VIS", "trial_index": 174}, "uniqueid": "MTK3627:35L9RVQFCPPV7Q3O5DK9RU7TCFUHUI", "dateTime": 1520874766107}, {"current_trial": 175, "trialdata": {"rt": -1, "trial_type": "single-stim", "word": "hand", "stimulus": "<p id=\"stim\">HAND</p>", "conditions": [24, 800, "v", 24000], "internal_node_id": "0.0-130.0", "trial": 4, "time_elapsed": 1182017, "serialpos": 18, "key_press": -1, "wordID": 682, "type": "PRES_VIS", "trial_index": 175}, "uniqueid": "MTK3627:35L9RVQFCPPV7Q3O5DK9RU7TCFUHUI", "dateTime": 1520874767925}, {"current_trial": 176, "trialdata": {"rt": -1, "trial_type": "single-stim", "word": "match", "stimulus": "<p id=\"stim\">MATCH</p>", "conditions": [24, 800, "v", 24000], "internal_node_id": "0.0-131.0", "trial": 4, "time_elapsed": 1183681, "serialpos": 19, "key_press": -1, "wordID": 877, "type": "PRES_VIS", "trial_index": 176}, "uniqueid": "MTK3627:35L9RVQFCPPV7Q3O5DK9RU7TCFUHUI", "dateTime": 1520874769588}, {"current_trial": 177, "trialdata": {"rt": -1, "trial_type": "single-stim", "word": "foot", "stimulus": "<p id=\"stim\">FOOT</p>", "conditions": [24, 800, "v", 24000], "internal_node_id": "0.0-132.0", "trial": 4, "time_elapsed": 1185689, "serialpos": 20, "key_press": -1, "wordID": 589, "type": "PRES_VIS", "trial_index": 177}, "uniqueid": "MTK3627:35L9RVQFCPPV7Q3O5DK9RU7TCFUHUI", "dateTime": 1520874771596}, {"current_trial": 178, "trialdata": {"rt": -1, "trial_type": "single-stim", "word": "gazelle", "stimulus": "<p id=\"stim\">GAZELLE</p>", "conditions": [24, 800, "v", 24000], "internal_node_id": "0.0-133.0", "trial": 4, "time_elapsed": 1187316, "serialpos": 21, "key_press": -1, "wordID": 627, "type": "PRES_VIS", "trial_index": 178}, "uniqueid": "MTK3627:35L9RVQFCPPV7Q3O5DK9RU7TCFUHUI", "dateTime": 1520874773224}, {"current_trial": 179, "trialdata": {"rt": -1, "trial_type": "single-stim", "word": "country", "stimulus": "<p id=\"stim\">COUNTRY</p>", "conditions": [24, 800, "v", 24000], "internal_node_id": "0.0-134.0", "trial": 4, "time_elapsed": 1189018, "serialpos": 22, "key_press": -1, "wordID": 387, "type": "PRES_VIS", "trial_index": 179}, "uniqueid": "MTK3627:35L9RVQFCPPV7Q3O5DK9RU7TCFUHUI", "dateTime": 1520874774925}, {"current_trial": 180, "trialdata": {"rt": -1, "trial_type": "single-stim", "word": "shrub", "stimulus": "<p id=\"stim\">SHRUB</p>", "conditions": [24, 800, "v", 24000], "internal_node_id": "0.0-135.0", "trial": 4, "time_elapsed": 1190847, "serialpos": 23, "key_press": -1, "wordID": 1298, "type": "PRES_VIS", "trial_index": 180}, "uniqueid": "MTK3627:35L9RVQFCPPV7Q3O5DK9RU7TCFUHUI", "dateTime": 1520874776754}, {"current_trial": 181, "trialdata": {"rt": -1, "trial_type": "single-stim", "stimulus": "", "internal_node_id": "0.0-136.0-0.0", "time_elapsed": 1193099, "key_press": -1, "type": "PRE_RECALL_DELAY", "trial_index": 181}, "uniqueid": "MTK3627:35L9RVQFCPPV7Q3O5DK9RU7TCFUHUI", "dateTime": 1520874779006}, {"current_trial": 182, "trialdata": {"rt": -1000, "trial_type": "single-audio", "stimulus": "/static/audio/400Hz.wav", "internal_node_id": "0.0-137.0", "time_elapsed": 1193605, "key_press": -1, "type": "PRE_RECALL_ALERT", "trial_index": 182}, "uniqueid": "MTK3627:35L9RVQFCPPV7Q3O5DK9RU7TCFUHUI", "dateTime": 1520874779513}, {"current_trial": 183, "trialdata": {"rt": [7098, 9248, 11549, 13196, 16801, 19741, 23628, 25959, 29206, 31723, 33824, 35388, 35719, 37975, 41489, 44010, 45960, 49804, 53938, 57652], "recwords": ["country", "police", "flower", "harp", "missle", "drill", "horn", "march", "chipmunk", "actor", "hand", "foot", "", "virus", "country", "flower", "termite", "rocket", "harp", "missle"], "key_times": [5578, 5747, 5972, 6121, 6368, 6548, 6619, 7098, 8375, 8533, 8697, 8881, 8981, 9168, 9248, 10053, 10192, 10562, 11020, 11193, 11410, 11549, 11962, 12110, 12258, 12789, 13196, 15652, 15888, 16077, 16229, 16363, 16550, 16801, 17727, 18008, 18247, 18270, 18532, 18905, 19039, 19318, 19460, 19741, 22769, 23009, 23178, 23300, 23628, 24964, 25036, 25227, 25497, 25580, 25959, 26458, 26642, 26929, 27238, 27251, 27784, 28103, 28362, 28582, 28793, 29206, 30647, 30816, 31060, 31342, 31491, 31723, 32050, 32218, 32326, 32446, 33824, 34238, 34515, 34629, 35061, 35388, 35719, 36437, 36680, 37387, 37600, 37759, 37975, 38711, 38869, 39269, 40011, 40262, 40482, 40751, 40984, 41060, 41489, 42840, 43138, 43319, 43488, 43618, 43858, 44010, 44572, 44656, 44857, 44984, 45205, 45479, 45756, 45960, 46579, 46763, 46944, 47068, 47211, 47461, 48003, 48258, 48842, 49105, 49264, 49435, 49804, 53090, 53182, 53385, 53559, 53938, 56488, 56712, 56919, 57085, 57226, 57455, 57652, 58686, 59050, 59341, 59465, 59698, 59706, 59946], "trial_type": "free-recall", "conditions": [24, 800, "v", 24000], "internal_node_id": "0.0-138.0-0.0", "key_presses": [67, 79, 85, 78, 84, 82, 89, 13, 80, 79, 76, 73, 67, 69, 13, 70, 76, 79, 87, 69, 82, 13, 72, 65, 82, 80, 13, 77, 73, 83, 83, 76, 69, 13, 68, 82, 73, 85, 76, 8, 8, 76, 76, 13, 72, 79, 82, 78, 13, 77, 65, 82, 67, 72, 13, 67, 72, 73, 80, 219, 8, 77, 85, 78, 75, 13, 65, 67, 84, 79, 82, 13, 72, 65, 78, 68, 13, 70, 79, 79, 84, 32, 13, 86, 73, 82, 85, 83, 13, 67, 79, 78, 8, 85, 78, 84, 82, 89, 13, 70, 76, 79, 87, 69, 82, 13, 84, 69, 82, 77, 73, 84, 69, 13, 82, 79, 67, 74, 69, 84, 8, 8, 8, 75, 69, 84, 13, 72, 65, 82, 80, 13, 77, 73, 83, 83, 76, 69, 13, 83, 84, 85, 68, 78, 69, 84], "trial": 4, "time_elapsed": 1253620, "type": "FREE_RECALL", "trial_index": 183}, "uniqueid": "MTK3627:35L9RVQFCPPV7Q3O5DK9RU7TCFUHUI", "dateTime": 1520874839552}, {"current_trial": 184, "trialdata": {"rt": 132143, "trial_type": "text", "internal_node_id": "0.0-139.0", "time_elapsed": 1387791, "key_press": 13, "type": "INSTRUCTIONS", "trial_index": 184}, "uniqueid": "MTK3627:35L9RVQFCPPV7Q3O5DK9RU7TCFUHUI", "dateTime": 1520874973699}, {"current_trial": 185, "trialdata": {"rt": [5143], "trial_type": "math-distractor", "key_times": [4436, 4765, 5143], "responses": ["10"], "num2": [1, 7], "num3": [1, 9], "conditions": [24, 800, "v", 12000], "internal_node_id": "0.0-140.0", "key_presses": [49, 48, 13], "trial": 5, "time_elapsed": 1401807, "type": "DISTRACTOR", "trial_index": 185, "num1": [8, 5]}, "uniqueid": "MTK3627:35L9RVQFCPPV7Q3O5DK9RU7TCFUHUI", "dateTime": 1520874987715}, {"current_trial": 186, "trialdata": {"rt": -1, "trial_type": "single-stim", "stimulus": "<p id=\"stim\">10</p>", "internal_node_id": "0.0-141.0-0.0", "time_elapsed": 1404814, "key_press": -1, "trial_index": 186}, "uniqueid": "MTK3627:35L9RVQFCPPV7Q3O5DK9RU7TCFUHUI", "dateTime": 1520874990721}, {"current_trial": 187, "trialdata": {"rt": -1, "trial_type": "single-stim", "stimulus": "<p id=\"stim\">9</p>", "internal_node_id": "0.0-141.0-1.0", "time_elapsed": 1405821, "key_press": -1, "trial_index": 187}, "uniqueid": "MTK3627:35L9RVQFCPPV7Q3O5DK9RU7TCFUHUI", "dateTime": 1520874991728}, {"current_trial": 188, "trialdata": {"rt": -1, "trial_type": "single-stim", "stimulus": "<p id=\"stim\">8</p>", "internal_node_id": "0.0-141.0-2.0", "time_elapsed": 1406828, "key_press": -1, "trial_index": 188}, "uniqueid": "MTK3627:35L9RVQFCPPV7Q3O5DK9RU7TCFUHUI", "dateTime": 1520874992736}, {"current_trial": 189, "trialdata": {"rt": -1, "trial_type": "single-stim", "stimulus": "<p id=\"stim\">7</p>", "internal_node_id": "0.0-141.0-3.0", "time_elapsed": 1407832, "key_press": -1, "trial_index": 189}, "uniqueid": "MTK3627:35L9RVQFCPPV7Q3O5DK9RU7TCFUHUI", "dateTime": 1520874993740}, {"current_trial": 190, "trialdata": {"rt": -1, "trial_type": "single-stim", "stimulus": "<p id=\"stim\">6</p>", "internal_node_id": "0.0-141.0-4.0", "time_elapsed": 1408836, "key_press": -1, "trial_index": 190}, "uniqueid": "MTK3627:35L9RVQFCPPV7Q3O5DK9RU7TCFUHUI", "dateTime": 1520874994744}, {"current_trial": 191, "trialdata": {"rt": -1, "trial_type": "single-stim", "stimulus": "<p id=\"stim\">5</p>", "internal_node_id": "0.0-141.0-5.0", "time_elapsed": 1409842, "key_press": -1, "trial_index": 191}, "uniqueid": "MTK3627:35L9RVQFCPPV7Q3O5DK9RU7TCFUHUI", "dateTime": 1520874995749}, {"current_trial": 192, "trialdata": {"rt": -1, "trial_type": "single-stim", "stimulus": "<p id=\"stim\">4</p>", "internal_node_id": "0.0-141.0-6.0", "time_elapsed": 1410848, "key_press": -1, "trial_index": 192}, "uniqueid": "MTK3627:35L9RVQFCPPV7Q3O5DK9RU7TCFUHUI", "dateTime": 1520874996755}, {"current_trial": 193, "trialdata": {"rt": -1, "trial_type": "single-stim", "stimulus": "<p id=\"stim\">3</p>", "internal_node_id": "0.0-141.0-7.0", "time_elapsed": 1411858, "key_press": -1, "trial_index": 193}, "uniqueid": "MTK3627:35L9RVQFCPPV7Q3O5DK9RU7TCFUHUI", "dateTime": 1520874997765}, {"current_trial": 194, "trialdata": {"rt": -1, "trial_type": "single-stim", "stimulus": "<p id=\"stim\">2</p>", "internal_node_id": "0.0-141.0-8.0", "time_elapsed": 1412862, "key_press": -1, "trial_index": 194}, "uniqueid": "MTK3627:35L9RVQFCPPV7Q3O5DK9RU7TCFUHUI", "dateTime": 1520874998769}, {"current_trial": 195, "trialdata": {"rt": -1, "trial_type": "single-stim", "stimulus": "<p id=\"stim\">1</p>", "internal_node_id": "0.0-141.0-9.0", "time_elapsed": 1413870, "key_press": -1, "trial_index": 195}, "uniqueid": "MTK3627:35L9RVQFCPPV7Q3O5DK9RU7TCFUHUI", "dateTime": 1520874999778}, {"current_trial": 196, "trialdata": {"rt": -1, "trial_type": "single-stim", "stimulus": "<p id=\"stim\">+</p>", "internal_node_id": "0.0-142.0-0.0", "time_elapsed": 1415376, "key_press": -1, "type": "FIXATION", "trial_index": 196}, "uniqueid": "MTK3627:35L9RVQFCPPV7Q3O5DK9RU7TCFUHUI", "dateTime": 1520875001283}, {"current_trial": 197, "trialdata": {"rt": -1, "trial_type": "single-stim", "word": "hood", "stimulus": "<p id=\"stim\">HOOD</p>", "conditions": [24, 800, "v", 12000], "internal_node_id": "0.0-143.0", "trial": 5, "time_elapsed": 1416181, "serialpos": 0, "key_press": -1, "wordID": 713, "type": "PRES_VIS", "trial_index": 197}, "uniqueid": "MTK3627:35L9RVQFCPPV7Q3O5DK9RU7TCFUHUI", "dateTime": 1520875002089}, {"current_trial": 198, "trialdata": {"rt": -1, "trial_type": "single-stim", "word": "maple", "stimulus": "<p id=\"stim\">MAPLE</p>", "conditions": [24, 800, "v", 12000], "internal_node_id": "0.0-144.0", "trial": 5, "time_elapsed": 1418116, "serialpos": 1, "key_press": -1, "wordID": 865, "type": "PRES_VIS", "trial_index": 198}, "uniqueid": "MTK3627:35L9RVQFCPPV7Q3O5DK9RU7TCFUHUI", "dateTime": 1520875004024}, {"current_trial": 199, "trialdata": {"rt": -1, "trial_type": "single-stim", "word": "trombone", "stimulus": "<p id=\"stim\">TROMBONE</p>", "conditions": [24, 800, "v", 12000], "internal_node_id": "0.0-145.0", "trial": 5, "time_elapsed": 1419725, "serialpos": 2, "key_press": -1, "wordID": 1507, "type": "PRES_VIS", "trial_index": 199}, "uniqueid": "MTK3627:35L9RVQFCPPV7Q3O5DK9RU7TCFUHUI", "dateTime": 1520875005632}, {"current_trial": 200, "trialdata": {"rt": -1, "trial_type": "single-stim", "word": "banjo", "stimulus": "<p id=\"stim\">BANJO</p>", "conditions": [24, 800, "v", 12000], "internal_node_id": "0.0-146.0", "trial": 5, "time_elapsed": 1421590, "serialpos": 3, "key_press": -1, "wordID": 81, "type": "PRES_VIS", "trial_index": 200}, "uniqueid": "MTK3627:35L9RVQFCPPV7Q3O5DK9RU7TCFUHUI", "dateTime": 1520875007497}, {"current_trial": 201, "trialdata": {"rt": -1, "trial_type": "single-stim", "word": "egypt", "stimulus": "<p id=\"stim\">EGYPT</p>", "conditions": [24, 800, "v", 12000], "internal_node_id": "0.0-147.0", "trial": 5, "time_elapsed": 1423375, "serialpos": 4, "key_press": -1, "wordID": 518, "type": "PRES_VIS", "trial_index": 201}, "uniqueid": "MTK3627:35L9RVQFCPPV7Q3O5DK9RU7TCFUHUI", "dateTime": 1520875009282}, {"current_trial": 202, "trialdata": {"rt": -1, "trial_type": "single-stim", "word": "window", "stimulus": "<p id=\"stim\">WINDOW</p>", "conditions": [24, 800, "v", 12000], "internal_node_id": "0.0-148.0", "trial": 5, "time_elapsed": 1425150, "serialpos": 5, "key_press": -1, "wordID": 1610, "type": "PRES_VIS", "trial_index": 202}, "uniqueid": "MTK3627:35L9RVQFCPPV7Q3O5DK9RU7TCFUHUI", "dateTime": 1520875011057}, {"current_trial": 203, "trialdata": {"rt": -1, "trial_type": "single-stim", "word": "branch", "stimulus": "<p id=\"stim\">BRANCH</p>", "conditions": [24, 800, "v", 12000], "internal_node_id": "0.0-149.0", "trial": 5, "time_elapsed": 1427068, "serialpos": 6, "key_press": -1, "wordID": 167, "type": "PRES_VIS", "trial_index": 203}, "uniqueid": "MTK3627:35L9RVQFCPPV7Q3O5DK9RU7TCFUHUI", "dateTime": 1520875012976}, {"current_trial": 204, "trialdata": {"rt": -1, "trial_type": "single-stim", "word": "muffin", "stimulus": "<p id=\"stim\">MUFFIN</p>", "conditions": [24, 800, "v", 12000], "internal_node_id": "0.0-150.0", "trial": 5, "time_elapsed": 1428748, "serialpos": 7, "key_press": -1, "wordID": 928, "type": "PRES_VIS", "trial_index": 204}, "uniqueid": "MTK3627:35L9RVQFCPPV7Q3O5DK9RU7TCFUHUI", "dateTime": 1520875014655}, {"current_trial": 205, "trialdata": {"rt": -1, "trial_type": "single-stim", "word": "europe", "stimulus": "<p id=\"stim\">EUROPE</p>", "conditions": [24, 800, "v", 12000], "internal_node_id": "0.0-151.0", "trial": 5, "time_elapsed": 1430637, "serialpos": 8, "key_press": -1, "wordID": 540, "type": "PRES_VIS", "trial_index": 205}, "uniqueid": "MTK3627:35L9RVQFCPPV7Q3O5DK9RU7TCFUHUI", "dateTime": 1520875016544}, {"current_trial": 206, "trialdata": {"rt": -1, "trial_type": "single-stim", "word": "pebble", "stimulus": "<p id=\"stim\">PEBBLE</p>", "conditions": [24, 800, "v", 12000], "internal_node_id": "0.0-152.0", "trial": 5, "time_elapsed": 1432512, "serialpos": 9, "key_press": -1, "wordID": 1034, "type": "PRES_VIS", "trial_index": 206}, "uniqueid": "MTK3627:35L9RVQFCPPV7Q3O5DK9RU7TCFUHUI", "dateTime": 1520875018420}, {"current_trial": 207, "trialdata": {"rt": -1, "trial_type": "single-stim", "word": "boyfriend", "stimulus": "<p id=\"stim\">BOYFRIEND</p>", "conditions": [24, 800, "v", 12000], "internal_node_id": "0.0-153.0", "trial": 5, "time_elapsed": 1434375, "serialpos": 10, "key_press": -1, "wordID": 161, "type": "PRES_VIS", "trial_index": 207}, "uniqueid": "MTK3627:35L9RVQFCPPV7Q3O5DK9RU7TCFUHUI", "dateTime": 1520875020283}, {"current_trial": 208, "trialdata": {"rt": -1, "trial_type": "single-stim", "word": "outdoors", "stimulus": "<p id=\"stim\">OUTDOORS</p>", "conditions": [24, 800, "v", 12000], "internal_node_id": "0.0-154.0", "trial": 5, "time_elapsed": 1436281, "serialpos": 11, "key_press": -1, "wordID": 986, "type": "PRES_VIS", "trial_index": 208}, "uniqueid": "MTK3627:35L9RVQFCPPV7Q3O5DK9RU7TCFUHUI", "dateTime": 1520875022188}, {"current_trial": 209, "trialdata": {"rt": -1, "trial_type": "single-stim", "word": "statue", "stimulus": "<p id=\"stim\">STATUE</p>", "conditions": [24, 800, "v", 12000], "internal_node_id": "0.0-155.0", "trial": 5, "time_elapsed": 1438256, "serialpos": 12, "key_press": -1, "wordID": 1373, "type": "PRES_VIS", "trial_index": 209}, "uniqueid": "MTK3627:35L9RVQFCPPV7Q3O5DK9RU7TCFUHUI", "dateTime": 1520875024164}, {"current_trial": 210, "trialdata": {"rt": -1, "trial_type": "single-stim", "word": "witness", "stimulus": "<p id=\"stim\">WITNESS</p>", "conditions": [24, 800, "v", 12000], "internal_node_id": "0.0-156.0", "trial": 5, "time_elapsed": 1440175, "serialpos": 13, "key_press": -1, "wordID": 1617, "type": "PRES_VIS", "trial_index": 210}, "uniqueid": "MTK3627:35L9RVQFCPPV7Q3O5DK9RU7TCFUHUI", "dateTime": 1520875026082}, {"current_trial": 211, "trialdata": {"rt": -1, "trial_type": "single-stim", "word": "dust", "stimulus": "<p id=\"stim\">DUST</p>", "conditions": [24, 800, "v", 12000], "internal_node_id": "0.0-157.0", "trial": 5, "time_elapsed": 1441826, "serialpos": 14, "key_press": -1, "wordID": 507, "type": "PRES_VIS", "trial_index": 211}, "uniqueid": "MTK3627:35L9RVQFCPPV7Q3O5DK9RU7TCFUHUI", "dateTime": 1520875027734}, {"current_trial": 212, "trialdata": {"rt": -1, "trial_type": "single-stim", "word": "fireplace", "stimulus": "<p id=\"stim\">FIREPLACE</p>", "conditions": [24, 800, "v", 12000], "internal_node_id": "0.0-158.0", "trial": 5, "time_elapsed": 1443631, "serialpos": 15, "key_press": -1, "wordID": 569, "type": "PRES_VIS", "trial_index": 212}, "uniqueid": "MTK3627:35L9RVQFCPPV7Q3O5DK9RU7TCFUHUI", "dateTime": 1520875029538}, {"current_trial": 213, "trialdata": {"rt": -1, "trial_type": "single-stim", "word": "sausage", "stimulus": "<p id=\"stim\">SAUSAGE</p>", "conditions": [24, 800, "v", 12000], "internal_node_id": "0.0-159.0", "trial": 5, "time_elapsed": 1445596, "serialpos": 16, "key_press": -1, "wordID": 1237, "type": "PRES_VIS", "trial_index": 213}, "uniqueid": "MTK3627:35L9RVQFCPPV7Q3O5DK9RU7TCFUHUI", "dateTime": 1520875031503}, {"current_trial": 214, "trialdata": {"rt": -1, "trial_type": "single-stim", "word": "sandwich", "stimulus": "<p id=\"stim\">SANDWICH</p>", "conditions": [24, 800, "v", 12000], "internal_node_id": "0.0-160.0", "trial": 5, "time_elapsed": 1447229, "serialpos": 17, "key_press": -1, "wordID": 1231, "type": "PRES_VIS", "trial_index": 214}, "uniqueid": "MTK3627:35L9RVQFCPPV7Q3O5DK9RU7TCFUHUI", "dateTime": 1520875033137}, {"current_trial": 215, "trialdata": {"rt": -1, "trial_type": "single-stim", "word": "blender", "stimulus": "<p id=\"stim\">BLENDER</p>", "conditions": [24, 800, "v", 12000], "internal_node_id": "0.0-161.0", "trial": 5, "time_elapsed": 1449024, "serialpos": 18, "key_press": -1, "wordID": 135, "type": "PRES_VIS", "trial_index": 215}, "uniqueid": "MTK3627:35L9RVQFCPPV7Q3O5DK9RU7TCFUHUI", "dateTime": 1520875034932}, {"current_trial": 216, "trialdata": {"rt": -1, "trial_type": "single-stim", "word": "blueprint", "stimulus": "<p id=\"stim\">BLUEPRINT</p>", "conditions": [24, 800, "v", 12000], "internal_node_id": "0.0-162.0", "trial": 5, "time_elapsed": 1450718, "serialpos": 19, "key_press": -1, "wordID": 141, "type": "PRES_VIS", "trial_index": 216}, "uniqueid": "MTK3627:35L9RVQFCPPV7Q3O5DK9RU7TCFUHUI", "dateTime": 1520875036626}, {"current_trial": 217, "trialdata": {"rt": -1, "trial_type": "single-stim", "word": "marker", "stimulus": "<p id=\"stim\">MARKER</p>", "conditions": [24, 800, "v", 12000], "internal_node_id": "0.0-163.0", "trial": 5, "time_elapsed": 1452454, "serialpos": 20, "key_press": -1, "wordID": 869, "type": "PRES_VIS", "trial_index": 217}, "uniqueid": "MTK3627:35L9RVQFCPPV7Q3O5DK9RU7TCFUHUI", "dateTime": 1520875038361}, {"current_trial": 218, "trialdata": {"rt": -1, "trial_type": "single-stim", "word": "tombstone", "stimulus": "<p id=\"stim\">TOMBSTONE</p>", "conditions": [24, 800, "v", 12000], "internal_node_id": "0.0-164.0", "trial": 5, "time_elapsed": 1454279, "serialpos": 21, "key_press": -1, "wordID": 1477, "type": "PRES_VIS", "trial_index": 218}, "uniqueid": "MTK3627:35L9RVQFCPPV7Q3O5DK9RU7TCFUHUI", "dateTime": 1520875040186}, {"current_trial": 219, "trialdata": {"rt": -1, "trial_type": "single-stim", "word": "label", "stimulus": "<p id=\"stim\">LABEL</p>", "conditions": [24, 800, "v", 12000], "internal_node_id": "0.0-165.0", "trial": 5, "time_elapsed": 1455942, "serialpos": 22, "key_press": -1, "wordID": 789, "type": "PRES_VIS", "trial_index": 219}, "uniqueid": "MTK3627:35L9RVQFCPPV7Q3O5DK9RU7TCFUHUI", "dateTime": 1520875041850}, {"current_trial": 220, "trialdata": {"rt": -1, "trial_type": "single-stim", "word": "skillet", "stimulus": "<p id=\"stim\">SKILLET</p>", "conditions": [24, 800, "v", 12000], "internal_node_id": "0.0-166.0", "trial": 5, "time_elapsed": 1457599, "serialpos": 23, "key_press": -1, "wordID": 1316, "type": "PRES_VIS", "trial_index": 220}, "uniqueid": "MTK3627:35L9RVQFCPPV7Q3O5DK9RU7TCFUHUI", "dateTime": 1520875043507}, {"current_trial": 221, "trialdata": {"rt": -1, "trial_type": "single-stim", "stimulus": "", "internal_node_id": "0.0-167.0-0.0", "time_elapsed": 1459951, "key_press": -1, "type": "PRE_RECALL_DELAY", "trial_index": 221}, "uniqueid": "MTK3627:35L9RVQFCPPV7Q3O5DK9RU7TCFUHUI", "dateTime": 1520875045859}, {"current_trial": 222, "trialdata": {"rt": -1000, "trial_type": "single-audio", "stimulus": "/static/audio/400Hz.wav", "internal_node_id": "0.0-168.0", "time_elapsed": 1460465, "key_press": -1, "type": "PRE_RECALL_ALERT", "trial_index": 222}, "uniqueid": "MTK3627:35L9RVQFCPPV7Q3O5DK9RU7TCFUHUI", "dateTime": 1520875046372}, {"current_trial": 223, "trialdata": {"rt": [3736, 5324, 10774, 16146, 21329, 24180, 32173, 37118, 39325, 42706, 44665, 49885, 53181, 56438], "recwords": ["skillet", "label", "europe", "boyfriend", "blueprint", "blender", "saugage", "banjo", "maple", "window", "dust", "outdoors", "label", "fire["], "key_times": [2058, 2340, 2666, 2917, 3050, 3206, 3357, 3736, 4406, 4603, 4724, 4868, 5028, 5324, 6205, 6459, 6640, 6831, 7030, 7402, 7498, 7676, 7844, 8012, 8154, 8701, 8936, 9525, 10217, 10356, 10604, 10774, 12613, 12943, 13228, 13476, 14316, 14490, 14644, 14805, 14895, 16146, 18164, 18509, 18837, 19074, 19655, 20088, 20402, 20629, 20866, 21329, 22723, 23044, 23231, 23402, 23551, 23805, 24005, 24180, 26172, 26416, 26607, 27325, 27501, 27706, 28356, 28526, 28690, 29110, 29351, 30170, 30906, 31113, 31291, 32173, 33542, 33722, 34048, 34327, 34489, 34789, 34947, 35075, 35610, 35852, 35990, 36376, 36651, 37118, 38236, 38380, 38576, 38803, 38999, 39325, 41486, 41751, 41941, 42097, 42231, 42430, 42706, 43386, 43887, 44030, 44207, 44665, 47389, 47628, 47904, 48141, 48294, 48427, 48615, 49516, 49885, 52237, 52431, 52569, 52756, 52894, 53181, 55220, 55538, 55797, 55997, 56207, 56438, 56578, 57094, 57292], "trial_type": "free-recall", "conditions": [24, 800, "v", 12000], "internal_node_id": "0.0-169.0-0.0", "key_presses": [83, 75, 73, 76, 76, 69, 84, 13, 76, 65, 66, 69, 76, 13, 68, 85, 82, 79, 80, 8, 8, 8, 8, 8, 8, 69, 85, 82, 79, 80, 69, 13, 66, 79, 89, 70, 82, 73, 69, 78, 68, 13, 66, 76, 85, 69, 80, 82, 73, 78, 84, 13, 66, 76, 69, 78, 68, 69, 82, 13, 83, 65, 85, 65, 71, 69, 8, 8, 8, 71, 65, 8, 65, 71, 69, 13, 78, 65, 8, 66, 65, 8, 8, 8, 66, 65, 78, 74, 79, 13, 77, 65, 80, 76, 69, 13, 87, 73, 78, 68, 79, 87, 13, 68, 85, 83, 84, 13, 79, 85, 84, 68, 79, 79, 82, 83, 13, 76, 65, 66, 69, 76, 13, 70, 73, 82, 69, 219, 186, 65, 8, 8], "trial": 5, "time_elapsed": 1520479, "type": "FREE_RECALL", "trial_index": 223}, "uniqueid": "MTK3627:35L9RVQFCPPV7Q3O5DK9RU7TCFUHUI", "dateTime": 1520875106412}, {"current_trial": 224, "trialdata": {"rt": 76568, "trial_type": "text", "internal_node_id": "0.0-170.0", "time_elapsed": 1599076, "key_press": 13, "type": "INSTRUCTIONS", "trial_index": 224}, "uniqueid": "MTK3627:35L9RVQFCPPV7Q3O5DK9RU7TCFUHUI", "dateTime": 1520875184983}, {"current_trial": 225, "trialdata": {"rt": [3693, 17360], "trial_type": "math-distractor", "key_times": [3248, 3393, 3693, 16961, 17144, 17360], "responses": ["11", "21"], "num2": [5, 6, 7], "num3": [4, 8, 9], "conditions": [24, 1600, "v", 24000], "internal_node_id": "0.0-171.0", "key_presses": [49, 49, 13, 50, 49, 13], "trial": 6, "time_elapsed": 1625090, "type": "DISTRACTOR", "trial_index": 225, "num1": [2, 6, 6]}, "uniqueid": "MTK3627:35L9RVQFCPPV7Q3O5DK9RU7TCFUHUI", "dateTime": 1520875210998}, {"current_trial": 226, "trialdata": {"rt": -1, "trial_type": "single-stim", "stimulus": "<p id=\"stim\">10</p>", "internal_node_id": "0.0-172.0-0.0", "time_elapsed": 1628097, "key_press": -1, "trial_index": 226}, "uniqueid": "MTK3627:35L9RVQFCPPV7Q3O5DK9RU7TCFUHUI", "dateTime": 1520875214004}, {"current_trial": 227, "trialdata": {"rt": -1, "trial_type": "single-stim", "stimulus": "<p id=\"stim\">9</p>", "internal_node_id": "0.0-172.0-1.0", "time_elapsed": 1629100, "key_press": -1, "trial_index": 227}, "uniqueid": "MTK3627:35L9RVQFCPPV7Q3O5DK9RU7TCFUHUI", "dateTime": 1520875215007}, {"current_trial": 228, "trialdata": {"rt": -1, "trial_type": "single-stim", "stimulus": "<p id=\"stim\">8</p>", "internal_node_id": "0.0-172.0-2.0", "time_elapsed": 1630105, "key_press": -1, "trial_index": 228}, "uniqueid": "MTK3627:35L9RVQFCPPV7Q3O5DK9RU7TCFUHUI", "dateTime": 1520875216012}, {"current_trial": 229, "trialdata": {"rt": -1, "trial_type": "single-stim", "stimulus": "<p id=\"stim\">7</p>", "internal_node_id": "0.0-172.0-3.0", "time_elapsed": 1631109, "key_press": -1, "trial_index": 229}, "uniqueid": "MTK3627:35L9RVQFCPPV7Q3O5DK9RU7TCFUHUI", "dateTime": 1520875217016}, {"current_trial": 230, "trialdata": {"rt": -1, "trial_type": "single-stim", "stimulus": "<p id=\"stim\">6</p>", "internal_node_id": "0.0-172.0-4.0", "time_elapsed": 1632114, "key_press": -1, "trial_index": 230}, "uniqueid": "MTK3627:35L9RVQFCPPV7Q3O5DK9RU7TCFUHUI", "dateTime": 1520875218021}, {"current_trial": 231, "trialdata": {"rt": -1, "trial_type": "single-stim", "stimulus": "<p id=\"stim\">5</p>", "internal_node_id": "0.0-172.0-5.0", "time_elapsed": 1633119, "key_press": -1, "trial_index": 231}, "uniqueid": "MTK3627:35L9RVQFCPPV7Q3O5DK9RU7TCFUHUI", "dateTime": 1520875219027}, {"current_trial": 232, "trialdata": {"rt": -1, "trial_type": "single-stim", "stimulus": "<p id=\"stim\">4</p>", "internal_node_id": "0.0-172.0-6.0", "time_elapsed": 1634124, "key_press": -1, "trial_index": 232}, "uniqueid": "MTK3627:35L9RVQFCPPV7Q3O5DK9RU7TCFUHUI", "dateTime": 1520875220033}, {"current_trial": 233, "trialdata": {"rt": -1, "trial_type": "single-stim", "stimulus": "<p id=\"stim\">3</p>", "internal_node_id": "0.0-172.0-7.0", "time_elapsed": 1635130, "key_press": -1, "trial_index": 233}, "uniqueid": "MTK3627:35L9RVQFCPPV7Q3O5DK9RU7TCFUHUI", "dateTime": 1520875221037}, {"current_trial": 234, "trialdata": {"rt": -1, "trial_type": "single-stim", "stimulus": "<p id=\"stim\">2</p>", "internal_node_id": "0.0-172.0-8.0", "time_elapsed": 1636138, "key_press": -1, "trial_index": 234}, "uniqueid": "MTK3627:35L9RVQFCPPV7Q3O5DK9RU7TCFUHUI", "dateTime": 1520875222051}, {"current_trial": 235, "trialdata": {"rt": -1, "trial_type": "single-stim", "stimulus": "<p id=\"stim\">1</p>", "internal_node_id": "0.0-172.0-9.0", "time_elapsed": 1637152, "key_press": -1, "trial_index": 235}, "uniqueid": "MTK3627:35L9RVQFCPPV7Q3O5DK9RU7TCFUHUI", "dateTime": 1520875223059}, {"current_trial": 236, "trialdata": {"rt": -1, "trial_type": "single-stim", "stimulus": "<p id=\"stim\">+</p>", "internal_node_id": "0.0-173.0-0.0", "time_elapsed": 1638654, "key_press": -1, "type": "FIXATION", "trial_index": 236}, "uniqueid": "MTK3627:35L9RVQFCPPV7Q3O5DK9RU7TCFUHUI", "dateTime": 1520875224562}, {"current_trial": 237, "trialdata": {"rt": -1, "trial_type": "single-stim", "word": "pork", "stimulus": "<p id=\"stim\">PORK</p>", "conditions": [24, 1600, "v", 24000], "internal_node_id": "0.0-174.0", "trial": 6, "time_elapsed": 1640260, "serialpos": 0, "key_press": -1, "wordID": 1107, "type": "PRES_VIS", "trial_index": 237}, "uniqueid": "MTK3627:35L9RVQFCPPV7Q3O5DK9RU7TCFUHUI", "dateTime": 1520875226168}, {"current_trial": 238, "trialdata": {"rt": -1, "trial_type": "single-stim", "word": "scallop", "stimulus": "<p id=\"stim\">SCALLOP</p>", "conditions": [24, 1600, "v", 24000], "internal_node_id": "0.0-175.0", "trial": 6, "time_elapsed": 1642823, "serialpos": 1, "key_press": -1, "wordID": 1241, "type": "PRES_VIS", "trial_index": 238}, "uniqueid": "MTK3627:35L9RVQFCPPV7Q3O5DK9RU7TCFUHUI", "dateTime": 1520875228731}, {"current_trial": 239, "trialdata": {"rt": -1, "trial_type": "single-stim", "word": "crab", "stimulus": "<p id=\"stim\">CRAB</p>", "conditions": [24, 1600, "v", 24000], "internal_node_id": "0.0-176.0", "trial": 6, "time_elapsed": 1645413, "serialpos": 2, "key_press": -1, "wordID": 396, "type": "PRES_VIS", "trial_index": 239}, "uniqueid": "MTK3627:35L9RVQFCPPV7Q3O5DK9RU7TCFUHUI", "dateTime": 1520875231320}, {"current_trial": 240, "trialdata": {"rt": -1, "trial_type": "single-stim", "word": "silk", "stimulus": "<p id=\"stim\">SILK</p>", "conditions": [24, 1600, "v", 24000], "internal_node_id": "0.0-177.0", "trial": 6, "time_elapsed": 1647854, "serialpos": 3, "key_press": -1, "wordID": 1306, "type": "PRES_VIS", "trial_index": 240}, "uniqueid": "MTK3627:35L9RVQFCPPV7Q3O5DK9RU7TCFUHUI", "dateTime": 1520875233762}, {"current_trial": 241, "trialdata": {"rt": -1, "trial_type": "single-stim", "word": "permit", "stimulus": "<p id=\"stim\">PERMIT</p>", "conditions": [24, 1600, "v", 24000], "internal_node_id": "0.0-178.0", "trial": 6, "time_elapsed": 1650423, "serialpos": 4, "key_press": -1, "wordID": 1050, "type": "PRES_VIS", "trial_index": 241}, "uniqueid": "MTK3627:35L9RVQFCPPV7Q3O5DK9RU7TCFUHUI", "dateTime": 1520875236330}, {"current_trial": 242, "trialdata": {"rt": -1, "trial_type": "single-stim", "word": "lodge", "stimulus": "<p id=\"stim\">LODGE</p>", "conditions": [24, 1600, "v", 24000], "internal_node_id": "0.0-179.0", "trial": 6, "time_elapsed": 1653072, "serialpos": 5, "key_press": -1, "wordID": 838, "type": "PRES_VIS", "trial_index": 242}, "uniqueid": "MTK3627:35L9RVQFCPPV7Q3O5DK9RU7TCFUHUI", "dateTime": 1520875238979}, {"current_trial": 243, "trialdata": {"rt": -1, "trial_type": "single-stim", "word": "package", "stimulus": "<p id=\"stim\">PACKAGE</p>", "conditions": [24, 1600, "v", 24000], "internal_node_id": "0.0-180.0", "trial": 6, "time_elapsed": 1655549, "serialpos": 6, "key_press": -1, "wordID": 996, "type": "PRES_VIS", "trial_index": 243}, "uniqueid": "MTK3627:35L9RVQFCPPV7Q3O5DK9RU7TCFUHUI", "dateTime": 1520875241456}, {"current_trial": 244, "trialdata": {"rt": -1, "trial_type": "single-stim", "word": "headband", "stimulus": "<p id=\"stim\">HEADBAND</p>", "conditions": [24, 1600, "v", 24000], "internal_node_id": "0.0-181.0", "trial": 6, "time_elapsed": 1658205, "serialpos": 7, "key_press": -1, "wordID": 695, "type": "PRES_VIS", "trial_index": 244}, "uniqueid": "MTK3627:35L9RVQFCPPV7Q3O5DK9RU7TCFUHUI", "dateTime": 1520875244113}, {"current_trial": 245, "trialdata": {"rt": -1, "trial_type": "single-stim", "word": "beef", "stimulus": "<p id=\"stim\">BEEF</p>", "conditions": [24, 1600, "v", 24000], "internal_node_id": "0.0-182.0", "trial": 6, "time_elapsed": 1660841, "serialpos": 8, "key_press": -1, "wordID": 112, "type": "PRES_VIS", "trial_index": 245}, "uniqueid": "MTK3627:35L9RVQFCPPV7Q3O5DK9RU7TCFUHUI", "dateTime": 1520875246749}, {"current_trial": 246, "trialdata": {"rt": -1, "trial_type": "single-stim", "word": "heart", "stimulus": "<p id=\"stim\">HEART</p>", "conditions": [24, 1600, "v", 24000], "internal_node_id": "0.0-183.0", "trial": 6, "time_elapsed": 1663592, "serialpos": 9, "key_press": -1, "wordID": 696, "type": "PRES_VIS", "trial_index": 246}, "uniqueid": "MTK3627:35L9RVQFCPPV7Q3O5DK9RU7TCFUHUI", "dateTime": 1520875249500}, {"current_trial": 247, "trialdata": {"rt": -1, "trial_type": "single-stim", "word": "plast