{"assignmentId": "3WRFBPLXRBV3ISCGTRJL95EPLCWN3Y", "workerId": "MTK3586", "questiondata": {"origin": "United States", "strat-rehearsal": "83", "marital": "Married/Domestic Partnership", "education": "Bachelor's degree", "ethnicity": "Hispanic", "color_depth": 24, "distracted": "No", "wrote-notes": "No", "strat-other": "none", "screen_width": 1366, "avail_screen_width": 1366, "avail_screen_height": 728, "strat-image": "40", "language": "english", "gender": "Female", "age": "42", "gender_other": "", "race": ["White"], "strat-categorize": "78", "pixel_depth": 24, "strat-spatial": "18", "strat-story": "12", "race_other": "", "screen_height": 768}, "bonus": 0, "hitId": "356ZPKYPUHO2EWNN8PK1E4JD9FWPYK", "counterbalance": 577, "useragent": "Mozilla/5.0 (Windows NT 10.0; Win64; x64) AppleWebKit/537.36 (KHTML, like Gecko) Chrome/64.0.3282.186 Safari/537.36", "eventdata": [{"eventtype": "initialized", "interval": 0, "value": null, "timestamp": 1520795022957}, {"eventtype": "window_resize", "interval": 0, "value": [1366, 721], "timestamp": 1520795022957}, {"eventtype": "window_resize", "interval": 32698, "value": [1366, 677], "timestamp": 1520795055655}, {"eventtype": "focus", "interval": 3109206, "value": "off", "timestamp": 1520798164861}, {"eventtype": "focus", "interval": 1931, "value": "on", "timestamp": 1520798166792}], "data": [{"current_trial": 0, "trialdata": {"rt": 2571, "trial_type": "text", "internal_node_id": "0.0-0.0", "time_elapsed": 2574, "key_press": 77, "type": "INSTRUCTIONS", "trial_index": 0}, "uniqueid": "MTK3586:3WRFBPLXRBV3ISCGTRJL95EPLCWN3Y", "dateTime": 1520795026054}, {"current_trial": 1, "trialdata": {"rt": 10391, "trial_type": "text", "internal_node_id": "0.0-1.0", "time_elapsed": 12968, "key_press": 77, "type": "INSTRUCTIONS", "trial_index": 1}, "uniqueid": "MTK3586:3WRFBPLXRBV3ISCGTRJL95EPLCWN3Y", "dateTime": 1520795036447}, {"current_trial": 2, "trialdata": {"rt": [24085], "trial_type": "audio-test", "responses": ["ocean"], "internal_node_id": "0.0-2.0", "time_elapsed": 37070, "type": "AUDIO_TEST", "trial_index": 2}, "uniqueid": "MTK3586:3WRFBPLXRBV3ISCGTRJL95EPLCWN3Y", "dateTime": 1520795060549}, {"current_trial": 3, "trialdata": {"rt": [30215], "trial_type": "audio-test", "responses": ["crystal"], "internal_node_id": "0.0-3.0", "time_elapsed": 67292, "type": "AUDIO_TEST", "trial_index": 3}, "uniqueid": "MTK3586:3WRFBPLXRBV3ISCGTRJL95EPLCWN3Y", "dateTime": 1520795090771}, {"current_trial": 4, "trialdata": {"rt": [14773], "trial_type": "audio-test", "responses": ["spice"], "internal_node_id": "0.0-4.0", "time_elapsed": 82069, "type": "AUDIO_TEST", "trial_index": 4}, "uniqueid": "MTK3586:3WRFBPLXRBV3ISCGTRJL95EPLCWN3Y", "dateTime": 1520795105549}, {"current_trial": 5, "trialdata": {"rt": 31650, "trial_type": "survey-text", "responses": "{\"Q0\":\"11\",\"Q1\":\"7\",\"Q2\":\"5\"}", "internal_node_id": "0.0-5.0", "time_elapsed": 114475, "type": "SLEEP_SURVEY", "trial_index": 5}, "uniqueid": "MTK3586:3WRFBPLXRBV3ISCGTRJL95EPLCWN3Y", "dateTime": 1520795137954}, {"current_trial": 6, "trialdata": {"rt": 7750, "trial_type": "text", "internal_node_id": "0.0-6.0", "time_elapsed": 123227, "key_press": 13, "type": "INSTRUCTIONS", "trial_index": 6}, "uniqueid": "MTK3586:3WRFBPLXRBV3ISCGTRJL95EPLCWN3Y", "dateTime": 1520795146706}, {"current_trial": 7, "trialdata": {"rt": 14868, "trial_type": "text", "internal_node_id": "0.0-7.0", "time_elapsed": 138595, "key_press": 13, "type": "INSTRUCTIONS", "trial_index": 7}, "uniqueid": "MTK3586:3WRFBPLXRBV3ISCGTRJL95EPLCWN3Y", "dateTime": 1520795162074}, {"current_trial": 8, "trialdata": {"rt": 4824, "trial_type": "text", "internal_node_id": "0.0-8.0", "time_elapsed": 143919, "key_press": 13, "type": "INSTRUCTIONS", "trial_index": 8}, "uniqueid": "MTK3586:3WRFBPLXRBV3ISCGTRJL95EPLCWN3Y", "dateTime": 1520795167398}, {"current_trial": 9, "trialdata": {"rt": [7424, 13242, 15909], "trial_type": "math-distractor", "key_times": [5514, 6017, 7424, 12123, 12278, 13242, 15514, 15696, 15909], "responses": ["18", "20", "11"], "num2": [3, 9, 6, 8], "num3": [8, 2, 2, 8], "conditions": [18, 1200, "v", 18000], "internal_node_id": "0.0-9.0", "key_presses": [49, 56, 13, 50, 48, 13, 49, 49, 13], "trial": 0, "time_elapsed": 162927, "type": "DISTRACTOR", "trial_index": 9, "num1": [7, 9, 3, 8]}, "uniqueid": "MTK3586:3WRFBPLXRBV3ISCGTRJL95EPLCWN3Y", "dateTime": 1520795186406}, {"current_trial": 10, "trialdata": {"rt": -1, "trial_type": "single-stim", "stimulus": "<p id=\"stim\">10</p>", "internal_node_id": "0.0-10.0-0.0", "time_elapsed": 165930, "key_press": -1, "trial_index": 10}, "uniqueid": "MTK3586:3WRFBPLXRBV3ISCGTRJL95EPLCWN3Y", "dateTime": 1520795189409}, {"current_trial": 11, "trialdata": {"rt": -1, "trial_type": "single-stim", "stimulus": "<p id=\"stim\">9</p>", "internal_node_id": "0.0-10.0-1.0", "time_elapsed": 166932, "key_press": -1, "trial_index": 11}, "uniqueid": "MTK3586:3WRFBPLXRBV3ISCGTRJL95EPLCWN3Y", "dateTime": 1520795190411}, {"current_trial": 12, "trialdata": {"rt": -1, "trial_type": "single-stim", "stimulus": "<p id=\"stim\">8</p>", "internal_node_id": "0.0-10.0-2.0", "time_elapsed": 167933, "key_press": -1, "trial_index": 12}, "uniqueid": "MTK3586:3WRFBPLXRBV3ISCGTRJL95EPLCWN3Y", "dateTime": 1520795191412}, {"current_trial": 13, "trialdata": {"rt": -1, "trial_type": "single-stim", "stimulus": "<p id=\"stim\">7</p>", "internal_node_id": "0.0-10.0-3.0", "time_elapsed": 168935, "key_press": -1, "trial_index": 13}, "uniqueid": "MTK3586:3WRFBPLXRBV3ISCGTRJL95EPLCWN3Y", "dateTime": 1520795192414}, {"current_trial": 14, "trialdata": {"rt": -1, "trial_type": "single-stim", "stimulus": "<p id=\"stim\">6</p>", "internal_node_id": "0.0-10.0-4.0", "time_elapsed": 169936, "key_press": -1, "trial_index": 14}, "uniqueid": "MTK3586:3WRFBPLXRBV3ISCGTRJL95EPLCWN3Y", "dateTime": 1520795193415}, {"current_trial": 15, "trialdata": {"rt": -1, "trial_type": "single-stim", "stimulus": "<p id=\"stim\">5</p>", "internal_node_id": "0.0-10.0-5.0", "time_elapsed": 170937, "key_press": -1, "trial_index": 15}, "uniqueid": "MTK3586:3WRFBPLXRBV3ISCGTRJL95EPLCWN3Y", "dateTime": 1520795194416}, {"current_trial": 16, "trialdata": {"rt": -1, "trial_type": "single-stim", "stimulus": "<p id=\"stim\">4</p>", "internal_node_id": "0.0-10.0-6.0", "time_elapsed": 171938, "key_press": -1, "trial_index": 16}, "uniqueid": "MTK3586:3WRFBPLXRBV3ISCGTRJL95EPLCWN3Y", "dateTime": 1520795195417}, {"current_trial": 17, "trialdata": {"rt": -1, "trial_type": "single-stim", "stimulus": "<p id=\"stim\">3</p>", "internal_node_id": "0.0-10.0-7.0", "time_elapsed": 172940, "key_press": -1, "trial_index": 17}, "uniqueid": "MTK3586:3WRFBPLXRBV3ISCGTRJL95EPLCWN3Y", "dateTime": 1520795196419}, {"current_trial": 18, "trialdata": {"rt": -1, "trial_type": "single-stim", "stimulus": "<p id=\"stim\">2</p>", "internal_node_id": "0.0-10.0-8.0", "time_elapsed": 173942, "key_press": -1, "trial_index": 18}, "uniqueid": "MTK3586:3WRFBPLXRBV3ISCGTRJL95EPLCWN3Y", "dateTime": 1520795197421}, {"current_trial": 19, "trialdata": {"rt": -1, "trial_type": "single-stim", "stimulus": "<p id=\"stim\">1</p>", "internal_node_id": "0.0-10.0-9.0", "time_elapsed": 174944, "key_press": -1, "trial_index": 19}, "uniqueid": "MTK3586:3WRFBPLXRBV3ISCGTRJL95EPLCWN3Y", "dateTime": 1520795198423}, {"current_trial": 20, "trialdata": {"rt": -1, "trial_type": "single-stim", "stimulus": "<p id=\"stim\">+</p>", "internal_node_id": "0.0-11.0-0.0", "time_elapsed": 176445, "key_press": -1, "type": "FIXATION", "trial_index": 20}, "uniqueid": "MTK3586:3WRFBPLXRBV3ISCGTRJL95EPLCWN3Y", "dateTime": 1520795199924}, {"current_trial": 21, "trialdata": {"rt": -1, "trial_type": "single-stim", "word": "yarn", "stimulus": "<p id=\"stim\">YARN</p>", "conditions": [18, 1200, "v", 18000], "internal_node_id": "0.0-12.0", "trial": 0, "time_elapsed": 177647, "serialpos": 0, "key_press": -1, "wordID": 1630, "type": "PRES_VIS", "trial_index": 21}, "uniqueid": "MTK3586:3WRFBPLXRBV3ISCGTRJL95EPLCWN3Y", "dateTime": 1520795201126}, {"current_trial": 22, "trialdata": {"rt": -1, "trial_type": "single-stim", "word": "football", "stimulus": "<p id=\"stim\">FOOTBALL</p>", "conditions": [18, 1200, "v", 18000], "internal_node_id": "0.0-13.0", "trial": 0, "time_elapsed": 179906, "serialpos": 1, "key_press": -1, "wordID": 590, "type": "PRES_VIS", "trial_index": 22}, "uniqueid": "MTK3586:3WRFBPLXRBV3ISCGTRJL95EPLCWN3Y", "dateTime": 1520795203385}, {"current_trial": 23, "trialdata": {"rt": -1, "trial_type": "single-stim", "word": "twister", "stimulus": "<p id=\"stim\">TWISTER</p>", "conditions": [18, 1200, "v", 18000], "internal_node_id": "0.0-14.0", "trial": 0, "time_elapsed": 182237, "serialpos": 2, "key_press": -1, "wordID": 1529, "type": "PRES_VIS", "trial_index": 23}, "uniqueid": "MTK3586:3WRFBPLXRBV3ISCGTRJL95EPLCWN3Y", "dateTime": 1520795205716}, {"current_trial": 24, "trialdata": {"rt": -1, "trial_type": "single-stim", "word": "crevice", "stimulus": "<p id=\"stim\">CREVICE</p>", "conditions": [18, 1200, "v", 18000], "internal_node_id": "0.0-15.0", "trial": 0, "time_elapsed": 184618, "serialpos": 3, "key_press": -1, "wordID": 404, "type": "PRES_VIS", "trial_index": 24}, "uniqueid": "MTK3586:3WRFBPLXRBV3ISCGTRJL95EPLCWN3Y", "dateTime": 1520795208097}, {"current_trial": 25, "trialdata": {"rt": -1, "trial_type": "single-stim", "word": "cafe", "stimulus": "<p id=\"stim\">CAFE</p>", "conditions": [18, 1200, "v", 18000], "internal_node_id": "0.0-16.0", "trial": 0, "time_elapsed": 186785, "serialpos": 4, "key_press": -1, "wordID": 215, "type": "PRES_VIS", "trial_index": 25}, "uniqueid": "MTK3586:3WRFBPLXRBV3ISCGTRJL95EPLCWN3Y", "dateTime": 1520795210264}, {"current_trial": 26, "trialdata": {"rt": -1, "trial_type": "single-stim", "word": "missile", "stimulus": "<p id=\"stim\">MISSILE</p>", "conditions": [18, 1200, "v", 18000], "internal_node_id": "0.0-17.0", "trial": 0, "time_elapsed": 189059, "serialpos": 5, "key_press": -1, "wordID": 899, "type": "PRES_VIS", "trial_index": 26}, "uniqueid": "MTK3586:3WRFBPLXRBV3ISCGTRJL95EPLCWN3Y", "dateTime": 1520795212538}, {"current_trial": 27, "trialdata": {"rt": -1, "trial_type": "single-stim", "word": "barley", "stimulus": "<p id=\"stim\">BARLEY</p>", "conditions": [18, 1200, "v", 18000], "internal_node_id": "0.0-18.0", "trial": 0, "time_elapsed": 191177, "serialpos": 6, "key_press": -1, "wordID": 87, "type": "PRES_VIS", "trial_index": 27}, "uniqueid": "MTK3586:3WRFBPLXRBV3ISCGTRJL95EPLCWN3Y", "dateTime": 1520795214656}, {"current_trial": 28, "trialdata": {"rt": -1, "trial_type": "single-stim", "word": "girl", "stimulus": "<p id=\"stim\">GIRL</p>", "conditions": [18, 1200, "v", 18000], "internal_node_id": "0.0-19.0", "trial": 0, "time_elapsed": 193459, "serialpos": 7, "key_press": -1, "wordID": 636, "type": "PRES_VIS", "trial_index": 28}, "uniqueid": "MTK3586:3WRFBPLXRBV3ISCGTRJL95EPLCWN3Y", "dateTime": 1520795216938}, {"current_trial": 29, "trialdata": {"rt": -1, "trial_type": "single-stim", "word": "window", "stimulus": "<p id=\"stim\">WINDOW</p>", "conditions": [18, 1200, "v", 18000], "internal_node_id": "0.0-20.0", "trial": 0, "time_elapsed": 195470, "serialpos": 8, "key_press": -1, "wordID": 1610, "type": "PRES_VIS", "trial_index": 29}, "uniqueid": "MTK3586:3WRFBPLXRBV3ISCGTRJL95EPLCWN3Y", "dateTime": 1520795218949}, {"current_trial": 30, "trialdata": {"rt": -1, "trial_type": "single-stim", "word": "flag", "stimulus": "<p id=\"stim\">FLAG</p>", "conditions": [18, 1200, "v", 18000], "internal_node_id": "0.0-21.0", "trial": 0, "time_elapsed": 197675, "serialpos": 9, "key_press": -1, "wordID": 572, "type": "PRES_VIS", "trial_index": 30}, "uniqueid": "MTK3586:3WRFBPLXRBV3ISCGTRJL95EPLCWN3Y", "dateTime": 1520795221154}, {"current_trial": 31, "trialdata": {"rt": -1, "trial_type": "single-stim", "word": "mailman", "stimulus": "<p id=\"stim\">MAILMAN</p>", "conditions": [18, 1200, "v", 18000], "internal_node_id": "0.0-22.0", "trial": 0, "time_elapsed": 200056, "serialpos": 10, "key_press": -1, "wordID": 857, "type": "PRES_VIS", "trial_index": 31}, "uniqueid": "MTK3586:3WRFBPLXRBV3ISCGTRJL95EPLCWN3Y", "dateTime": 1520795223535}, {"current_trial": 32, "trialdata": {"rt": -1, "trial_type": "single-stim", "word": "forehead", "stimulus": "<p id=\"stim\">FOREHEAD</p>", "conditions": [18, 1200, "v", 18000], "internal_node_id": "0.0-23.0", "trial": 0, "time_elapsed": 202440, "serialpos": 11, "key_press": -1, "wordID": 591, "type": "PRES_VIS", "trial_index": 32}, "uniqueid": "MTK3586:3WRFBPLXRBV3ISCGTRJL95EPLCWN3Y", "dateTime": 1520795225919}, {"current_trial": 33, "trialdata": {"rt": -1, "trial_type": "single-stim", "word": "lava", "stimulus": "<p id=\"stim\">LAVA</p>", "conditions": [18, 1200, "v", 18000], "internal_node_id": "0.0-24.0", "trial": 0, "time_elapsed": 204702, "serialpos": 12, "key_press": -1, "wordID": 803, "type": "PRES_VIS", "trial_index": 33}, "uniqueid": "MTK3586:3WRFBPLXRBV3ISCGTRJL95EPLCWN3Y", "dateTime": 1520795228181}, {"current_trial": 34, "trialdata": {"rt": -1, "trial_type": "single-stim", "word": "scallop", "stimulus": "<p id=\"stim\">SCALLOP</p>", "conditions": [18, 1200, "v", 18000], "internal_node_id": "0.0-25.0", "trial": 0, "time_elapsed": 206722, "serialpos": 13, "key_press": -1, "wordID": 1241, "type": "PRES_VIS", "trial_index": 34}, "uniqueid": "MTK3586:3WRFBPLXRBV3ISCGTRJL95EPLCWN3Y", "dateTime": 1520795230201}, {"current_trial": 35, "trialdata": {"rt": -1, "trial_type": "single-stim", "word": "cashew", "stimulus": "<p id=\"stim\">CASHEW</p>", "conditions": [18, 1200, "v", 18000], "internal_node_id": "0.0-26.0", "trial": 0, "time_elapsed": 208794, "serialpos": 14, "key_press": -1, "wordID": 252, "type": "PRES_VIS", "trial_index": 35}, "uniqueid": "MTK3586:3WRFBPLXRBV3ISCGTRJL95EPLCWN3Y", "dateTime": 1520795232273}, {"current_trial": 36, "trialdata": {"rt": -1, "trial_type": "single-stim", "word": "seagull", "stimulus": "<p id=\"stim\">SEAGULL</p>", "conditions": [18, 1200, "v", 18000], "internal_node_id": "0.0-27.0", "trial": 0, "time_elapsed": 210953, "serialpos": 15, "key_press": -1, "wordID": 1260, "type": "PRES_VIS", "trial_index": 36}, "uniqueid": "MTK3586:3WRFBPLXRBV3ISCGTRJL95EPLCWN3Y", "dateTime": 1520795234432}, {"current_trial": 37, "trialdata": {"rt": -1, "trial_type": "single-stim", "word": "sibling", "stimulus": "<p id=\"stim\">SIBLING</p>", "conditions": [18, 1200, "v", 18000], "internal_node_id": "0.0-28.0", "trial": 0, "time_elapsed": 213324, "serialpos": 16, "key_press": -1, "wordID": 1300, "type": "PRES_VIS", "trial_index": 37}, "uniqueid": "MTK3586:3WRFBPLXRBV3ISCGTRJL95EPLCWN3Y", "dateTime": 1520795236803}, {"current_trial": 38, "trialdata": {"rt": -1, "trial_type": "single-stim", "word": "eyelash", "stimulus": "<p id=\"stim\">EYELASH</p>", "conditions": [18, 1200, "v", 18000], "internal_node_id": "0.0-29.0", "trial": 0, "time_elapsed": 215622, "serialpos": 17, "key_press": -1, "wordID": 545, "type": "PRES_VIS", "trial_index": 38}, "uniqueid": "MTK3586:3WRFBPLXRBV3ISCGTRJL95EPLCWN3Y", "dateTime": 1520795239101}, {"current_trial": 39, "trialdata": {"rt": -1, "trial_type": "single-stim", "stimulus": "", "internal_node_id": "0.0-30.0-0.0", "time_elapsed": 217705, "key_press": -1, "type": "PRE_RECALL_DELAY", "trial_index": 39}, "uniqueid": "MTK3586:3WRFBPLXRBV3ISCGTRJL95EPLCWN3Y", "dateTime": 1520795241184}, {"current_trial": 40, "trialdata": {"rt": -1000, "trial_type": "single-audio", "stimulus": "/static/audio/400Hz.wav", "internal_node_id": "0.0-31.0", "time_elapsed": 218207, "key_press": -1, "type": "PRE_RECALL_ALERT", "trial_index": 40}, "uniqueid": "MTK3586:3WRFBPLXRBV3ISCGTRJL95EPLCWN3Y", "dateTime": 1520795241688}, {"current_trial": 41, "trialdata": {"rt": [5599, 11427, 17709, 22844, 26480, 29466, 35607, 39780, 52979, 55619, 58294], "recwords": ["", "one", "seven", "help", "lost", "", "forgot", "second", "why", "who", "help"], "key_times": [5599, 9682, 9931, 10164, 11427, 15741, 16012, 16329, 16599, 17432, 17709, 20730, 21101, 21542, 21772, 22844, 24127, 24398, 24705, 25137, 26480, 29466, 33514, 33741, 33957, 34309, 34552, 34697, 35607, 37378, 37621, 37926, 38194, 38789, 38923, 39780, 51608, 51753, 51961, 52979, 53849, 54201, 54669, 55619, 56775, 56927, 57279, 57505, 58294], "trial_type": "free-recall", "conditions": [18, 1200, "v", 18000], "internal_node_id": "0.0-32.0-0.0", "key_presses": [13, 79, 78, 69, 13, 83, 69, 86, 69, 78, 13, 72, 69, 76, 80, 13, 76, 79, 83, 84, 13, 13, 70, 79, 82, 71, 79, 84, 13, 83, 69, 67, 79, 78, 68, 13, 87, 72, 89, 13, 87, 72, 79, 13, 72, 69, 76, 80, 13], "trial": 0, "time_elapsed": 278214, "type": "FREE_RECALL", "trial_index": 41}, "uniqueid": "MTK3586:3WRFBPLXRBV3ISCGTRJL95EPLCWN3Y", "dateTime": 1520795301695}, {"current_trial": 42, "trialdata": {"rt": 4487, "trial_type": "text", "internal_node_id": "0.0-33.0", "time_elapsed": 284704, "key_press": 77, "type": "INSTRUCTIONS", "trial_index": 42}, "uniqueid": "MTK3586:3WRFBPLXRBV3ISCGTRJL95EPLCWN3Y", "dateTime": 1520795308183}, {"current_trial": 43, "trialdata": {"rt": [15908], "trial_type": "math-distractor", "key_times": [14930, 15044, 15908], "responses": ["10"], "num2": [1, 8], "num3": [3, 6], "conditions": [18, 1200, "v", 18000], "internal_node_id": "0.0-34.0", "key_presses": [49, 48, 13], "trial": 1, "time_elapsed": 304733, "type": "DISTRACTOR", "trial_index": 43, "num1": [6, 6]}, "uniqueid": "MTK3586:3WRFBPLXRBV3ISCGTRJL95EPLCWN3Y", "dateTime": 1520795328212}, {"current_trial": 44, "trialdata": {"rt": -1, "trial_type": "single-stim", "stimulus": "<p id=\"stim\">10</p>", "internal_node_id": "0.0-35.0-0.0", "time_elapsed": 307735, "key_press": -1, "trial_index": 44}, "uniqueid": "MTK3586:3WRFBPLXRBV3ISCGTRJL95EPLCWN3Y", "dateTime": 1520795331214}, {"current_trial": 45, "trialdata": {"rt": 57, "trial_type": "single-stim", "stimulus": "<p id=\"stim\">9</p>", "internal_node_id": "0.0-35.0-1.0", "time_elapsed": 308746, "key_press": 13, "trial_index": 45}, "uniqueid": "MTK3586:3WRFBPLXRBV3ISCGTRJL95EPLCWN3Y", "dateTime": 1520795332225}, {"current_trial": 46, "trialdata": {"rt": -1, "trial_type": "single-stim", "stimulus": "<p id=\"stim\">8</p>", "internal_node_id": "0.0-35.0-2.0", "time_elapsed": 309746, "key_press": -1, "trial_index": 46}, "uniqueid": "MTK3586:3WRFBPLXRBV3ISCGTRJL95EPLCWN3Y", "dateTime": 1520795333225}, {"current_trial": 47, "trialdata": {"rt": -1, "trial_type": "single-stim", "stimulus": "<p id=\"stim\">7</p>", "internal_node_id": "0.0-35.0-3.0", "time_elapsed": 310747, "key_press": -1, "trial_index": 47}, "uniqueid": "MTK3586:3WRFBPLXRBV3ISCGTRJL95EPLCWN3Y", "dateTime": 1520795334226}, {"current_trial": 48, "trialdata": {"rt": -1, "trial_type": "single-stim", "stimulus": "<p id=\"stim\">6</p>", "internal_node_id": "0.0-35.0-4.0", "time_elapsed": 311748, "key_press": -1, "trial_index": 48}, "uniqueid": "MTK3586:3WRFBPLXRBV3ISCGTRJL95EPLCWN3Y", "dateTime": 1520795335227}, {"current_trial": 49, "trialdata": {"rt": -1, "trial_type": "single-stim", "stimulus": "<p id=\"stim\">5</p>", "internal_node_id": "0.0-35.0-5.0", "time_elapsed": 312750, "key_press": -1, "trial_index": 49}, "uniqueid": "MTK3586:3WRFBPLXRBV3ISCGTRJL95EPLCWN3Y", "dateTime": 1520795336229}, {"current_trial": 50, "trialdata": {"rt": -1, "trial_type": "single-stim", "stimulus": "<p id=\"stim\">4</p>", "internal_node_id": "0.0-35.0-6.0", "time_elapsed": 313751, "key_press": -1, "trial_index": 50}, "uniqueid": "MTK3586:3WRFBPLXRBV3ISCGTRJL95EPLCWN3Y", "dateTime": 1520795337230}, {"current_trial": 51, "trialdata": {"rt": -1, "trial_type": "single-stim", "stimulus": "<p id=\"stim\">3</p>", "internal_node_id": "0.0-35.0-7.0", "time_elapsed": 314751, "key_press": -1, "trial_index": 51}, "uniqueid": "MTK3586:3WRFBPLXRBV3ISCGTRJL95EPLCWN3Y", "dateTime": 1520795338230}, {"current_trial": 52, "trialdata": {"rt": -1, "trial_type": "single-stim", "stimulus": "<p id=\"stim\">2</p>", "internal_node_id": "0.0-35.0-8.0", "time_elapsed": 315752, "key_press": -1, "trial_index": 52}, "uniqueid": "MTK3586:3WRFBPLXRBV3ISCGTRJL95EPLCWN3Y", "dateTime": 1520795339231}, {"current_trial": 53, "trialdata": {"rt": -1, "trial_type": "single-stim", "stimulus": "<p id=\"stim\">1</p>", "internal_node_id": "0.0-35.0-9.0", "time_elapsed": 316753, "key_press": -1, "trial_index": 53}, "uniqueid": "MTK3586:3WRFBPLXRBV3ISCGTRJL95EPLCWN3Y", "dateTime": 1520795340232}, {"current_trial": 54, "trialdata": {"rt": -1, "trial_type": "single-stim", "stimulus": "<p id=\"stim\">+</p>", "internal_node_id": "0.0-36.0-0.0", "time_elapsed": 318255, "key_press": -1, "type": "FIXATION", "trial_index": 54}, "uniqueid": "MTK3586:3WRFBPLXRBV3ISCGTRJL95EPLCWN3Y", "dateTime": 1520795341734}, {"current_trial": 55, "trialdata": {"rt": -1, "trial_type": "single-stim", "word": "portrait", "stimulus": "<p id=\"stim\">PORTRAIT</p>", "conditions": [18, 1200, "v", 18000], "internal_node_id": "0.0-37.0", "trial": 1, "time_elapsed": 319458, "serialpos": 0, "key_press": -1, "wordID": 1110, "type": "PRES_VIS", "trial_index": 55}, "uniqueid": "MTK3586:3WRFBPLXRBV3ISCGTRJL95EPLCWN3Y", "dateTime": 1520795342937}, {"current_trial": 56, "trialdata": {"rt": -1, "trial_type": "single-stim", "word": "sticker", "stimulus": "<p id=\"stim\">STICKER</p>", "conditions": [18, 1200, "v", 18000], "internal_node_id": "0.0-38.0", "trial": 1, "time_elapsed": 321604, "serialpos": 1, "key_press": -1, "wordID": 1381, "type": "PRES_VIS", "trial_index": 56}, "uniqueid": "MTK3586:3WRFBPLXRBV3ISCGTRJL95EPLCWN3Y", "dateTime": 1520795345083}, {"current_trial": 57, "trialdata": {"rt": -1, "trial_type": "single-stim", "word": "loft", "stimulus": "<p id=\"stim\">LOFT</p>", "conditions": [18, 1200, "v", 18000], "internal_node_id": "0.0-39.0", "trial": 1, "time_elapsed": 323700, "serialpos": 2, "key_press": -1, "wordID": 839, "type": "PRES_VIS", "trial_index": 57}, "uniqueid": "MTK3586:3WRFBPLXRBV3ISCGTRJL95EPLCWN3Y", "dateTime": 1520795347179}, {"current_trial": 58, "trialdata": {"rt": -1, "trial_type": "single-stim", "word": "hood", "stimulus": "<p id=\"stim\">HOOD</p>", "conditions": [18, 1200, "v", 18000], "internal_node_id": "0.0-40.0", "trial": 1, "time_elapsed": 326054, "serialpos": 3, "key_press": -1, "wordID": 713, "type": "PRES_VIS", "trial_index": 58}, "uniqueid": "MTK3586:3WRFBPLXRBV3ISCGTRJL95EPLCWN3Y", "dateTime": 1520795349533}, {"current_trial": 59, "trialdata": {"rt": -1, "trial_type": "single-stim", "word": "female", "stimulus": "<p id=\"stim\">FEMALE</p>", "conditions": [18, 1200, "v", 18000], "internal_node_id": "0.0-41.0", "trial": 1, "time_elapsed": 328205, "serialpos": 4, "key_press": -1, "wordID": 558, "type": "PRES_VIS", "trial_index": 59}, "uniqueid": "MTK3586:3WRFBPLXRBV3ISCGTRJL95EPLCWN3Y", "dateTime": 1520795351684}, {"current_trial": 60, "trialdata": {"rt": -1, "trial_type": "single-stim", "word": "turnip", "stimulus": "<p id=\"stim\">TURNIP</p>", "conditions": [18, 1200, "v", 18000], "internal_node_id": "0.0-42.0", "trial": 1, "time_elapsed": 330541, "serialpos": 5, "key_press": -1, "wordID": 1520, "type": "PRES_VIS", "trial_index": 60}, "uniqueid": "MTK3586:3WRFBPLXRBV3ISCGTRJL95EPLCWN3Y", "dateTime": 1520795354020}, {"current_trial": 61, "trialdata": {"rt": -1, "trial_type": "single-stim", "word": "cobra", "stimulus": "<p id=\"stim\">COBRA</p>", "conditions": [18, 1200, "v", 18000], "internal_node_id": "0.0-43.0", "trial": 1, "time_elapsed": 332783, "serialpos": 6, "key_press": -1, "wordID": 335, "type": "PRES_VIS", "trial_index": 61}, "uniqueid": "MTK3586:3WRFBPLXRBV3ISCGTRJL95EPLCWN3Y", "dateTime": 1520795356262}, {"current_trial": 62, "trialdata": {"rt": -1, "trial_type": "single-stim", "word": "valve", "stimulus": "<p id=\"stim\">VALVE</p>", "conditions": [18, 1200, "v", 18000], "internal_node_id": "0.0-44.0", "trial": 1, "time_elapsed": 335114, "serialpos": 7, "key_press": -1, "wordID": 1545, "type": "PRES_VIS", "trial_index": 62}, "uniqueid": "MTK3586:3WRFBPLXRBV3ISCGTRJL95EPLCWN3Y", "dateTime": 1520795358595}, {"current_trial": 63, "trialdata": {"rt": -1, "trial_type": "single-stim", "word": "message", "stimulus": "<p id=\"stim\">MESSAGE</p>", "conditions": [18, 1200, "v", 18000], "internal_node_id": "0.0-45.0", "trial": 1, "time_elapsed": 337216, "serialpos": 8, "key_press": -1, "wordID": 887, "type": "PRES_VIS", "trial_index": 63}, "uniqueid": "MTK3586:3WRFBPLXRBV3ISCGTRJL95EPLCWN3Y", "dateTime": 1520795360695}, {"current_trial": 64, "trialdata": {"rt": -1, "trial_type": "single-stim", "word": "bison", "stimulus": "<p id=\"stim\">BISON</p>", "conditions": [18, 1200, "v", 18000], "internal_node_id": "0.0-46.0", "trial": 1, "time_elapsed": 339461, "serialpos": 9, "key_press": -1, "wordID": 130, "type": "PRES_VIS", "trial_index": 64}, "uniqueid": "MTK3586:3WRFBPLXRBV3ISCGTRJL95EPLCWN3Y", "dateTime": 1520795362940}, {"current_trial": 65, "trialdata": {"rt": -1, "trial_type": "single-stim", "word": "mop", "stimulus": "<p id=\"stim\">MOP</p>", "conditions": [18, 1200, "v", 18000], "internal_node_id": "0.0-47.0", "trial": 1, "time_elapsed": 341789, "serialpos": 10, "key_press": -1, "wordID": 915, "type": "PRES_VIS", "trial_index": 65}, "uniqueid": "MTK3586:3WRFBPLXRBV3ISCGTRJL95EPLCWN3Y", "dateTime": 1520795365268}, {"current_trial": 66, "trialdata": {"rt": -1, "trial_type": "single-stim", "word": "briefcase", "stimulus": "<p id=\"stim\">BRIEFCASE</p>", "conditions": [18, 1200, "v", 18000], "internal_node_id": "0.0-48.0", "trial": 1, "time_elapsed": 344064, "serialpos": 11, "key_press": -1, "wordID": 174, "type": "PRES_VIS", "trial_index": 66}, "uniqueid": "MTK3586:3WRFBPLXRBV3ISCGTRJL95EPLCWN3Y", "dateTime": 1520795367543}, {"current_trial": 67, "trialdata": {"rt": -1, "trial_type": "single-stim", "word": "wasp", "stimulus": "<p id=\"stim\">WASP</p>", "conditions": [18, 1200, "v", 18000], "internal_node_id": "0.0-49.0", "trial": 1, "time_elapsed": 346248, "serialpos": 12, "key_press": -1, "wordID": 1592, "type": "PRES_VIS", "trial_index": 67}, "uniqueid": "MTK3586:3WRFBPLXRBV3ISCGTRJL95EPLCWN3Y", "dateTime": 1520795369727}, {"current_trial": 68, "trialdata": {"rt": -1, "trial_type": "single-stim", "word": "basement", "stimulus": "<p id=\"stim\">BASEMENT</p>", "conditions": [18, 1200, "v", 18000], "internal_node_id": "0.0-50.0", "trial": 1, "time_elapsed": 348579, "serialpos": 13, "key_press": -1, "wordID": 93, "type": "PRES_VIS", "trial_index": 68}, "uniqueid": "MTK3586:3WRFBPLXRBV3ISCGTRJL95EPLCWN3Y", "dateTime": 1520795372058}, {"current_trial": 69, "trialdata": {"rt": -1, "trial_type": "single-stim", "word": "catcher", "stimulus": "<p id=\"stim\">CATCHER</p>", "conditions": [18, 1200, "v", 18000], "internal_node_id": "0.0-51.0", "trial": 1, "time_elapsed": 350686, "serialpos": 14, "key_press": -1, "wordID": 257, "type": "PRES_VIS", "trial_index": 69}, "uniqueid": "MTK3586:3WRFBPLXRBV3ISCGTRJL95EPLCWN3Y", "dateTime": 1520795374165}, {"current_trial": 70, "trialdata": {"rt": -1, "trial_type": "single-stim", "word": "spool", "stimulus": "<p id=\"stim\">SPOOL</p>", "conditions": [18, 1200, "v", 18000], "internal_node_id": "0.0-52.0", "trial": 1, "time_elapsed": 352988, "serialpos": 15, "key_press": -1, "wordID": 1355, "type": "PRES_VIS", "trial_index": 70}, "uniqueid": "MTK3586:3WRFBPLXRBV3ISCGTRJL95EPLCWN3Y", "dateTime": 1520795376467}, {"current_trial": 71, "trialdata": {"rt": -1, "trial_type": "single-stim", "word": "crib", "stimulus": "<p id=\"stim\">CRIB</p>", "conditions": [18, 1200, "v", 18000], "internal_node_id": "0.0-53.0", "trial": 1, "time_elapsed": 355086, "serialpos": 16, "key_press": -1, "wordID": 406, "type": "PRES_VIS", "trial_index": 71}, "uniqueid": "MTK3586:3WRFBPLXRBV3ISCGTRJL95EPLCWN3Y", "dateTime": 1520795378565}, {"current_trial": 72, "trialdata": {"rt": -1, "trial_type": "single-stim", "word": "film", "stimulus": "<p id=\"stim\">FILM</p>", "conditions": [18, 1200, "v", 18000], "internal_node_id": "0.0-54.0", "trial": 1, "time_elapsed": 357201, "serialpos": 17, "key_press": -1, "wordID": 564, "type": "PRES_VIS", "trial_index": 72}, "uniqueid": "MTK3586:3WRFBPLXRBV3ISCGTRJL95EPLCWN3Y", "dateTime": 1520795380680}, {"current_trial": 73, "trialdata": {"rt": -1, "trial_type": "single-stim", "stimulus": "", "internal_node_id": "0.0-55.0-0.0", "time_elapsed": 359614, "key_press": -1, "type": "PRE_RECALL_DELAY", "trial_index": 73}, "uniqueid": "MTK3586:3WRFBPLXRBV3ISCGTRJL95EPLCWN3Y", "dateTime": 1520795383093}, {"current_trial": 74, "trialdata": {"rt": -1000, "trial_type": "single-audio", "stimulus": "/static/audio/400Hz.wav", "internal_node_id": "0.0-56.0", "time_elapsed": 360116, "key_press": -1, "type": "PRE_RECALL_ALERT", "trial_index": 74}, "uniqueid": "MTK3586:3WRFBPLXRBV3ISCGTRJL95EPLCWN3Y", "dateTime": 1520795383595}, {"current_trial": 75, "trialdata": {"rt": [27076, 35505, 37672, 40881, 57494], "recwords": ["sister", "cobra", "nest", "basement", "lost"], "key_times": [21122, 21266, 21816, 21954, 22321, 25916, 27076, 32934, 33267, 33748, 34007, 34660, 35505, 36111, 36227, 36471, 36730, 37672, 38289, 38439, 38702, 38930, 39291, 39383, 39549, 39912, 40881, 55797, 56016, 56162, 56568, 57494, 58771, 58918, 59037, 59321], "trial_type": "free-recall", "conditions": [18, 1200, "v", 18000], "internal_node_id": "0.0-57.0-0.0", "key_presses": [83, 73, 84, 69, 82, 83, 13, 67, 79, 66, 82, 65, 13, 78, 69, 83, 84, 13, 66, 65, 83, 69, 77, 69, 78, 84, 13, 76, 79, 83, 84, 13, 77, 65, 78, 89], "trial": 1, "time_elapsed": 420121, "type": "FREE_RECALL", "trial_index": 75}, "uniqueid": "MTK3586:3WRFBPLXRBV3ISCGTRJL95EPLCWN3Y", "dateTime": 1520795443609}, {"current_trial": 76, "trialdata": {"rt": 4049, "trial_type": "text", "internal_node_id": "0.0-58.0", "time_elapsed": 426180, "key_press": 13, "type": "INSTRUCTIONS", "trial_index": 76}, "uniqueid": "MTK3586:3WRFBPLXRBV3ISCGTRJL95EPLCWN3Y", "dateTime": 1520795449660}, {"current_trial": 77, "trialdata": {"rt": [4374, 8265], "trial_type": "math-distractor", "key_times": [3882, 4269, 4374, 7744, 8167, 8265], "responses": ["14", "14"], "num2": [3, 2, 1], "num3": [9, 3, 8], "conditions": [24, 1600, "v", 12000], "internal_node_id": "0.0-59.0", "key_presses": [49, 52, 13, 49, 52, 13], "trial": 2, "time_elapsed": 439190, "type": "DISTRACTOR", "trial_index": 77, "num1": [2, 9, 4]}, "uniqueid": "MTK3586:3WRFBPLXRBV3ISCGTRJL95EPLCWN3Y", "dateTime": 1520795462669}, {"current_trial": 78, "trialdata": {"rt": 247, "trial_type": "single-stim", "stimulus": "<p id=\"stim\">10</p>", "internal_node_id": "0.0-60.0-0.0", "time_elapsed": 442193, "key_press": 49, "trial_index": 78}, "uniqueid": "MTK3586:3WRFBPLXRBV3ISCGTRJL95EPLCWN3Y", "dateTime": 1520795465675}, {"current_trial": 79, "trialdata": {"rt": -1, "trial_type": "single-stim", "stimulus": "<p id=\"stim\">9</p>", "internal_node_id": "0.0-60.0-1.0", "time_elapsed": 443197, "key_press": -1, "trial_index": 79}, "uniqueid": "MTK3586:3WRFBPLXRBV3ISCGTRJL95EPLCWN3Y", "dateTime": 1520795466676}, {"current_trial": 80, "trialdata": {"rt": 642, "trial_type": "single-stim", "stimulus": "<p id=\"stim\">8</p>", "internal_node_id": "0.0-60.0-2.0", "time_elapsed": 444197, "key_press": 13, "trial_index": 80}, "uniqueid": "MTK3586:3WRFBPLXRBV3ISCGTRJL95EPLCWN3Y", "dateTime": 1520795467676}, {"current_trial": 81, "trialdata": {"rt": -1, "trial_type": "single-stim", "stimulus": "<p id=\"stim\">7</p>", "internal_node_id": "0.0-60.0-3.0", "time_elapsed": 445198, "key_press": -1, "trial_index": 81}, "uniqueid": "MTK3586:3WRFBPLXRBV3ISCGTRJL95EPLCWN3Y", "dateTime": 1520795468677}, {"current_trial": 82, "trialdata": {"rt": -1, "trial_type": "single-stim", "stimulus": "<p id=\"stim\">6</p>", "internal_node_id": "0.0-60.0-4.0", "time_elapsed": 446200, "key_press": -1, "trial_index": 82}, "uniqueid": "MTK3586:3WRFBPLXRBV3ISCGTRJL95EPLCWN3Y", "dateTime": 1520795469679}, {"current_trial": 83, "trialdata": {"rt": -1, "trial_type": "single-stim", "stimulus": "<p id=\"stim\">5</p>", "internal_node_id": "0.0-60.0-5.0", "time_elapsed": 447202, "key_press": -1, "trial_index": 83}, "uniqueid": "MTK3586:3WRFBPLXRBV3ISCGTRJL95EPLCWN3Y", "dateTime": 1520795470681}, {"current_trial": 84, "trialdata": {"rt": -1, "trial_type": "single-stim", "stimulus": "<p id=\"stim\">4</p>", "internal_node_id": "0.0-60.0-6.0", "time_elapsed": 448203, "key_press": -1, "trial_index": 84}, "uniqueid": "MTK3586:3WRFBPLXRBV3ISCGTRJL95EPLCWN3Y", "dateTime": 1520795471682}, {"current_trial": 85, "trialdata": {"rt": -1, "trial_type": "single-stim", "stimulus": "<p id=\"stim\">3</p>", "internal_node_id": "0.0-60.0-7.0", "time_elapsed": 449204, "key_press": -1, "trial_index": 85}, "uniqueid": "MTK3586:3WRFBPLXRBV3ISCGTRJL95EPLCWN3Y", "dateTime": 1520795472683}, {"current_trial": 86, "trialdata": {"rt": -1, "trial_type": "single-stim", "stimulus": "<p id=\"stim\">2</p>", "internal_node_id": "0.0-60.0-8.0", "time_elapsed": 450204, "key_press": -1, "trial_index": 86}, "uniqueid": "MTK3586:3WRFBPLXRBV3ISCGTRJL95EPLCWN3Y", "dateTime": 1520795473683}, {"current_trial": 87, "trialdata": {"rt": -1, "trial_type": "single-stim", "stimulus": "<p id=\"stim\">1</p>", "internal_node_id": "0.0-60.0-9.0", "time_elapsed": 451205, "key_press": -1, "trial_index": 87}, "uniqueid": "MTK3586:3WRFBPLXRBV3ISCGTRJL95EPLCWN3Y", "dateTime": 1520795474684}, {"current_trial": 88, "trialdata": {"rt": -1, "trial_type": "single-stim", "stimulus": "<p id=\"stim\">+</p>", "internal_node_id": "0.0-61.0-0.0", "time_elapsed": 452707, "key_press": -1, "type": "FIXATION", "trial_index": 88}, "uniqueid": "MTK3586:3WRFBPLXRBV3ISCGTRJL95EPLCWN3Y", "dateTime": 1520795476186}, {"current_trial": 89, "trialdata": {"rt": -1, "trial_type": "single-stim", "word": "doughnut", "stimulus": "<p id=\"stim\">DOUGHNUT</p>", "conditions": [24, 1600, "v", 12000], "internal_node_id": "0.0-62.0", "trial": 2, "time_elapsed": 454308, "serialpos": 0, "key_press": -1, "wordID": 489, "type": "PRES_VIS", "trial_index": 89}, "uniqueid": "MTK3586:3WRFBPLXRBV3ISCGTRJL95EPLCWN3Y", "dateTime": 1520795477787}, {"current_trial": 90, "trialdata": {"rt": -1, "trial_type": "single-stim", "word": "woman", "stimulus": "<p id=\"stim\">WOMAN</p>", "conditions": [24, 1600, "v", 12000], "internal_node_id": "0.0-63.0", "trial": 2, "time_elapsed": 457028, "serialpos": 1, "key_press": -1, "wordID": 1619, "type": "PRES_VIS", "trial_index": 90}, "uniqueid": "MTK3586:3WRFBPLXRBV3ISCGTRJL95EPLCWN3Y", "dateTime": 1520795480507}, {"current_trial": 91, "trialdata": {"rt": -1, "trial_type": "single-stim", "word": "shelter", "stimulus": "<p id=\"stim\">SHELTER</p>", "conditions": [24, 1600, "v", 12000], "internal_node_id": "0.0-64.0", "trial": 2, "time_elapsed": 459441, "serialpos": 2, "key_press": -1, "wordID": 1281, "type": "PRES_VIS", "trial_index": 91}, "uniqueid": "MTK3586:3WRFBPLXRBV3ISCGTRJL95EPLCWN3Y", "dateTime": 1520795482920}, {"current_trial": 92, "trialdata": {"rt": -1, "trial_type": "single-stim", "word": "glove", "stimulus": "<p id=\"stim\">GLOVE</p>", "conditions": [24, 1600, "v", 12000], "internal_node_id": "0.0-65.0", "trial": 2, "time_elapsed": 462151, "serialpos": 3, "key_press": -1, "wordID": 641, "type": "PRES_VIS", "trial_index": 92}, "uniqueid": "MTK3586:3WRFBPLXRBV3ISCGTRJL95EPLCWN3Y", "dateTime": 1520795485630}, {"current_trial": 93, "trialdata": {"rt": -1, "trial_type": "single-stim", "word": "cricket", "stimulus": "<p id=\"stim\">CRICKET</p>", "conditions": [24, 1600, "v", 12000], "internal_node_id": "0.0-66.0", "trial": 2, "time_elapsed": 464691, "serialpos": 4, "key_press": -1, "wordID": 407, "type": "PRES_VIS", "trial_index": 93}, "uniqueid": "MTK3586:3WRFBPLXRBV3ISCGTRJL95EPLCWN3Y", "dateTime": 1520795488170}, {"current_trial": 94, "trialdata": {"rt": -1, "trial_type": "single-stim", "word": "powder", "stimulus": "<p id=\"stim\">POWDER</p>", "conditions": [24, 1600, "v", 12000], "internal_node_id": "0.0-67.0", "trial": 2, "time_elapsed": 467442, "serialpos": 5, "key_press": -1, "wordID": 1116, "type": "PRES_VIS", "trial_index": 94}, "uniqueid": "MTK3586:3WRFBPLXRBV3ISCGTRJL95EPLCWN3Y", "dateTime": 1520795490921}, {"current_trial": 95, "trialdata": {"rt": -1, "trial_type": "single-stim", "word": "mildew", "stimulus": "<p id=\"stim\">MILDEW</p>", "conditions": [24, 1600, "v", 12000], "internal_node_id": "0.0-68.0", "trial": 2, "time_elapsed": 469944, "serialpos": 6, "key_press": -1, "wordID": 892, "type": "PRES_VIS", "trial_index": 95}, "uniqueid": "MTK3586:3WRFBPLXRBV3ISCGTRJL95EPLCWN3Y", "dateTime": 1520795493423}, {"current_trial": 96, "trialdata": {"rt": -1, "trial_type": "single-stim", "word": "pebble", "stimulus": "<p id=\"stim\">PEBBLE</p>", "conditions": [24, 1600, "v", 12000], "internal_node_id": "0.0-69.0", "trial": 2, "time_elapsed": 472711, "serialpos": 7, "key_press": -1, "wordID": 1034, "type": "PRES_VIS", "trial_index": 96}, "uniqueid": "MTK3586:3WRFBPLXRBV3ISCGTRJL95EPLCWN3Y", "dateTime": 1520795496190}, {"current_trial": 97, "trialdata": {"rt": -1, "trial_type": "single-stim", "word": "pastry", "stimulus": "<p id=\"stim\">PASTRY</p>", "conditions": [24, 1600, "v", 12000], "internal_node_id": "0.0-70.0", "trial": 2, "time_elapsed": 475227, "serialpos": 8, "key_press": -1, "wordID": 1021, "type": "PRES_VIS", "trial_index": 97}, "uniqueid": "MTK3586:3WRFBPLXRBV3ISCGTRJL95EPLCWN3Y", "dateTime": 1520795498706}, {"current_trial": 98, "trialdata": {"rt": -1, "trial_type": "single-stim", "word": "clothes", "stimulus": "<p id=\"stim\">CLOTHES</p>", "conditions": [24, 1600, "v", 12000], "internal_node_id": "0.0-71.0", "trial": 2, "time_elapsed": 477967, "serialpos": 9, "key_press": -1, "wordID": 326, "type": "PRES_VIS", "trial_index": 98}, "uniqueid": "MTK3586:3WRFBPLXRBV3ISCGTRJL95EPLCWN3Y", "dateTime": 1520795501446}, {"current_trial": 99, "trialdata": {"rt": -1, "trial_type": "single-stim", "word": "wardrobe", "stimulus": "<p id=\"stim\">WARDROBE</p>", "conditions": [24, 1600, "v", 12000], "internal_node_id": "0.0-72.0", "trial": 2, "time_elapsed": 480548, "serialpos": 10, "key_press": -1, "wordID": 1586, "type": "PRES_VIS", "trial_index": 99}, "uniqueid": "MTK3586:3WRFBPLXRBV3ISCGTRJL95EPLCWN3Y", "dateTime": 1520795504027}, {"current_trial": 100, "trialdata": {"rt": -1, "trial_type": "single-stim", "word": "knife", "stimulus": "<p id=\"stim\">KNIFE</p>", "conditions": [24, 1600, "v", 12000], "internal_node_id": "0.0-73.0", "trial": 2, "time_elapsed": 483048, "serialpos": 11, "key_press": -1, "wordID": 784, "type": "PRES_VIS", "trial_index": 100}, "uniqueid": "MTK3586:3WRFBPLXRBV3ISCGTRJL95EPLCWN3Y", "dateTime": 1520795506527}, {"current_trial": 101, "trialdata": {"rt": -1, "trial_type": "single-stim", "word": "possum", "stimulus": "<p id=\"stim\">POSSUM</p>", "conditions": [24, 1600, "v", 12000], "internal_node_id": "0.0-74.0", "trial": 2, "time_elapsed": 485518, "serialpos": 12, "key_press": -1, "wordID": 1111, "type": "PRES_VIS", "trial_index": 101}, "uniqueid": "MTK3586:3WRFBPLXRBV3ISCGTRJL95EPLCWN3Y", "dateTime": 1520795508997}, {"current_trial": 102, "trialdata": {"rt": -1, "trial_type": "single-stim", "word": "gallon", "stimulus": "<p id=\"stim\">GALLON</p>", "conditions": [24, 1600, "v", 12000], "internal_node_id": "0.0-75.0", "trial": 2, "time_elapsed": 488119, "serialpos": 13, "key_press": -1, "wordID": 617, "type": "PRES_VIS", "trial_index": 102}, "uniqueid": "MTK3586:3WRFBPLXRBV3ISCGTRJL95EPLCWN3Y", "dateTime": 1520795511598}, {"current_trial": 103, "trialdata": {"rt": -1, "trial_type": "single-stim", "word": "barrel", "stimulus": "<p id=\"stim\">BARREL</p>", "conditions": [24, 1600, "v", 12000], "internal_node_id": "0.0-76.0", "trial": 2, "time_elapsed": 490863, "serialpos": 14, "key_press": -1, "wordID": 90, "type": "PRES_VIS", "trial_index": 103}, "uniqueid": "MTK3586:3WRFBPLXRBV3ISCGTRJL95EPLCWN3Y", "dateTime": 1520795514342}, {"current_trial": 104, "trialdata": {"rt": -1, "trial_type": "single-stim", "word": "lion", "stimulus": "<p id=\"stim\">LION</p>", "conditions": [24, 1600, "v", 12000], "internal_node_id": "0.0-77.0", "trial": 2, "time_elapsed": 493310, "serialpos": 15, "key_press": -1, "wordID": 826, "type": "PRES_VIS", "trial_index": 104}, "uniqueid": "MTK3586:3WRFBPLXRBV3ISCGTRJL95EPLCWN3Y", "dateTime": 1520795516789}, {"current_trial": 105, "trialdata": {"rt": -1, "trial_type": "single-stim", "word": "cigar", "stimulus": "<p id=\"stim\">CIGAR</p>", "conditions": [24, 1600, "v", 12000], "internal_node_id": "0.0-78.0", "trial": 2, "time_elapsed": 495715, "serialpos": 16, "key_press": -1, "wordID": 307, "type": "PRES_VIS", "trial_index": 105}, "uniqueid": "MTK3586:3WRFBPLXRBV3ISCGTRJL95EPLCWN3Y", "dateTime": 1520795519194}, {"current_trial": 106, "trialdata": {"rt": -1, "trial_type": "single-stim", "word": "beaker", "stimulus": "<p id=\"stim\">BEAKER</p>", "conditions": [24, 1600, "v", 12000], "internal_node_id": "0.0-79.0", "trial": 2, "time_elapsed": 498260, "serialpos": 17, "key_press": -1, "wordID": 103, "type": "PRES_VIS", "trial_index": 106}, "uniqueid": "MTK3586:3WRFBPLXRBV3ISCGTRJL95EPLCWN3Y", "dateTime": 1520795521739}, {"current_trial": 107, "trialdata": {"rt": -1, "trial_type": "single-stim", "word": "piston", "stimulus": "<p id=\"stim\">PISTON</p>", "conditions": [24, 1600, "v", 12000], "internal_node_id": "0.0-80.0", "trial": 2, "time_elapsed": 501040, "serialpos": 18, "key_press": -1, "wordID": 1075, "type": "PRES_VIS", "trial_index": 107}, "uniqueid": "MTK3586:3WRFBPLXRBV3ISCGTRJL95EPLCWN3Y", "dateTime": 1520795524519}, {"current_trial": 108, "trialdata": {"rt": -1, "trial_type": "single-stim", "word": "infant", "stimulus": "<p id=\"stim\">INFANT</p>", "conditions": [24, 1600, "v", 12000], "internal_node_id": "0.0-81.0", "trial": 2, "time_elapsed": 503793, "serialpos": 19, "key_press": -1, "wordID": 736, "type": "PRES_VIS", "trial_index": 108}, "uniqueid": "MTK3586:3WRFBPLXRBV3ISCGTRJL95EPLCWN3Y", "dateTime": 1520795527272}, {"current_trial": 109, "trialdata": {"rt": -1, "trial_type": "single-stim", "word": "gazelle", "stimulus": "<p id=\"stim\">GAZELLE</p>", "conditions": [24, 1600, "v", 12000], "internal_node_id": "0.0-82.0", "trial": 2, "time_elapsed": 506593, "serialpos": 20, "key_press": -1, "wordID": 627, "type": "PRES_VIS", "trial_index": 109}, "uniqueid": "MTK3586:3WRFBPLXRBV3ISCGTRJL95EPLCWN3Y", "dateTime": 1520795530072}, {"current_trial": 110, "trialdata": {"rt": -1, "trial_type": "single-stim", "word": "flask", "stimulus": "<p id=\"stim\">FLASK</p>", "conditions": [24, 1600, "v", 12000], "internal_node_id": "0.0-83.0", "trial": 2, "time_elapsed": 509261, "serialpos": 21, "key_press": -1, "wordID": 575, "type": "PRES_VIS", "trial_index": 110}, "uniqueid": "MTK3586:3WRFBPLXRBV3ISCGTRJL95EPLCWN3Y", "dateTime": 1520795532740}, {"current_trial": 111, "trialdata": {"rt": -1, "trial_type": "single-stim", "word": "outlaw", "stimulus": "<p id=\"stim\">OUTLAW</p>", "conditions": [24, 1600, "v", 12000], "internal_node_id": "0.0-84.0", "trial": 2, "time_elapsed": 511717, "serialpos": 22, "key_press": -1, "wordID": 988, "type": "PRES_VIS", "trial_index": 111}, "uniqueid": "MTK3586:3WRFBPLXRBV3ISCGTRJL95EPLCWN3Y", "dateTime": 1520795535196}, {"current_trial": 112, "trialdata": {"rt": -1, "trial_type": "single-stim", "word": "milk", "stimulus": "<p id=\"stim\">MILK</p>", "conditions": [24, 1600, "v", 12000], "internal_node_id": "0.0-85.0", "trial": 2, "time_elapsed": 514492, "serialpos": 23, "key_press": -1, "wordID": 894, "type": "PRES_VIS", "trial_index": 112}, "uniqueid": "MTK3586:3WRFBPLXRBV3ISCGTRJL95EPLCWN3Y", "dateTime": 1520795537971}, {"current_trial": 113, "trialdata": {"rt": -1, "trial_type": "single-stim", "stimulus": "", "internal_node_id": "0.0-86.0-0.0", "time_elapsed": 516896, "key_press": -1, "type": "PRE_RECALL_DELAY", "trial_index": 113}, "uniqueid": "MTK3586:3WRFBPLXRBV3ISCGTRJL95EPLCWN3Y", "dateTime": 1520795540375}, {"current_trial": 114, "trialdata": {"rt": -1000, "trial_type": "single-audio", "stimulus": "/static/audio/400Hz.wav", "internal_node_id": "0.0-87.0", "time_elapsed": 517397, "key_press": -1, "type": "PRE_RECALL_ALERT", "trial_index": 114}, "uniqueid": "MTK3586:3WRFBPLXRBV3ISCGTRJL95EPLCWN3Y", "dateTime": 1520795540876}, {"current_trial": 115, "trialdata": {"rt": [5047, 8271, 13467, 16941, 28437, 53632], "recwords": ["gallon", "barrel", "milk", "woman", "cobra", "bat"], "key_times": [1946, 2156, 2621, 2775, 3641, 4249, 5047, 5770, 5932, 6387, 6540, 6725, 7382, 8271, 9253, 9475, 10503, 10724, 11980, 12628, 13467, 15004, 15278, 15519, 15684, 16026, 16941, 25509, 25913, 26327, 26535, 27096, 28437, 51052, 51856, 52598, 53632], "trial_type": "free-recall", "conditions": [24, 1600, "v", 12000], "internal_node_id": "0.0-88.0-0.0", "key_presses": [71, 65, 76, 76, 79, 78, 13, 66, 65, 82, 82, 69, 76, 13, 77, 73, 76, 83, 8, 75, 13, 87, 79, 77, 65, 78, 13, 67, 79, 66, 82, 65, 13, 66, 65, 84, 13], "trial": 2, "time_elapsed": 577399, "type": "FREE_RECALL", "trial_index": 115}, "uniqueid": "MTK3586:3WRFBPLXRBV3ISCGTRJL95EPLCWN3Y", "dateTime": 1520795600882}, {"current_trial": 116, "trialdata": {"rt": 16386, "trial_type": "text", "internal_node_id": "0.0-89.0", "time_elapsed": 595791, "key_press": 13, "type": "INSTRUCTIONS", "trial_index": 116}, "uniqueid": "MTK3586:3WRFBPLXRBV3ISCGTRJL95EPLCWN3Y", "dateTime": 1520795619270}, {"current_trial": 117, "trialdata": {"rt": [3096, 9625, 18001, 21909], "trial_type": "math-distractor", "key_times": [3096, 8554, 9391, 9625, 17512, 17897, 18001, 21252, 21776, 21909], "responses": ["", "17", "13", "13"], "num2": [1, 4, 2, 5, 3], "num3": [9, 4, 4, 7, 7], "conditions": [24, 1600, "v", 24000], "internal_node_id": "0.0-90.0", "key_presses": [13, 49, 55, 13, 49, 51, 13, 49, 51, 13], "trial": 3, "time_elapsed": 621796, "type": "DISTRACTOR", "trial_index": 117, "num1": [5, 9, 7, 1, 1]}, "uniqueid": "MTK3586:3WRFBPLXRBV3ISCGTRJL95EPLCWN3Y", "dateTime": 1520795645275}, {"current_trial": 118, "trialdata": {"rt": -1, "trial_type": "single-stim", "stimulus": "<p id=\"stim\">10</p>", "internal_node_id": "0.0-91.0-0.0", "time_elapsed": 624798, "key_press": -1, "trial_index": 118}, "uniqueid": "MTK3586:3WRFBPLXRBV3ISCGTRJL95EPLCWN3Y", "dateTime": 1520795648277}, {"current_trial": 119, "trialdata": {"rt": -1, "trial_type": "single-stim", "stimulus": "<p id=\"stim\">9</p>", "internal_node_id": "0.0-91.0-1.0", "time_elapsed": 625799, "key_press": -1, "trial_index": 119}, "uniqueid": "MTK3586:3WRFBPLXRBV3ISCGTRJL95EPLCWN3Y", "dateTime": 1520795649278}, {"current_trial": 120, "trialdata": {"rt": -1, "trial_type": "single-stim", "stimulus": "<p id=\"stim\">8</p>", "internal_node_id": "0.0-91.0-2.0", "time_elapsed": 626799, "key_press": -1, "trial_index": 120}, "uniqueid": "MTK3586:3WRFBPLXRBV3ISCGTRJL95EPLCWN3Y", "dateTime": 1520795650278}, {"current_trial": 121, "trialdata": {"rt": -1, "trial_type": "single-stim", "stimulus": "<p id=\"stim\">7</p>", "internal_node_id": "0.0-91.0-3.0", "time_elapsed": 627802, "key_press": -1, "trial_index": 121}, "uniqueid": "MTK3586:3WRFBPLXRBV3ISCGTRJL95EPLCWN3Y", "dateTime": 1520795651281}, {"current_trial": 122, "trialdata": {"rt": -1, "trial_type": "single-stim", "stimulus": "<p id=\"stim\">6</p>", "internal_node_id": "0.0-91.0-4.0", "time_elapsed": 628803, "key_press": -1, "trial_index": 122}, "uniqueid": "MTK3586:3WRFBPLXRBV3ISCGTRJL95EPLCWN3Y", "dateTime": 1520795652282}, {"current_trial": 123, "trialdata": {"rt": -1, "trial_type": "single-stim", "stimulus": "<p id=\"stim\">5</p>", "internal_node_id": "0.0-91.0-5.0", "time_elapsed": 629804, "key_press": -1, "trial_index": 123}, "uniqueid": "MTK3586:3WRFBPLXRBV3ISCGTRJL95EPLCWN3Y", "dateTime": 1520795653283}, {"current_trial": 124, "trialdata": {"rt": -1, "trial_type": "single-stim", "stimulus": "<p id=\"stim\">4</p>", "internal_node_id": "0.0-91.0-6.0", "time_elapsed": 630805, "key_press": -1, "trial_index": 124}, "uniqueid": "MTK3586:3WRFBPLXRBV3ISCGTRJL95EPLCWN3Y", "dateTime": 1520795654284}, {"current_trial": 125, "trialdata": {"rt": -1, "trial_type": "single-stim", "stimulus": "<p id=\"stim\">3</p>", "internal_node_id": "0.0-91.0-7.0", "time_elapsed": 631806, "key_press": -1, "trial_index": 125}, "uniqueid": "MTK3586:3WRFBPLXRBV3ISCGTRJL95EPLCWN3Y", "dateTime": 1520795655285}, {"current_trial": 126, "trialdata": {"rt": -1, "trial_type": "single-stim", "stimulus": "<p id=\"stim\">2</p>", "internal_node_id": "0.0-91.0-8.0", "time_elapsed": 632807, "key_press": -1, "trial_index": 126}, "uniqueid": "MTK3586:3WRFBPLXRBV3ISCGTRJL95EPLCWN3Y", "dateTime": 1520795656286}, {"current_trial": 127, "trialdata": {"rt": -1, "trial_type": "single-stim", "stimulus": "<p id=\"stim\">1</p>", "internal_node_id": "0.0-91.0-9.0", "time_elapsed": 633808, "key_press": -1, "trial_index": 127}, "uniqueid": "MTK3586:3WRFBPLXRBV3ISCGTRJL95EPLCWN3Y", "dateTime": 1520795657287}, {"current_trial": 128, "trialdata": {"rt": -1, "trial_type": "single-stim", "stimulus": "<p id=\"stim\">+</p>", "internal_node_id": "0.0-92.0-0.0", "time_elapsed": 635308, "key_press": -1, "type": "FIXATION", "trial_index": 128}, "uniqueid": "MTK3586:3WRFBPLXRBV3ISCGTRJL95EPLCWN3Y", "dateTime": 1520795658787}, {"current_trial": 129, "trialdata": {"rt": -1, "trial_type": "single-stim", "word": "shrub", "stimulus": "<p id=\"stim\">SHRUB</p>", "conditions": [24, 1600, "v", 24000], "internal_node_id": "0.0-93.0", "trial": 3, "time_elapsed": 636909, "serialpos": 0, "key_press": -1, "wordID": 1298, "type": "PRES_VIS", "trial_index": 129}, "uniqueid": "MTK3586:3WRFBPLXRBV3ISCGTRJL95EPLCWN3Y", "dateTime": 1520795660388}, {"current_trial": 130, "trialdata": {"rt": -1, "trial_type": "single-stim", "word": "money", "stimulus": "<p id=\"stim\">MONEY</p>", "conditions": [24, 1600, "v", 24000], "internal_node_id": "0.0-94.0", "trial": 3, "time_elapsed": 639509, "serialpos": 1, "key_press": -1, "wordID": 907, "type": "PRES_VIS", "trial_index": 130}, "uniqueid": "MTK3586:3WRFBPLXRBV3ISCGTRJL95EPLCWN3Y", "dateTime": 1520795662988}, {"current_trial": 131, "trialdata": {"rt": -1, "trial_type": "single-stim", "word": "college", "stimulus": "<p id=\"stim\">COLLEGE</p>", "conditions": [24, 1600, "v", 24000], "internal_node_id": "0.0-95.0", "trial": 3, "time_elapsed": 641931, "serialpos": 2, "key_press": -1, "wordID": 345, "type": "PRES_VIS", "trial_index": 131}, "uniqueid": "MTK3586:3WRFBPLXRBV3ISCGTRJL95EPLCWN3Y", "dateTime": 1520795665410}, {"current_trial": 132, "trialdata": {"rt": -1, "trial_type": "single-stim", "word": "orchid", "stimulus": "<p id=\"stim\">ORCHID</p>", "conditions": [24, 1600, "v", 24000], "internal_node_id": "0.0-96.0", "trial": 3, "time_elapsed": 644540, "serialpos": 3, "key_press": -1, "wordID": 981, "type": "PRES_VIS", "trial_index": 132}, "uniqueid": "MTK3586:3WRFBPLXRBV3ISCGTRJL95EPLCWN3Y", "dateTime": 1520795668019}, {"current_trial": 133, "trialdata": {"rt": -1, "trial_type": "single-stim", "word": "trout", "stimulus": "<p id=\"stim\">TROUT</p>", "conditions": [24, 1600, "v", 24000], "internal_node_id": "0.0-97.0", "trial": 3, "time_elapsed": 647099, "serialpos": 4, "key_press": -1, "wordID": 1510, "type": "PRES_VIS", "trial_index": 133}, "uniqueid": "MTK3586:3WRFBPLXRBV3ISCGTRJL95EPLCWN3Y", "dateTime": 1520795670578}, {"current_trial": 134, "trialdata": {"rt": -1, "trial_type": "single-stim", "word": "salmon", "stimulus": "<p id=\"stim\">SALMON</p>", "conditions": [24, 1600, "v", 24000], "internal_node_id": "0.0-98.0", "trial": 3, "time_elapsed": 649671, "serialpos": 5, "key_press": -1, "wordID": 1226, "type": "PRES_VIS", "trial_index": 134}, "uniqueid": "MTK3586:3WRFBPLXRBV3ISCGTRJL95EPLCWN3Y", "dateTime": 1520795673150}, {"current_trial": 135, "trialdata": {"rt": -1, "trial_type": "single-stim", "word": "lightning", "stimulus": "<p id=\"stim\">LIGHTNING</p>", "conditions": [24, 1600, "v", 24000], "internal_node_id": "0.0-99.0", "trial": 3, "time_elapsed": 652418, "serialpos": 6, "key_press": -1, "wordID": 819, "type": "PRES_VIS", "trial_index": 135}, "uniqueid": "MTK3586:3WRFBPLXRBV3ISCGTRJL95EPLCWN3Y", "dateTime": 1520795675897}, {"current_trial": 136, "trialdata": {"rt": -1, "trial_type": "single-stim", "word": "salt", "stimulus": "<p id=\"stim\">SALT</p>", "conditions": [24, 1600, "v", 24000], "internal_node_id": "0.0-100.0", "trial": 3, "time_elapsed": 655126, "serialpos": 7, "key_press": -1, "wordID": 1228, "type": "PRES_VIS", "trial_index": 136}, "uniqueid": "MTK3586:3WRFBPLXRBV3ISCGTRJL95EPLCWN3Y", "dateTime": 1520795678605}, {"current_trial": 137, "trialdata": {"rt": -1, "trial_type": "single-stim", "word": "lodge", "stimulus": "<p id=\"stim\">LODGE</p>", "conditions": [24, 1600, "v", 24000], "internal_node_id": "0.0-101.0", "trial": 3, "time_elapsed": 657541, "serialpos": 8, "key_press": -1, "wordID": 838, "type": "PRES_VIS", "trial_index": 137}, "uniqueid": "MTK3586:3WRFBPLXRBV3ISCGTRJL95EPLCWN3Y", "dateTime": 1520795681020}, {"current_trial": 138, "trialdata": {"rt": -1, "trial_type": "single-stim", "word": "teacher", "stimulus": "<p id=\"stim\">TEACHER</p>", "conditions": [24, 1600, "v", 24000], "internal_node_id": "0.0-102.0", "trial": 3, "time_elapsed": 659962, "serialpos": 9, "key_press": -1, "wordID": 1439, "type": "PRES_VIS", "trial_index": 138}, "uniqueid": "MTK3586:3WRFBPLXRBV3ISCGTRJL95EPLCWN3Y", "dateTime": 1520795683441}, {"current_trial": 139, "trialdata": {"rt": -1, "trial_type": "single-stim", "word": "silk", "stimulus": "<p id=\"stim\">SILK</p>", "conditions": [24, 1600, "v", 24000], "internal_node_id": "0.0-103.0", "trial": 3, "time_elapsed": 662642, "serialpos": 10, "key_press": -1, "wordID": 1306, "type": "PRES_VIS", "trial_index": 139}, "uniqueid": "MTK3586:3WRFBPLXRBV3ISCGTRJL95EPLCWN3Y", "dateTime": 1520795686121}, {"current_trial": 140, "trialdata": {"rt": -1, "trial_type": "single-stim", "word": "fruit", "stimulus": "<p id=\"stim\">FRUIT</p>", "conditions": [24, 1600, "v", 24000], "internal_node_id": "0.0-104.0", "trial": 3, "time_elapsed": 665370, "serialpos": 11, "key_press": -1, "wordID": 609, "type": "PRES_VIS", "trial_index": 140}, "uniqueid": "MTK3586:3WRFBPLXRBV3ISCGTRJL95EPLCWN3Y", "dateTime": 1520795688849}, {"current_trial": 141, "trialdata": {"rt": -1, "trial_type": "single-stim", "word": "glass", "stimulus": "<p id=\"stim\">GLASS</p>", "conditions": [24, 1600, "v", 24000], "internal_node_id": "0.0-105.0", "trial": 3, "time_elapsed": 668142, "serialpos": 12, "key_press": -1, "wordID": 638, "type": "PRES_VIS", "trial_index": 141}, "uniqueid": "MTK3586:3WRFBPLXRBV3ISCGTRJL95EPLCWN3Y", "dateTime": 1520795691621}, {"current_trial": 142, "trialdata": {"rt": -1, "trial_type": "single-stim", "word": "relish", "stimulus": "<p id=\"stim\">RELISH</p>", "conditions": [24, 1600, "v", 24000], "internal_node_id": "0.0-106.0", "trial": 3, "time_elapsed": 670578, "serialpos": 13, "key_press": -1, "wordID": 1182, "type": "PRES_VIS", "trial_index": 142}, "uniqueid": "MTK3586:3WRFBPLXRBV3ISCGTRJL95EPLCWN3Y", "dateTime": 1520795694057}, {"current_trial": 143, "trialdata": {"rt": -1, "trial_type": "single-stim", "word": "coffee", "stimulus": "<p id=\"stim\">COFFEE</p>", "conditions": [24, 1600, "v", 24000], "internal_node_id": "0.0-107.0", "trial": 3, "time_elapsed": 673034, "serialpos": 14, "key_press": -1, "wordID": 340, "type": "PRES_VIS", "trial_index": 143}, "uniqueid": "MTK3586:3WRFBPLXRBV3ISCGTRJL95EPLCWN3Y", "dateTime": 1520795696513}, {"current_trial": 144, "trialdata": {"rt": -1, "trial_type": "single-stim", "word": "daisy", "stimulus": "<p id=\"stim\">DAISY</p>", "conditions": [24, 1600, "v", 24000], "internal_node_id": "0.0-108.0", "trial": 3, "time_elapsed": 675820, "serialpos": 15, "key_press": -1, "wordID": 434, "type": "PRES_VIS", "trial_index": 144}, "uniqueid": "MTK3586:3WRFBPLXRBV3ISCGTRJL95EPLCWN3Y", "dateTime": 1520795699299}, {"current_trial": 145, "trialdata": {"rt": -1, "trial_type": "single-stim", "word": "servant", "stimulus": "<p id=\"stim\">SERVANT</p>", "conditions": [24, 1600, "v", 24000], "internal_node_id": "0.0-109.0", "trial": 3, "time_elapsed": 678539, "serialpos": 16, "key_press": -1, "wordID": 1270, "type": "PRES_VIS", "trial_index": 145}, "uniqueid": "MTK3586:3WRFBPLXRBV3ISCGTRJL95EPLCWN3Y", "dateTime": 1520795702018}, {"current_trial": 146, "trialdata": {"rt": -1, "trial_type": "single-stim", "word": "puppy", "stimulus": "<p id=\"stim\">PUPPY</p>", "conditions": [24, 1600, "v", 24000], "internal_node_id": "0.0-110.0", "trial": 3, "time_elapsed": 681010, "serialpos": 17, "key_press": -1, "wordID": 1143, "type": "PRES_VIS", "trial_index": 146}, "uniqueid": "MTK3586:3WRFBPLXRBV3ISCGTRJL95EPLCWN3Y", "dateTime": 1520795704491}, {"current_trial": 147, "trialdata": {"rt": -1, "trial_type": "single-stim", "word": "bunny", "stimulus": "<p id=\"stim\">BUNNY</p>", "conditions": [24, 1600, "v", 24000], "internal_node_id": "0.0-111.0", "trial": 3, "time_elapsed": 683717, "serialpos": 18, "key_press": -1, "wordID": 197, "type": "PRES_VIS", "trial_index": 147}, "uniqueid": "MTK3586:3WRFBPLXRBV3ISCGTRJL95EPLCWN3Y", "dateTime": 1520795707196}, {"current_trial": 148, "trialdata": {"rt": -1, "trial_type": "single-stim", "word": "softball", "stimulus": "<p id=\"stim\">SOFTBALL</p>", "conditions": [24, 1600, "v", 24000], "internal_node_id": "0.0-112.0", "trial": 3, "time_elapsed": 686354, "serialpos": 19, "key_press": -1, "wordID": 1342, "type": "PRES_VIS", "trial_index": 148}, "uniqueid": "MTK3586:3WRFBPLXRBV3ISCGTRJL95EPLCWN3Y", "dateTime": 1520795709833}, {"current_trial": 149, "trialdata": {"rt": -1, "trial_type": "single-stim", "word": "taxi", "stimulus": "<p id=\"stim\">TAXI</p>", "conditions": [24, 1600, "v", 24000], "internal_node_id": "0.0-113.0", "trial": 3, "time_elapsed": 689035, "serialpos": 20, "key_press": -1, "wordID": 1437, "type": "PRES_VIS", "trial_index": 149}, "uniqueid": "MTK3586:3WRFBPLXRBV3ISCGTRJL95EPLCWN3Y", "dateTime": 1520795712514}, {"current_trial": 150, "trialdata": {"rt": -1, "trial_type": "single-stim", "word": "sunset", "stimulus": "<p id=\"stim\">SUNSET</p>", "conditions": [24, 1600, "v", 24000], "internal_node_id": "0.0-114.0", "trial": 3, "time_elapsed": 691736, "serialpos": 21, "key_press": -1, "wordID": 1407, "type": "PRES_VIS", "trial_index": 150}, "uniqueid": "MTK3586:3WRFBPLXRBV3ISCGTRJL95EPLCWN3Y", "dateTime": 1520795715215}, {"current_trial": 151, "trialdata": {"rt": -1, "trial_type": "single-stim", "word": "flower", "stimulus": "<p id=\"stim\">FLOWER</p>", "conditions": [24, 1600, "v", 24000], "internal_node_id": "0.0-115.0", "trial": 3, "time_elapsed": 694217, "serialpos": 22, "key_press": -1, "wordID": 583, "type": "PRES_VIS", "trial_index": 151}, "uniqueid": "MTK3586:3WRFBPLXRBV3ISCGTRJL95EPLCWN3Y", "dateTime": 1520795717696}, {"current_trial": 152, "trialdata": {"rt": -1, "trial_type": "single-stim", "word": "juggler", "stimulus": "<p id=\"stim\">JUGGLER</p>", "conditions": [24, 1600, "v", 24000], "internal_node_id": "0.0-116.0", "trial": 3, "time_elapsed": 696913, "serialpos": 23, "key_press": -1, "wordID": 762, "type": "PRES_VIS", "trial_index": 152}, "uniqueid": "MTK3586:3WRFBPLXRBV3ISCGTRJL95EPLCWN3Y", "dateTime": 1520795720392}, {"current_trial": 153, "trialdata": {"rt": -1, "trial_type": "single-stim", "stimulus": "", "internal_node_id": "0.0-117.0-0.0", "time_elapsed": 699081, "key_press": -1, "type": "PRE_RECALL_DELAY", "trial_index": 153}, "uniqueid": "MTK3586:3WRFBPLXRBV3ISCGTRJL95EPLCWN3Y", "dateTime": 1520795722560}, {"current_trial": 154, "trialdata": {"rt": -1000, "trial_type": "single-audio", "stimulus": "/static/audio/400Hz.wav", "internal_node_id": "0.0-118.0", "time_elapsed": 699585, "key_press": -1, "type": "PRE_RECALL_ALERT", "trial_index": 154}, "uniqueid": "MTK3586:3WRFBPLXRBV3ISCGTRJL95EPLCWN3Y", "dateTime": 1520795723064}, {"current_trial": 155, "trialdata": {"rt": [25779, 47393, 56053], "recwords": ["orchid", "lion", "basement"], "key_times": [21839, 21970, 22782, 23012, 24410, 24526, 25779, 45195, 45497, 45675, 46331, 47393, 52462, 52631, 52832, 53254, 54157, 54297, 54491, 54920, 56053], "trial_type": "free-recall", "conditions": [24, 1600, "v", 24000], "internal_node_id": "0.0-119.0-0.0", "key_presses": [79, 82, 67, 72, 73, 68, 13, 76, 73, 79, 78, 13, 66, 65, 83, 69, 77, 69, 78, 84, 13], "trial": 3, "time_elapsed": 759591, "type": "FREE_RECALL", "trial_index": 155}, "uniqueid": "MTK3586:3WRFBPLXRBV3ISCGTRJL95EPLCWN3Y", "dateTime": 1520795783074}, {"current_trial": 156, "trialdata": {"rt": 2075, "trial_type": "text", "internal_node_id": "0.0-120.0", "time_elapsed": 763671, "key_press": 13, "type": "INSTRUCTIONS", "trial_index": 156}, "uniqueid": "MTK3586:3WRFBPLXRBV3ISCGTRJL95EPLCWN3Y", "dateTime": 1520795787150}, {"current_trial": 157, "trialdata": {"rt": [2723, 8799], "trial_type": "math-distractor", "key_times": [2448, 2618, 2723, 7932, 8634, 8799], "responses": ["11", "17"], "num2": [4, 3, 8], "num3": [2, 7, 7], "conditions": [12, 1600, "v", 12000], "internal_node_id": "0.0-121.0", "key_presses": [49, 49, 13, 49, 55, 13], "trial": 4, "time_elapsed": 777680, "type": "DISTRACTOR", "trial_index": 157, "num1": [5, 7, 4]}, "uniqueid": "MTK3586:3WRFBPLXRBV3ISCGTRJL95EPLCWN3Y", "dateTime": 1520795801161}, {"current_trial": 158, "trialdata": {"rt": -1, "trial_type": "single-stim", "stimulus": "<p id=\"stim\">10</p>", "internal_node_id": "0.0-122.0-0.0", "time_elapsed": 780683, "key_press": -1, "trial_index": 158}, "uniqueid": "MTK3586:3WRFBPLXRBV3ISCGTRJL95EPLCWN3Y", "dateTime": 1520795804162}, {"current_trial": 159, "trialdata": {"rt": -1, "trial_type": "single-stim", "stimulus": "<p id=\"stim\">9</p>", "internal_node_id": "0.0-122.0-1.0", "time_elapsed": 781684, "key_press": -1, "trial_index": 159}, "uniqueid": "MTK3586:3WRFBPLXRBV3ISCGTRJL95EPLCWN3Y", "dateTime": 1520795805163}, {"current_trial": 160, "trialdata": {"rt": -1, "trial_type": "single-stim", "stimulus": "<p id=\"stim\">8</p>", "internal_node_id": "0.0-122.0-2.0", "time_elapsed": 782685, "key_press": -1, "trial_index": 160}, "uniqueid": "MTK3586:3WRFBPLXRBV3ISCGTRJL95EPLCWN3Y", "dateTime": 1520795806164}, {"current_trial": 161, "trialdata": {"rt": -1, "trial_type": "single-stim", "stimulus": "<p id=\"stim\">7</p>", "internal_node_id": "0.0-122.0-3.0", "time_elapsed": 783686, "key_press": -1, "trial_index": 161}, "uniqueid": "MTK3586:3WRFBPLXRBV3ISCGTRJL95EPLCWN3Y", "dateTime": 1520795807165}, {"current_trial": 162, "trialdata": {"rt": -1, "trial_type": "single-stim", "stimulus": "<p id=\"stim\">6</p>", "internal_node_id": "0.0-122.0-4.0", "time_elapsed": 784689, "key_press": -1, "trial_index": 162}, "uniqueid": "MTK3586:3WRFBPLXRBV3ISCGTRJL95EPLCWN3Y", "dateTime": 1520795808168}, {"current_trial": 163, "trialdata": {"rt": -1, "trial_type": "single-stim", "stimulus": "<p id=\"stim\">5</p>", "internal_node_id": "0.0-122.0-5.0", "time_elapsed": 785690, "key_press": -1, "trial_index": 163}, "uniqueid": "MTK3586:3WRFBPLXRBV3ISCGTRJL95EPLCWN3Y", "dateTime": 1520795809169}, {"current_trial": 164, "trialdata": {"rt": -1, "trial_type": "single-stim", "stimulus": "<p id=\"stim\">4</p>", "internal_node_id": "0.0-122.0-6.0", "time_elapsed": 786691, "key_press": -1, "trial_index": 164}, "uniqueid": "MTK3586:3WRFBPLXRBV3ISCGTRJL95EPLCWN3Y", "dateTime": 1520795810170}, {"current_trial": 165, "trialdata": {"rt": -1, "trial_type": "single-stim", "stimulus": "<p id=\"stim\">3</p>", "internal_node_id": "0.0-122.0-7.0", "time_elapsed": 787693, "key_press": -1, "trial_index": 165}, "uniqueid": "MTK3586:3WRFBPLXRBV3ISCGTRJL95EPLCWN3Y", "dateTime": 1520795811172}, {"current_trial": 166, "trialdata": {"rt": -1, "trial_type": "single-stim", "stimulus": "<p id=\"stim\">2</p>", "internal_node_id": "0.0-122.0-8.0", "time_elapsed": 788694, "key_press": -1, "trial_index": 166}, "uniqueid": "MTK3586:3WRFBPLXRBV3ISCGTRJL95EPLCWN3Y", "dateTime": 1520795812173}, {"current_trial": 167, "trialdata": {"rt": -1, "trial_type": "single-stim", "stimulus": "<p id=\"stim\">1</p>", "internal_node_id": "0.0-122.0-9.0", "time_elapsed": 789697, "key_press": -1, "trial_index": 167}, "uniqueid": "MTK3586:3WRFBPLXRBV3ISCGTRJL95EPLCWN3Y", "dateTime": 1520795813176}, {"current_trial": 168, "trialdata": {"rt": -1, "trial_type": "single-stim", "stimulus": "<p id=\"stim\">+</p>", "internal_node_id": "0.0-123.0-0.0", "time_elapsed": 791197, "key_press": -1, "type": "FIXATION", "trial_index": 168}, "uniqueid": "MTK3586:3WRFBPLXRBV3ISCGTRJL95EPLCWN3Y", "dateTime": 1520795814676}, {"current_trial": 169, "trialdata": {"rt": -1, "trial_type": "single-stim", "word": "summit", "stimulus": "<p id=\"stim\">SUMMIT</p>", "conditions": [12, 1600, "v", 12000], "internal_node_id": "0.0-124.0", "trial": 4, "time_elapsed": 792799, "serialpos": 0, "key_press": -1, "wordID": 1404, "type": "PRES_VIS", "trial_index": 169}, "uniqueid": "MTK3586:3WRFBPLXRBV3ISCGTRJL95EPLCWN3Y", "dateTime": 1520795816281}, {"current_trial": 170, "trialdata": {"rt": -1, "trial_type": "single-stim", "word": "ox", "stimulus": "<p id=\"stim\">OX</p>", "conditions": [12, 1600, "v", 12000], "internal_node_id": "0.0-125.0", "trial": 4, "time_elapsed": 795218, "serialpos": 1, "key_press": -1, "wordID": 993, "type": "PRES_VIS", "trial_index": 170}, "uniqueid": "MTK3586:3WRFBPLXRBV3ISCGTRJL95EPLCWN3Y", "dateTime": 1520795818697}, {"current_trial": 171, "trialdata": {"rt": -1, "trial_type": "single-stim", "word": "daughter", "stimulus": "<p id=\"stim\">DAUGHTER</p>", "conditions": [12, 1600, "v", 12000], "internal_node_id": "0.0-126.0", "trial": 4, "time_elapsed": 797681, "serialpos": 2, "key_press": -1, "wordID": 441, "type": "PRES_VIS", "trial_index": 171}, "uniqueid": "MTK3586:3WRFBPLXRBV3ISCGTRJL95EPLCWN3Y", "dateTime": 1520795821160}, {"current_trial": 172, "trialdata": {"rt": -1, "trial_type": "single-stim", "word": "box", "stimulus": "<p id=\"stim\">BOX</p>", "conditions": [12, 1600, "v", 12000], "internal_node_id": "0.0-127.0", "trial": 4, "time_elapsed": 800361, "serialpos": 3, "key_press": -1, "wordID": 158, "type": "PRES_VIS", "trial_index": 172}, "uniqueid": "MTK3586:3WRFBPLXRBV3ISCGTRJL95EPLCWN3Y", "dateTime": 1520795823840}, {"current_trial": 173, "trialdata": {"rt": -1, "trial_type": "single-stim", "word": "airplane", "stimulus": "<p id=\"stim\">AIRPLANE</p>", "conditions": [12, 1600, "v", 12000], "internal_node_id": "0.0-128.0", "trial": 4, "time_elapsed": 802916, "serialpos": 4, "key_press": -1, "wordID": 11, "type": "PRES_VIS", "trial_index": 173}, "uniqueid": "MTK3586:3WRFBPLXRBV3ISCGTRJL95EPLCWN3Y", "dateTime": 1520795826395}, {"current_trial": 174, "trialdata": {"rt": -1, "trial_type": "single-stim", "word": "comet", "stimulus": "<p id=\"stim\">COMET</p>", "conditions": [12, 1600, "v", 12000], "internal_node_id": "0.0-129.0", "trial": 4, "time_elapsed": 805513, "serialpos": 5, "key_press": -1, "wordID": 352, "type": "PRES_VIS", "trial_index": 174}, "uniqueid": "MTK3586:3WRFBPLXRBV3ISCGTRJL95EPLCWN3Y", "dateTime": 1520795828992}, {"current_trial": 175, "trialdata": {"rt": -1, "trial_type": "single-stim", "word": "child", "stimulus": "<p id=\"stim\">CHILD</p>", "conditions": [12, 1600, "v", 12000], "internal_node_id": "0.0-130.0", "trial": 4, "time_elapsed": 808236, "serialpos": 6, "key_press": -1, "wordID": 298, "type": "PRES_VIS", "trial_index": 175}, "uniqueid": "MTK3586:3WRFBPLXRBV3ISCGTRJL95EPLCWN3Y", "dateTime": 1520795831716}, {"current_trial": 176, "trialdata": {"rt": -1, "trial_type": "single-stim", "word": "peach", "stimulus": "<p id=\"stim\">PEACH</p>", "conditions": [12, 1600, "v", 12000], "internal_node_id": "0.0-131.0", "trial": 4, "time_elapsed": 810822, "serialpos": 7, "key_press": -1, "wordID": 1030, "type": "PRES_VIS", "trial_index": 176}, "uniqueid": "MTK3586:3WRFBPLXRBV3ISCGTRJL95EPLCWN3Y", "dateTime": 1520795834301}, {"current_trial": 177, "trialdata": {"rt": -1, "trial_type": "single-stim", "word": "goblin", "stimulus": "<p id=\"stim\">GOBLIN</p>", "conditions": [12, 1600, "v", 12000], "internal_node_id": "0.0-132.0", "trial": 4, "time_elapsed": 813524, "serialpos": 8, "key_press": -1, "wordID": 644, "type": "PRES_VIS", "trial_index": 177}, "uniqueid": "MTK3586:3WRFBPLXRBV3ISCGTRJL95EPLCWN3Y", "dateTime": 1520795837003}, {"current_trial": 178, "trialdata": {"rt": -1, "trial_type": "single-stim", "word": "apple", "stimulus": "<p id=\"stim\">APPLE</p>", "conditions": [12, 1600, "v", 12000], "internal_node_id": "0.0-133.0", "trial": 4, "time_elapsed": 815945, "serialpos": 9, "key_press": -1, "wordID": 32, "type": "PRES_VIS", "trial_index": 178}, "uniqueid": "MTK3586:3WRFBPLXRBV3ISCGTRJL95EPLCWN3Y", "dateTime": 1520795839424}, {"current_trial": 179, "trialdata": {"rt": -1, "trial_type": "single-stim", "word": "onion", "stimulus": "<p id=\"stim\">ONION</p>", "conditions": [12, 1600, "v", 12000], "internal_node_id": "0.0-134.0", "trial": 4, "time_elapsed": 818664, "serialpos": 10, "key_press": -1, "wordID": 976, "type": "PRES_VIS", "trial_index": 179}, "uniqueid": "MTK3586:3WRFBPLXRBV3ISCGTRJL95EPLCWN3Y", "dateTime": 1520795842143}, {"current_trial": 180, "trialdata": {"rt": -1, "trial_type": "single-stim", "word": "flesh", "stimulus": "<p id=\"stim\">FLESH</p>", "conditions": [12, 1600, "v", 12000], "internal_node_id": "0.0-135.0", "trial": 4, "time_elapsed": 821442, "serialpos": 11, "key_press": -1, "wordID": 578, "type": "PRES_VIS", "trial_index": 180}, "uniqueid": "MTK3586:3WRFBPLXRBV3ISCGTRJL95EPLCWN3Y", "dateTime": 1520795844921}, {"current_trial": 181, "trialdata": {"rt": -1, "trial_type": "single-stim", "stimulus": "", "internal_node_id": "0.0-136.0-0.0", "time_elapsed": 823911, "key_press": -1, "type": "PRE_RECALL_DELAY", "trial_index": 181}, "uniqueid": "MTK3586:3WRFBPLXRBV3ISCGTRJL95EPLCWN3Y", "dateTime": 1520795847390}, {"current_trial": 182, "trialdata": {"rt": -1000, "trial_type": "single-audio", "stimulus": "/static/audio/400Hz.wav", "internal_node_id": "0.0-137.0", "time_elapsed": 824411, "key_press": -1, "type": "PRE_RECALL_ALERT", "trial_index": 182}, "uniqueid": "MTK3586:3WRFBPLXRBV3ISCGTRJL95EPLCWN3Y", "dateTime": 1520795847890}, {"current_trial": 183, "trialdata": {"rt": [8531, 11639, 16095, 22786, 26726], "recwords": ["daughter", "child", "goblin", "lion", ""], "key_times": [4623, 5163, 6325, 6639, 6980, 7122, 7552, 7846, 8531, 8908, 9623, 10198, 11198, 11372, 11639, 11849, 12864, 13278, 14553, 14830, 15032, 16095, 21137, 21451, 21624, 22024, 22786, 26726], "trial_type": "free-recall", "conditions": [12, 1600, "v", 12000], "internal_node_id": "0.0-138.0-0.0", "key_presses": [68, 65, 85, 71, 72, 84, 69, 82, 13, 67, 72, 73, 76, 68, 32, 71, 79, 66, 76, 73, 78, 13, 76, 73, 79, 78, 13, 13], "trial": 4, "time_elapsed": 884415, "type": "FREE_RECALL", "trial_index": 183}, "uniqueid": "MTK3586:3WRFBPLXRBV3ISCGTRJL95EPLCWN3Y", "dateTime": 1520795907901}, {"current_trial": 184, "trialdata": {"rt": 6021, "trial_type": "text", "internal_node_id": "0.0-139.0", "time_elapsed": 892443, "key_press": 13, "type": "INSTRUCTIONS", "trial_index": 184}, "uniqueid": "MTK3586:3WRFBPLXRBV3ISCGTRJL95EPLCWN3Y", "dateTime": 1520795915923}, {"current_trial": 185, "trialdata": {"rt": [22379], "trial_type": "math-distractor", "key_times": [21330, 21471, 22379], "responses": ["17"], "num2": [9, 8], "num3": [8, 2], "conditions": [24, 800, "v", 24000], "internal_node_id": "0.0-140.0", "key_presses": [49, 55, 13], "trial": 5, "time_elapsed": 918449, "type": "DISTRACTOR", "trial_index": 185, "num1": [3, 4]}, "uniqueid": "MTK3586:3WRFBPLXRBV3ISCGTRJL95EPLCWN3Y", "dateTime": 1520795941928}, {"current_trial": 186, "trialdata": {"rt": -1, "trial_type": "single-stim", "stimulus": "<p id=\"stim\">10</p>", "internal_node_id": "0.0-141.0-0.0", "time_elapsed": 921451, "key_press": -1, "trial_index": 186}, "uniqueid": "MTK3586:3WRFBPLXRBV3ISCGTRJL95EPLCWN3Y", "dateTime": 1520795944930}, {"current_trial": 187, "trialdata": {"rt": -1, "trial_type": "single-stim", "stimulus": "<p id=\"stim\">9</p>", "internal_node_id": "0.0-141.0-1.0", "time_elapsed": 922452, "key_press": -1, "trial_index": 187}, "uniqueid": "MTK3586:3WRFBPLXRBV3ISCGTRJL95EPLCWN3Y", "dateTime": 1520795945931}, {"current_trial": 188, "trialdata": {"rt": -1, "trial_type": "single-stim", "stimulus": "<p id=\"stim\">8</p>", "internal_node_id": "0.0-141.0-2.0", "time_elapsed": 923453, "key_press": -1, "trial_index": 188}, "uniqueid": "MTK3586:3WRFBPLXRBV3ISCGTRJL95EPLCWN3Y", "dateTime": 1520795946932}, {"current_trial": 189, "trialdata": {"rt": -1, "trial_type": "single-stim", "stimulus": "<p id=\"stim\">7</p>", "internal_node_id": "0.0-141.0-3.0", "time_elapsed": 924455, "key_press": -1, "trial_index": 189}, "uniqueid": "MTK3586:3WRFBPLXRBV3ISCGTRJL95EPLCWN3Y", "dateTime": 1520795947934}, {"current_trial": 190, "trialdata": {"rt": -1, "trial_type": "single-stim", "stimulus": "<p id=\"stim\">6</p>", "internal_node_id": "0.0-141.0-4.0", "time_elapsed": 925456, "key_press": -1, "trial_index": 190}, "uniqueid": "MTK3586:3WRFBPLXRBV3ISCGTRJL95EPLCWN3Y", "dateTime": 1520795948935}, {"current_trial": 191, "trialdata": {"rt": -1, "trial_type": "single-stim", "stimulus": "<p id=\"stim\">5</p>", "internal_node_id": "0.0-141.0-5.0", "time_elapsed": 926457, "key_press": -1, "trial_index": 191}, "uniqueid": "MTK3586:3WRFBPLXRBV3ISCGTRJL95EPLCWN3Y", "dateTime": 1520795949936}, {"current_trial": 192, "trialdata": {"rt": -1, "trial_type": "single-stim", "stimulus": "<p id=\"stim\">4</p>", "internal_node_id": "0.0-141.0-6.0", "time_elapsed": 927458, "key_press": -1, "trial_index": 192}, "uniqueid": "MTK3586:3WRFBPLXRBV3ISCGTRJL95EPLCWN3Y", "dateTime": 1520795950937}, {"current_trial": 193, "trialdata": {"rt": -1, "trial_type": "single-stim", "stimulus": "<p id=\"stim\">3</p>", "internal_node_id": "0.0-141.0-7.0", "time_elapsed": 928458, "key_press": -1, "trial_index": 193}, "uniqueid": "MTK3586:3WRFBPLXRBV3ISCGTRJL95EPLCWN3Y", "dateTime": 1520795951937}, {"current_trial": 194, "trialdata": {"rt": -1, "trial_type": "single-stim", "stimulus": "<p id=\"stim\">2</p>", "internal_node_id": "0.0-141.0-8.0", "time_elapsed": 929459, "key_press": -1, "trial_index": 194}, "uniqueid": "MTK3586:3WRFBPLXRBV3ISCGTRJL95EPLCWN3Y", "dateTime": 1520795952938}, {"current_trial": 195, "trialdata": {"rt": -1, "trial_type": "single-stim", "stimulus": "<p id=\"stim\">1</p>", "internal_node_id": "0.0-141.0-9.0", "time_elapsed": 930460, "key_press": -1, "trial_index": 195}, "uniqueid": "MTK3586:3WRFBPLXRBV3ISCGTRJL95EPLCWN3Y", "dateTime": 1520795953939}, {"current_trial": 196, "trialdata": {"rt": -1, "trial_type": "single-stim", "stimulus": "<p id=\"stim\">+</p>", "internal_node_id": "0.0-142.0-0.0", "time_elapsed": 931961, "key_press": -1, "type": "FIXATION", "trial_index": 196}, "uniqueid": "MTK3586:3WRFBPLXRBV3ISCGTRJL95EPLCWN3Y", "dateTime": 1520795955440}, {"current_trial": 197, "trialdata": {"rt": -1, "trial_type": "single-stim", "word": "suitcase", "stimulus": "<p id=\"stim\">SUITCASE</p>", "conditions": [24, 800, "v", 24000], "internal_node_id": "0.0-143.0", "trial": 5, "time_elapsed": 932762, "serialpos": 0, "key_press": -1, "wordID": 1402, "type": "PRES_VIS", "trial_index": 197}, "uniqueid": "MTK3586:3WRFBPLXRBV3ISCGTRJL95EPLCWN3Y", "dateTime": 1520795956241}, {"current_trial": 198, "trialdata": {"rt": -1, "trial_type": "single-stim", "word": "jungle", "stimulus": "<p id=\"stim\">JUNGLE</p>", "conditions": [24, 800, "v", 24000], "internal_node_id": "0.0-144.0", "trial": 5, "time_elapsed": 934456, "serialpos": 1, "key_press": -1, "wordID": 763, "type": "PRES_VIS", "trial_index": 198}, "uniqueid": "MTK3586:3WRFBPLXRBV3ISCGTRJL95EPLCWN3Y", "dateTime": 1520795957935}, {"current_trial": 199, "trialdata": {"rt": -1, "trial_type": "single-stim", "word": "truck", "stimulus": "<p id=\"stim\">TRUCK</p>", "conditions": [24, 800, "v", 24000], "internal_node_id": "0.0-145.0", "trial": 5, "time_elapsed": 936307, "serialpos": 2, "key_press": -1, "wordID": 1511, "type": "PRES_VIS", "trial_index": 199}, "uniqueid": "MTK3586:3WRFBPLXRBV3ISCGTRJL95EPLCWN3Y", "dateTime": 1520795959786}, {"current_trial": 200, "trialdata": {"rt": -1, "trial_type": "single-stim", "word": "outfit", "stimulus": "<p id=\"stim\">OUTFIT</p>", "conditions": [24, 800, "v", 24000], "internal_node_id": "0.0-146.0", "trial": 5, "time_elapsed": 938193, "serialpos": 3, "key_press": -1, "wordID": 987, "type": "PRES_VIS", "trial_index": 200}, "uniqueid": "MTK3586:3WRFBPLXRBV3ISCGTRJL95EPLCWN3Y", "dateTime": 1520795961672}, {"current_trial": 201, "trialdata": {"rt": -1, "trial_type": "single-stim", "word": "actress", "stimulus": "<p id=\"stim\">ACTRESS</p>", "conditions": [24, 800, "v", 24000], "internal_node_id": "0.0-147.0", "trial": 5, "time_elapsed": 939823, "serialpos": 4, "key_press": -1, "wordID": 5, "type": "PRES_VIS", "trial_index": 201}, "uniqueid": "MTK3586:3WRFBPLXRBV3ISCGTRJL95EPLCWN3Y", "dateTime": 1520795963302}, {"current_trial": 202, "trialdata": {"rt": -1, "trial_type": "single-stim", "word": "elbow", "stimulus": "<p id=\"stim\">ELBOW</p>", "conditions": [24, 800, "v", 24000], "internal_node_id": "0.0-148.0", "trial": 5, "time_elapsed": 941615, "serialpos": 5, "key_press": -1, "wordID": 519, "type": "PRES_VIS", "trial_index": 202}, "uniqueid": "MTK3586:3WRFBPLXRBV3ISCGTRJL95EPLCWN3Y", "dateTime": 1520795965094}, {"current_trial": 203, "trialdata": {"rt": -1, "trial_type": "single-stim", "word": "fragrance", "stimulus": "<p id=\"stim\">FRAGRANCE</p>", "conditions": [24, 800, "v", 24000], "internal_node_id": "0.0-149.0", "trial": 5, "time_elapsed": 943316, "serialpos": 6, "key_press": -1, "wordID": 598, "type": "PRES_VIS", "trial_index": 203}, "uniqueid": "MTK3586:3WRFBPLXRBV3ISCGTRJL95EPLCWN3Y", "dateTime": 1520795966795}, {"current_trial": 204, "trialdata": {"rt": -1, "trial_type": "single-stim", "word": "driver", "stimulus": "<p id=\"stim\">DRIVER</p>", "conditions": [24, 800, "v", 24000], "internal_node_id": "0.0-150.0", "trial": 5, "time_elapsed": 945268, "serialpos": 7, "key_press": -1, "wordID": 498, "type": "PRES_VIS", "trial_index": 204}, "uniqueid": "MTK3586:3WRFBPLXRBV3ISCGTRJL95EPLCWN3Y", "dateTime": 1520795968747}, {"current_trial": 205, "trialdata": {"rt": -1, "trial_type": "single-stim", "word": "ghetto", "stimulus": "<p id=\"stim\">GHETTO</p>", "conditions": [24, 800, "v", 24000], "internal_node_id": "0.0-151.0", "trial": 5, "time_elapsed": 946890, "serialpos": 8, "key_press": -1, "wordID": 632, "type": "PRES_VIS", "trial_index": 205}, "uniqueid": "MTK3586:3WRFBPLXRBV3ISCGTRJL95EPLCWN3Y", "dateTime": 1520795970369}, {"current_trial": 206, "trialdata": {"rt": -1, "trial_type": "single-stim", "word": "laser", "stimulus": "<p id=\"stim\">LASER</p>", "conditions": [24, 800, "v", 24000], "internal_node_id": "0.0-152.0", "trial": 5, "time_elapsed": 948863, "serialpos": 9, "key_press": -1, "wordID": 800, "type": "PRES_VIS", "trial_index": 206}, "uniqueid": "MTK3586:3WRFBPLXRBV3ISCGTRJL95EPLCWN3Y", "dateTime": 1520795972342}, {"current_trial": 207, "trialdata": {"rt": -1, "trial_type": "single-stim", "word": "liver", "stimulus": "<p id=\"stim\">LIVER</p>", "conditions": [24, 800, "v", 24000], "internal_node_id": "0.0-153.0", "trial": 5, "time_elapsed": 950854, "serialpos": 10, "key_press": -1, "wordID": 832, "type": "PRES_VIS", "trial_index": 207}, "uniqueid": "MTK3586:3WRFBPLXRBV3ISCGTRJL95EPLCWN3Y", "dateTime": 1520795974333}, {"current_trial": 208, "trialdata": {"rt": -1, "trial_type": "single-stim", "word": "marrow", "stimulus": "<p id=\"stim\">MARROW</p>", "conditions": [24, 800, "v", 24000], "internal_node_id": "0.0-154.0", "trial": 5, "time_elapsed": 952716, "serialpos": 11, "key_press": -1, "wordID": 871, "type": "PRES_VIS", "trial_index": 208}, "uniqueid": "MTK3586:3WRFBPLXRBV3ISCGTRJL95EPLCWN3Y", "dateTime": 1520795976195}, {"current_trial": 209, "trialdata": {"rt": -1, "trial_type": "single-stim", "word": "plaza", "stimulus": "<p id=\"stim\">PLAZA</p>", "conditions": [24, 800, "v", 24000], "internal_node_id": "0.0-155.0", "trial": 5, "time_elapsed": 954526, "serialpos": 12, "key_press": -1, "wordID": 1087, "type": "PRES_VIS", "trial_index": 209}, "uniqueid": "MTK3586:3WRFBPLXRBV3ISCGTRJL95EPLCWN3Y", "dateTime": 1520795978005}, {"current_trial": 210, "trialdata": {"rt": -1, "trial_type": "single-stim", "word": "cottage", "stimulus": "<p id=\"stim\">COTTAGE</p>", "conditions": [24, 800, "v", 24000], "internal_node_id": "0.0-156.0", "trial": 5, "time_elapsed": 956149, "serialpos": 13, "key_press": -1, "wordID": 383, "type": "PRES_VIS", "trial_index": 210}, "uniqueid": "MTK3586:3WRFBPLXRBV3ISCGTRJL95EPLCWN3Y", "dateTime": 1520795979628}, {"current_trial": 211, "trialdata": {"rt": -1, "trial_type": "single-stim", "word": "shark", "stimulus": "<p id=\"stim\">SHARK</p>", "conditions": [24, 800, "v", 24000], "internal_node_id": "0.0-157.0", "trial": 5, "time_elapsed": 957767, "serialpos": 14, "key_press": -1, "wordID": 1274, "type": "PRES_VIS", "trial_index": 211}, "uniqueid": "MTK3586:3WRFBPLXRBV3ISCGTRJL95EPLCWN3Y", "dateTime": 1520795981246}, {"current_trial": 212, "trialdata": {"rt": -1, "trial_type": "single-stim", "word": "statue", "stimulus": "<p id=\"stim\">STATUE</p>", "conditions": [24, 800, "v", 24000], "internal_node_id": "0.0-158.0", "trial": 5, "time_elapsed": 959710, "serialpos": 15, "key_press": -1, "wordID": 1373, "type": "PRES_VIS", "trial_index": 212}, "uniqueid": "MTK3586:3WRFBPLXRBV3ISCGTRJL95EPLCWN3Y", "dateTime": 1520795983189}, {"current_trial": 213, "trialdata": {"rt": -1, "trial_type": "single-stim", "word": "motel", "stimulus": "<p id=\"stim\">MOTEL</p>", "conditions": [24, 800, "v", 24000], "internal_node_id": "0.0-159.0", "trial": 5, "time_elapsed": 961595, "serialpos": 16, "key_press": -1, "wordID": 918, "type": "PRES_VIS", "trial_index": 213}, "uniqueid": "MTK3586:3WRFBPLXRBV3ISCGTRJL95EPLCWN3Y", "dateTime": 1520795985074}, {"current_trial": 214, "trialdata": {"rt": -1, "trial_type": "single-stim", "word": "robber", "stimulus": "<p id=\"stim\">ROBBER</p>", "conditions": [24, 800, "v", 24000], "internal_node_id": "0.0-160.0", "trial": 5, "time_elapsed": 963463, "serialpos": 17, "key_press": -1, "wordID": 1196, "type": "PRES_VIS", "trial_index": 214}, "uniqueid": "MTK3586:3WRFBPLXRBV3ISCGTRJL95EPLCWN3Y", "dateTime": 1520795986942}, {"current_trial": 215, "trialdata": {"rt": -1, "trial_type": "single-stim", "word": "forest", "stimulus": "<p id=\"stim\">FOREST</p>", "conditions": [24, 800, "v", 24000], "internal_node_id": "0.0-161.0", "trial": 5, "time_elapsed": 965138, "serialpos": 18, "key_press": -1, "wordID": 592, "type": "PRES_VIS", "trial_index": 215}, "uniqueid": "MTK3586:3WRFBPLXRBV3ISCGTRJL95EPLCWN3Y", "dateTime": 1520795988617}, {"current_trial": 216, "trialdata": {"rt": -1, "trial_type": "single-stim", "word": "curtain", "stimulus": "<p id=\"stim\">CURTAIN</p>", "conditions": [24, 800, "v", 24000], "internal_node_id": "0.0-162.0", "trial": 5, "time_elapsed": 966772, "serialpos": 19, "key_press": -1, "wordID": 426, "type": "PRES_VIS", "trial_index": 216}, "uniqueid": "MTK3586:3WRFBPLXRBV3ISCGTRJL95EPLCWN3Y", "dateTime": 1520795990251}, {"current_trial": 217, "trialdata": {"rt": -1, "trial_type": "single-stim", "word": "picnic", "stimulus": "<p id=\"stim\">PICNIC</p>", "conditions": [24, 800, "v", 24000], "internal_node_id": "0.0-163.0", "trial": 5, "time_elapsed": 968689, "serialpos": 20, "key_press": -1, "wordID": 1059, "type": "PRES_VIS", "trial_index": 217}, "uniqueid": "MTK3586:3WRFBPLXRBV3ISCGTRJL95EPLCWN3Y", "dateTime": 1520795992168}, {"current_trial": 218, "trialdata": {"rt": -1, "trial_type": "single-stim", "word": "supper", "stimulus": "<p id=\"stim\">SUPPER</p>", "conditions": [24, 800, "v", 24000], "internal_node_id": "0.0-164.0", "trial": 5, "time_elapsed": 970474, "serialpos": 21, "key_press": -1, "wordID": 1410, "type": "PRES_VIS", "trial_index": 218}, "uniqueid": "MTK3586:3WRFBPLXRBV3ISCGTRJL95EPLCWN3Y", "dateTime": 1520795993953}, {"current_trial": 219, "trialdata": {"rt": -1, "trial_type": "single-stim", "word": "plaster", "stimulus": "<p id=\"stim\">PLASTER</p>", "conditions": [24, 800, "v", 24000], "internal_node_id": "0.0-165.0", "trial": 5, "time_elapsed": 972080, "serialpos": 22, "key_press": -1, "wordID": 1084, "type": "PRES_VIS", "trial_index": 219}, "uniqueid": "MTK3586:3WRFBPLXRBV3ISCGTRJL95EPLCWN3Y", "dateTime": 1520795995559}, {"current_trial": 220, "trialdata": {"rt": -1, "trial_type": "single-stim", "word": "turtle", "stimulus": "<p id=\"stim\">TURTLE</p>", "conditions": [24, 800, "v", 24000], "internal_node_id": "0.0-166.0", "trial": 5, "time_elapsed": 973993, "serialpos": 23, "key_press": -1, "wordID": 1521, "type": "PRES_VIS", "trial_index": 220}, "uniqueid": "MTK3586:3WRFBPLXRBV3ISCGTRJL95EPLCWN3Y", "dateTime": 1520795997472}, {"current_trial": 221, "trialdata": {"rt": -1, "trial_type": "single-stim", "stimulus": "", "internal_node_id": "0.0-167.0-0.0", "time_elapsed": 976132, "key_press": -1, "type": "PRE_RECALL_DELAY", "trial_index": 221}, "uniqueid": "MTK3586:3WRFBPLXRBV3ISCGTRJL95EPLCWN3Y", "dateTime": 1520795999612}, {"current_trial": 222, "trialdata": {"rt": -1000, "trial_type": "single-audio", "stimulus": "/static/audio/400Hz.wav", "internal_node_id": "0.0-168.0", "time_elapsed": 976640, "key_press": -1, "type": "PRE_RECALL_ALERT", "trial_index": 222}, "uniqueid": "MTK3586:3WRFBPLXRBV3ISCGTRJL95EPLCWN3Y", "dateTime": 1520796000119}, {"current_trial": 223, "trialdata": {"rt": [4921, 11208, 13523], "recwords": ["elbow", "fragrance", "shark"], "key_times": [2261, 2648, 3391, 4036, 4223, 4921, 5852, 6038, 6594, 8895, 9094, 9595, 9851, 10080, 10366, 11208, 11495, 11816, 12002, 12421, 12833, 13523], "trial_type": "free-recall", "conditions": [24, 800, "v", 24000], "internal_node_id": "0.0-169.0-0.0", "key_presses": [69, 76, 66, 79, 87, 13, 70, 82, 65, 71, 82, 65, 78, 67, 69, 32, 83, 72, 65, 82, 75, 13], "trial": 5, "time_elapsed": 1036644, "type": "FREE_RECALL", "trial_index": 223}, "uniqueid": "MTK3586:3WRFBPLXRBV3ISCGTRJL95EPLCWN3Y", "dateTime": 1520796060131}, {"current_trial": 224, "trialdata": {"rt": 4216, "trial_type": "text", "internal_node_id": "0.0-170.0", "time_elapsed": 1042869, "key_press": 13, "type": "INSTRUCTIONS", "trial_index": 224}, "uniqueid": "MTK3586:3WRFBPLXRBV3ISCGTRJL95EPLCWN3Y", "dateTime": 1520796066348}, {"current_trial": 225, "trialdata": {"rt": [3621, 12787, 18992], "trial_type": "math-distractor", "key_times": [3621, 12122, 12260, 12787, 18684, 18859, 18992], "responses": ["", "21", "21"], "num2": [5, 3, 6, 7], "num3": [5, 9, 5, 2], "conditions": [24, 1600, "v", 24000], "internal_node_id": "0.0-171.0", "key_presses": [13, 50, 49, 13, 50, 49, 13], "trial": 6, "time_elapsed": 1068873, "type": "DISTRACTOR", "trial_index": 225, "num1": [3, 9, 9, 5]}, "uniqueid": "MTK3586:3WRFBPLXRBV3ISCGTRJL95EPLCWN3Y", "dateTime": 1520796092352}, {"current_trial": 226, "trialdata": {"rt": -1, "trial_type": "single-stim", "stimulus": "<p id=\"stim\">10</p>", "internal_node_id": "0.0-172.0-0.0", "time_elapsed": 1071875, "key_press": -1, "trial_index": 226}, "uniqueid": "MTK3586:3WRFBPLXRBV3ISCGTRJL95EPLCWN3Y", "dateTime": 1520796095354}, {"current_trial": 227, "trialdata": {"rt": -1, "trial_type": "single-stim", "stimulus": "<p id=\"stim\">9</p>", "internal_node_id": "0.0-172.0-1.0", "time_elapsed": 1072875, "key_press": -1, "trial_index": 227}, "uniqueid": "MTK3586:3WRFBPLXRBV3ISCGTRJL95EPLCWN3Y", "dateTime": 1520796096354}, {"current_trial": 228, "trialdata": {"rt": -1, "trial_type": "single-stim", "stimulus": "<p id=\"stim\">8</p>", "internal_node_id": "0.0-172.0-2.0", "time_elapsed": 1073878, "key_press": -1, "trial_index": 228}, "uniqueid": "MTK3586:3WRFBPLXRBV3ISCGTRJL95EPLCWN3Y", "dateTime": 1520796097357}, {"current_trial": 229, "trialdata": {"rt": -1, "trial_type": "single-stim", "stimulus": "<p id=\"stim\">7</p>", "internal_node_id": "0.0-172.0-3.0", "time_elapsed": 1074879, "key_press": -1, "trial_index": 229}, "uniqueid": "MTK3586:3WRFBPLXRBV3ISCGTRJL95EPLCWN3Y", "dateTime": 1520796098358}, {"current_trial": 230, "trialdata": {"rt": -1, "trial_type": "single-stim", "stimulus": "<p id=\"stim\">6</p>", "internal_node_id": "0.0-172.0-4.0", "time_elapsed": 1075881, "key_press": -1, "trial_index": 230}, "uniqueid": "MTK3586:3WRFBPLXRBV3ISCGTRJL95EPLCWN3Y", "dateTime": 1520796099360}, {"current_trial": 231, "trialdata": {"rt": -1, "trial_type": "single-stim", "stimulus": "<p id=\"stim\">5</p>", "internal_node_id": "0.0-172.0-5.0", "time_elapsed": 1076882, "key_press": -1, "trial_index": 231}, "uniqueid": "MTK3586:3WRFBPLXRBV3ISCGTRJL95EPLCWN3Y", "dateTime": 1520796100361}, {"current_trial": 232, "trialdata": {"rt": -1, "trial_type": "single-stim", "stimulus": "<p id=\"stim\">4</p>", "internal_node_id": "0.0-172.0-6.0", "time_elapsed": 1077883, "key_press": -1, "trial_index": 232}, "uniqueid": "MTK3586:3WRFBPLXRBV3ISCGTRJL95EPLCWN3Y", "dateTime": 1520796101362}, {"current_trial": 233, "trialdata": {"rt": -1, "trial_type": "single-stim", "stimulus": "<p id=\"stim\">3</p>", "internal_node_id": "0.0-172.0-7.0", "time_elapsed": 1078885, "key_press": -1, "trial_index": 233}, "uniqueid": "MTK3586:3WRFBPLXRBV3ISCGTRJL95EPLCWN3Y", "dateTime": 1520796102364}, {"current_trial": 234, "trialdata": {"rt": -1, "trial_type": "single-stim", "stimulus": "<p id=\"stim\">2</p>", "internal_node_id": "0.0-172.0-8.0", "time_elapsed": 1079886, "key_press": -1, "trial_index": 234}, "uniqueid": "MTK3586:3WRFBPLXRBV3ISCGTRJL95EPLCWN3Y", "dateTime": 1520796103365}, {"current_trial": 235, "trialdata": {"rt": -1, "trial_type": "single-stim", "stimulus": "<p id=\"stim\">1</p>", "internal_node_id": "0.0-172.0-9.0", "time_elapsed": 1080887, "key_press": -1, "trial_index": 235}, "uniqueid": "MTK3586:3WRFBPLXRBV3ISCGTRJL95EPLCWN3Y", "dateTime": 1520796104366}, {"current_trial": 236, "trialdata": {"rt": -1, "trial_type": "single-stim", "stimulus": "<p id=\"stim\">+</p>", "internal_node_id": "0.0-173.0-0.0", "time_elapsed": 1082389, "key_press": -1, "type": "FIXATION", "trial_index": 236}, "uniqueid": "MTK3586:3WRFBPLXRBV3ISCGTRJL95EPLCWN3Y", "dateTime": 1520796105868}, {"current_trial": 237, "trialdata": {"rt": -1, "trial_type": "single-stim", "word": "lizard", "stimulus": "<p id=\"stim\">LIZARD</p>", "conditions": [24, 1600, "v", 24000], "internal_node_id": "0.0-174.0", "trial": 6, "time_elapsed": 1083990, "serialpos": 0, "key_press": -1, "wordID": 833, "type": "PRES_VIS", "trial_index": 237}, "uniqueid": "MTK3586:3WRFBPLXRBV3ISCGTRJL95EPLCWN3Y", "dateTime": 1520796107469}, {"current_trial": 238, "trialdata": {"rt": -1, "trial_type": "single-stim", "word": "tuba", "stimulus": "<p id=\"stim\">TUBA</p>", "conditions": [24, 1600, "v", 24000], "internal_node_id": "0.0-175.0", "trial": 6, "time_elapsed": 1086781, "serialpos": 1, "key_press": -1, "wordID": 1514, "type": "PRES_VIS", "trial_index": 238}, "uniqueid": "MTK3586:3WRFBPLXRBV3ISCGTRJL95EPLCWN3Y", "dateTime": 1520796110260}, {"current_trial": 239, "trialdata": {"rt": -1, "trial_type": "single-stim", "word": "package", "stimulus": "<p id=\"stim\">PACKAGE</p>", "conditions": [24, 1600, "v", 24000], "internal_node_id": "0.0-176.0", "trial": 6, "time_elapsed": 1089397, "serialpos": 2, "key_press": -1, "wordID": 996, "type": "PRES_VIS", "trial_index": 239}, "uniqueid": "MTK3586:3WRFBPLXRBV3ISCGTRJL95EPLCWN3Y", "dateTime": 1520796112876}, {"current_trial": 240, "trialdata": {"rt": -1, "trial_type": "single-stim", "word": "sandwich", "stimulus": "<p id=\"stim\">SANDWICH</p>", "conditions": [24, 1600, "v", 24000], "internal_node_id": "0.0-177.0", "trial": 6, "time_elapsed": 1092023, "serialpos": 3, "key_press": -1, "wordID": 1231, "type": "PRES_VIS", "trial_index": 240}, "uniqueid": "MTK3586:3WRFBPLXRBV3ISCGTRJL95EPLCWN3Y", "dateTime": 1520796115502}, {"current_trial": 241, "trialdata": {"rt": -1, "trial_type": "single-stim", "word": "trombone", "stimulus": "<p id=\"stim\">TROMBONE</p>", "conditions": [24, 1600, "v", 24000], "internal_node_id": "0.0-178.0", "trial": 6, "time_elapsed": 1094751, "serialpos": 4, "key_press": -1, "wordID": 1507, "type": "PRES_VIS", "trial_index": 241}, "uniqueid": "MTK3586:3WRFBPLXRBV3ISCGTRJL95EPLCWN3Y", "dateTime": 1520796118230}, {"current_trial": 242, "trialdata": {"rt": -1, "trial_type": "single-stim", "word": "fiddle", "stimulus": "<p id=\"stim\">FIDDLE</p>", "conditions": [24, 1600, "v", 24000], "internal_node_id": "0.0-179.0", "trial": 6, "time_elapsed": 1097157, "serialpos": 5, "key_press": -1, "wordID": 560, "type": "PRES_VIS", "trial_index": 242}, "uniqueid": "MTK3586:3WRFBPLXRBV3ISCGTRJL95EPLCWN3Y", "dateTime": 1520796120636}, {"current_trial": 243, "trialdata": {"rt": -1, "trial_type": "single-stim", "word": "grill", "stimulus": "<p id=\"stim\">GRILL</p>", "conditions": [24, 1600, "v", 24000], "internal_node_id": "0.0-180.0", "trial": 6, "time_elapsed": 1099927, "serialpos": 6, "key_press": -1, "wordID": 660, "type": "PRES_VIS", "trial_index": 243}, "uniqueid": "MTK3586:3WRFBPLXRBV3ISCGTRJL95EPLCWN3Y", "dateTime": 1520796123406}, {"current_trial": 244, "trialdata": {"rt": -1, "trial_type": "single-stim", "word": "chipmunk", "stimulus": "<p id=\"stim\">CHIPMUNK</p>", "conditions": [24, 1600, "v", 24000], "internal_node_id": "0.0-181.0", "trial": 6, "time_elapsed": 1102365, "serialpos": 7, "key_press": -1, "wordID": 303, "type": "PRES_VIS", "trial_index": 244}, "uniqueid": "MTK3586:3WRFBPLXRBV3ISCGTRJL95EPLCWN3Y", "dateTime": 1520796125844}, {"current_trial": 245, "trialdata": {"rt": -1, "trial_type": "single-stim", "word": "lamp", "stimulus": "<p id=\"stim\">LAMP</p>", "conditions": [24, 1600, "v", 24000], "internal_node_id": "0.0-182.0", "trial": 6, "time_elapsed": 1104812, "serialpos": 8, "key_press": -1, "wordID": 797, "type": "PRES_VIS", "trial_index": 245}, "uniqueid": "MTK3586:3WRFBPLXRBV3ISCGTRJL95EPLCWN3Y", "dateTime": 1520796128291}, {"current_trial": 246, "trialdata": {"rt": -1, "trial_type": "single-stim", "word": "atom", "stimulus": "<p id=\"stim\">ATOM</p>", "conditions": [24, 1600, "v", 24000], "internal_node_id": "0.0-183.0", "trial": 6, "time_elapsed": 1107461, "serialpos": 9, "key_press": -1, "wordID": 54, "type": "PRES_VIS", "trial_index": 246}, "uniqueid": "MTK3586:3WRFBPLXRBV3ISCGTRJL95EPLCWN3Y", "dateTime": 1520796130940}, {"current_trial": 247, "trialdata": {"rt": -1, "trial_type": "single-stim", "word": "cashier", "stimulus": "<p id=\"stim\">CASHIER</p>", "conditions": [24, 1600, "v", 24000], "internal_node_id": "0.0-184.0", "trial": 6, "time_elapsed": 1110198, "serialpos": 10, "key_press": -1, "wordID": 253, "type": "PRES_VIS", "trial_index": 247}, "uniqueid": "MTK3586:3WRFBPLXRBV3ISCGTRJL95EPLCWN3Y", "dateTime": 1520796133677}, {"current_trial": 248, "trialdata": {"rt": -1, "trial_type": "single-stim", "word": "pimple", "stimulus": "<p id=\"stim\">PIMPLE</p>", "conditions": [24, 1600, "v", 24000], "internal_node_id": "0.0-185.0", "trial": 6, "time_elapsed": 1112789, "serialpos": 11, "key_press": -1, "wordID": 1070, "type": "PRES_VIS", "trial_index": 248}, "uniqueid": "MTK3586:3WRFBPLXRBV3ISCGTRJL95EPLCWN3Y", "dateTime": 1520796136268}, {"current_trial": 249, "trialdata": {"rt": -1, "trial_type": "single-stim", "word": "cook", "stimulus": "<p id=\"stim\">COOK</p>", "conditions": [24, 1600, "v", 24000], "internal_node_id": "0.0-186.0", "trial": 6, "time_elapsed": 1115380, "serialpos": 12, "key_press": -1, "wordID": 371, "type": "PRES_VIS", "trial_index": 249}, "uniqueid": "MTK3586:3WRFBPLXRBV3ISCGTRJL95EPLCWN3Y", "dateTime": 1520796138859}, {"current_trial": 250, "trialdata": {"rt": -1, "trial_type": "single-stim", "word": "item", "stimulus": "<p id=\"stim\">ITEM</p>", "conditions": [24, 1600, "v", 24000], "internal_node_id": "0.0-187.0", "trial": 6, "time_elapsed": 1117896, "serialpos": 13, "key_press": -1, "wordID": 745, "type": "PRES_VIS", "trial_index": 250}, "uniqueid": "MTK3586:3WRFBPLXRBV3ISCGTRJL95EPLCWN3Y", "dateTime": 1520796141375}, {"current_trial": 251, "trialdata": {"rt": -1, "trial_type": "single-stim", "word": "mammal", "stimulus": "<p id=\"stim\">MAMMAL</p>", "conditions": [24, 1600, "v", 24000], "internal_node_id": "0.0-188.0", "trial": 6, "time_elapsed": 1120620, "serialpos": 14, "key_press": -1, "wordID": 860, "type": "PRES_VIS", "trial_index": 251}, "uniqueid": "MTK3586:3WRFBPLXRBV3ISCGTRJL95EPLCWN3Y", "dateTime": 1520796144099}, {"current_trial": 252, "trialdata": {"rt": -1, "trial_type": "single-stim", "word": "jelly", "stimulus": "<p id=\"stim\">JELLY</p>", "conditions": [24, 1600, "v", 24000], "internal_node_id": "0.0-189.0", "trial": 6, "time_elapsed": 1123405, "serialpos": 15, "key_press": -1, "wordID": 754, "type": "PRES_VIS", "trial_index": 252}, "uniqueid": "MTK3586:3WRFBPLXRBV3ISCGTRJL95EPLCWN3Y", "dateTime": 1520796146884}, {"current_trial": 253, "trialdata": {"rt": -1, "trial_type": "single-stim", "word": "jello", "stimulus": "<p id=\"stim\">JELLO</p>", "conditions": [24, 1600, "v", 24000], "internal_node_id": "0.0-190.0", "trial": 6, "time_elapsed": 1125806, "serialpos": 16, "key_press": -1, "wordID": 753, "type": "PRES_VIS", "trial_index": 253}, "uniqueid": "MTK3586:3WRFBPLXRBV3ISCGTRJL95EPLCWN3Y", "dateTime": 1520796149288}, {"current_trial": 254, "trialdata": {"rt": -1, "trial_type": "single-stim", "word": "patrol", "stimulus": "<p id=\"stim\">PATROL</p>", "conditions": [24, 1600, "v", 24000], "internal_node_id": "0.0-191.0", "trial": 6, "time_elapsed": 1128384, "serialpos": 17, "key_press": -1, "wordID": 1026, "type": "PRES_VIS", "trial_index": 254}, "uniqueid": "MTK3586:3WRFBPLXRBV3ISCGTRJL95EPLCWN3Y", "dateTime": 1520796151863}, {"current_trial": 255, "trialdata": {"rt": -1, "trial_type": "single-stim", "word": "mummy", "stimulus": "<p id=\"stim\">MUMMY</p>", "conditions": [24, 1600, "v", 24000], "internal_node_id": "0.0-192.0", "trial": 6, "time_elapsed": 1130836, "serialpos": 18, "key_press": -1, "wordID": 931, "type": "PRES_VIS", "trial_index": 255}, "uniqueid": "MTK3586:3WRFBPLXRBV3ISCGTRJL95EPLCWN3Y", "dateTime": 1520796154315}, {"current_trial": 256, "trialdata": {"rt": -1, "trial_type": "single-stim", "word": "lunch", "stimulus": "<p id=\"stim\">LUNCH</p>", "conditions": [24, 1600, "v", 24000], "internal_node_id": "0.0-193.0", "trial": 6, "time_elapsed": 1133635, "serialpos": 19, "key_press": -1, "wordID": 848, "type": "PRES_VIS", "trial_index": 256}, "uniqueid": "MTK3586:3WRFBPLXRBV3ISCGTRJL95EPLCWN3Y", "dateTime": 1520796157114}, {"current_trial": 257, "trialdata": {"rt": -1, "trial_type": "single-stim", "word": "gift", "stimulus": "<p id=\"stim\">GIFT</p>", "conditions": [24, 1600, "v", 24000], "internal_node_id": "0.0-194.0", "trial": 6, "time_elapsed": 1136298, "serialpos": 20, "key_press": -1, "wordID": 634, "type": "PRES_VIS", "trial_index": 257}, "uniqueid": "MTK3586:3WRFBPLXRBV3ISCGTRJL95EPLCWN3Y", "dateTime": 1520796159777}, {"current_trial": 258, "trialdata": {"rt": -1, "trial_type": "single-stim", "word": "kitchen", "stimulus": "<p id=\"stim\">KITCHEN</p>", "conditions": [24, 1600, "v", 24000], "internal_node_id": "0.0-195.0", "trial": 6, "time_elapsed": 1138827, "serialpos": 21, "key_press": -1, "wordID": 777, "type": "PRES_VIS", "trial_index": 258}, "uniqueid": "MTK3586:3WRFBPLXRBV3ISCGTRJL95EPLCWN3Y", "dateTime": 1520796162306}, {"current_trial": 259, "trialdata": {"rt": -1, "trial_type": "single-stim", "word": "seafood", "stimulus": "<p id=\"stim\">SEAFOOD</p>", "conditions": [24, 1600, "v", 24000], "internal_node_id": "0.0-196.0", "trial": 6, "time_elapsed": 1141455, "serialpos": 22, "key_press": -1, "wordID": 1259, "type": "PRES_VIS", "trial_index": 259}, "uniqueid": "MTK3586:3WRFBPLXRBV3ISCGTRJL95EPLCWN3Y", "dateTime": 1520796164934}, {"current_trial": 260, "trialdata": {"rt": -1, "trial_type": "single-stim", "word": "diner", "stimulus": "<p id=\"stim\">DINER</p>", "conditions": [24, 1600, "v", 24000], "internal_node_id": "0.0-197.0", "trial": 6, "time_elapsed": 1144219, "serialpos": 23, "key_press": -1, "wordID": 466, "type": "PRES_VIS", "trial_index": 260}, "uniqueid": "MTK3586:3WRFBPLXRBV3ISCGTRJL95EPLCWN3Y", "dateTime": 1520796167698}, {"current_trial": 261, "trialdata": {"rt": -1, "trial_type": "single-stim", "stimulus": "", "internal_node_id": "0.0-198.0-0.0", "time_elapsed": 1146558, "key_press": -1, "type": "PRE_RECALL_DELAY", "trial_index": 261}, "uniqueid": "MTK3586:3WRFBPLXRBV3ISCGTRJL95EPLCWN3Y", "dateTime": 1520796170037}, {"current_trial": 262, "trialdata": {"rt": -1000, "trial_type": "single-audio", "stimulus": "/static/audio/400Hz.wav", "internal_node_id": "0.0-199.0", "time_elapsed": 1147061, "key_press": -1, "type": "PRE_RECALL_ALERT", "trial_inde