{"assignmentId": "3DL65MZB8EMN1MVMTLR3CLOADI5CEZ", "workerId": "MTK3328", "questiondata": {"origin": "United States", "strat-rehearsal": "56", "marital": "Single", "education": "High school diploma", "ethnicity": "Not Hispanic", "color_depth": 24, "distracted": "Yes", "wrote-notes": "No", "strat-other": "repeated the words after the lady had said them, tried closing my eyes but that made it worse. grouping similar words together that i heard helped alot. Ex: clothes, hamper, shirt, blouse.", "screen_width": 1366, "avail_screen_width": 1366, "avail_screen_height": 720, "strat-image": "16", "language": "english", "gender": "Female", "age": "21", "gender_other": "", "race": ["White"], "strat-categorize": "67", "pixel_depth": 24, "strat-spatial": "6", "strat-story": "6", "race_other": "", "screen_height": 768}, "bonus": 0, "hitId": "3L1EFR8WWTCBMIQLMAWG3TCIYWB9FR", "counterbalance": 825, "useragent": "Mozilla/5.0 (X11; CrOS x86_64 10032.86.0) AppleWebKit/537.36 (KHTML, like Gecko) Chrome/63.0.3239.140 Safari/537.36", "eventdata": [{"eventtype": "initialized", "interval": 0, "value": null, "timestamp": 1520388049621}, {"eventtype": "window_resize", "interval": 0, "value": [1366, 656], "timestamp": 1520388049621}, {"eventtype": "focus", "interval": 79585, "value": "off", "timestamp": 1520388129206}, {"eventtype": "focus", "interval": 210, "value": "on", "timestamp": 1520388129416}], "data": [{"current_trial": 0, "trialdata": {"rt": 4629, "trial_type": "text", "internal_node_id": "0.0-0.0", "time_elapsed": 4635, "key_press": 32, "type": "INSTRUCTIONS", "trial_index": 0}, "uniqueid": "MTK3328:3DL65MZB8EMN1MVMTLR3CLOADI5CEZ", "dateTime": 1520388074237}, {"current_trial": 1, "trialdata": {"rt": 32481, "trial_type": "text", "internal_node_id": "0.0-1.0", "time_elapsed": 37122, "key_press": 32, "type": "INSTRUCTIONS", "trial_index": 1}, "uniqueid": "MTK3328:3DL65MZB8EMN1MVMTLR3CLOADI5CEZ", "dateTime": 1520388106723}, {"current_trial": 2, "trialdata": {"rt": [37173], "trial_type": "audio-test", "responses": ["ocean"], "internal_node_id": "0.0-2.0", "time_elapsed": 74374, "type": "AUDIO_TEST", "trial_index": 2}, "uniqueid": "MTK3328:3DL65MZB8EMN1MVMTLR3CLOADI5CEZ", "dateTime": 1520388143974}, {"current_trial": 3, "trialdata": {"rt": [6625], "trial_type": "audio-test", "responses": ["crystal"], "internal_node_id": "0.0-3.0", "time_elapsed": 81015, "type": "AUDIO_TEST", "trial_index": 3}, "uniqueid": "MTK3328:3DL65MZB8EMN1MVMTLR3CLOADI5CEZ", "dateTime": 1520388150615}, {"current_trial": 4, "trialdata": {"rt": [6040], "trial_type": "audio-test", "responses": ["spice"], "internal_node_id": "0.0-4.0", "time_elapsed": 87067, "type": "AUDIO_TEST", "trial_index": 4}, "uniqueid": "MTK3328:3DL65MZB8EMN1MVMTLR3CLOADI5CEZ", "dateTime": 1520388156667}, {"current_trial": 5, "trialdata": {"rt": 18723, "trial_type": "survey-text", "responses": "{\"Q0\":\"3am\",\"Q1\":\"2:30 pm\",\"Q2\":\"5\"}", "internal_node_id": "0.0-5.0", "time_elapsed": 106551, "type": "SLEEP_SURVEY", "trial_index": 5}, "uniqueid": "MTK3328:3DL65MZB8EMN1MVMTLR3CLOADI5CEZ", "dateTime": 1520388176152}, {"current_trial": 6, "trialdata": {"rt": 71002, "trial_type": "text", "internal_node_id": "0.0-6.0", "time_elapsed": 178559, "key_press": 40, "type": "INSTRUCTIONS", "trial_index": 6}, "uniqueid": "MTK3328:3DL65MZB8EMN1MVMTLR3CLOADI5CEZ", "dateTime": 1520388248160}, {"current_trial": 7, "trialdata": {"rt": 25670, "trial_type": "text", "internal_node_id": "0.0-7.0", "time_elapsed": 204735, "key_press": 32, "type": "INSTRUCTIONS", "trial_index": 7}, "uniqueid": "MTK3328:3DL65MZB8EMN1MVMTLR3CLOADI5CEZ", "dateTime": 1520388274335}, {"current_trial": 8, "trialdata": {"rt": 12814, "trial_type": "text", "internal_node_id": "0.0-8.0", "time_elapsed": 218053, "key_press": 32, "type": "INSTRUCTIONS", "trial_index": 8}, "uniqueid": "MTK3328:3DL65MZB8EMN1MVMTLR3CLOADI5CEZ", "dateTime": 1520388287653}, {"current_trial": 9, "trialdata": {"rt": [9311, 12914], "trial_type": "math-distractor", "key_times": [7035, 7735, 9311, 12040, 12182, 12914], "responses": ["17", "11"], "num2": [8, 2, 9], "num3": [6, 7, 9], "conditions": [18, 1200, "a", 18000], "internal_node_id": "0.0-9.0", "key_presses": [49, 55, 13, 49, 49, 13], "trial": 0, "time_elapsed": 237102, "type": "DISTRACTOR", "trial_index": 9, "num1": [3, 2, 5]}, "uniqueid": "MTK3328:3DL65MZB8EMN1MVMTLR3CLOADI5CEZ", "dateTime": 1520388306703}, {"current_trial": 10, "trialdata": {"rt": -1, "trial_type": "single-stim", "stimulus": "<p id=\"stim\">10</p>", "internal_node_id": "0.0-10.0-0.0", "time_elapsed": 240111, "key_press": -1, "trial_index": 10}, "uniqueid": "MTK3328:3DL65MZB8EMN1MVMTLR3CLOADI5CEZ", "dateTime": 1520388309711}, {"current_trial": 11, "trialdata": {"rt": -1, "trial_type": "single-stim", "stimulus": "<p id=\"stim\">9</p>", "internal_node_id": "0.0-10.0-1.0", "time_elapsed": 241116, "key_press": -1, "trial_index": 11}, "uniqueid": "MTK3328:3DL65MZB8EMN1MVMTLR3CLOADI5CEZ", "dateTime": 1520388310716}, {"current_trial": 12, "trialdata": {"rt": -1, "trial_type": "single-stim", "stimulus": "<p id=\"stim\">8</p>", "internal_node_id": "0.0-10.0-2.0", "time_elapsed": 242121, "key_press": -1, "trial_index": 12}, "uniqueid": "MTK3328:3DL65MZB8EMN1MVMTLR3CLOADI5CEZ", "dateTime": 1520388311722}, {"current_trial": 13, "trialdata": {"rt": -1, "trial_type": "single-stim", "stimulus": "<p id=\"stim\">7</p>", "internal_node_id": "0.0-10.0-3.0", "time_elapsed": 243128, "key_press": -1, "trial_index": 13}, "uniqueid": "MTK3328:3DL65MZB8EMN1MVMTLR3CLOADI5CEZ", "dateTime": 1520388312729}, {"current_trial": 14, "trialdata": {"rt": -1, "trial_type": "single-stim", "stimulus": "<p id=\"stim\">6</p>", "internal_node_id": "0.0-10.0-4.0", "time_elapsed": 244133, "key_press": -1, "trial_index": 14}, "uniqueid": "MTK3328:3DL65MZB8EMN1MVMTLR3CLOADI5CEZ", "dateTime": 1520388313733}, {"current_trial": 15, "trialdata": {"rt": -1, "trial_type": "single-stim", "stimulus": "<p id=\"stim\">5</p>", "internal_node_id": "0.0-10.0-5.0", "time_elapsed": 245139, "key_press": -1, "trial_index": 15}, "uniqueid": "MTK3328:3DL65MZB8EMN1MVMTLR3CLOADI5CEZ", "dateTime": 1520388314739}, {"current_trial": 16, "trialdata": {"rt": -1, "trial_type": "single-stim", "stimulus": "<p id=\"stim\">4</p>", "internal_node_id": "0.0-10.0-6.0", "time_elapsed": 246142, "key_press": -1, "trial_index": 16}, "uniqueid": "MTK3328:3DL65MZB8EMN1MVMTLR3CLOADI5CEZ", "dateTime": 1520388315743}, {"current_trial": 17, "trialdata": {"rt": -1, "trial_type": "single-stim", "stimulus": "<p id=\"stim\">3</p>", "internal_node_id": "0.0-10.0-7.0", "time_elapsed": 247147, "key_press": -1, "trial_index": 17}, "uniqueid": "MTK3328:3DL65MZB8EMN1MVMTLR3CLOADI5CEZ", "dateTime": 1520388316748}, {"current_trial": 18, "trialdata": {"rt": -1, "trial_type": "single-stim", "stimulus": "<p id=\"stim\">2</p>", "internal_node_id": "0.0-10.0-8.0", "time_elapsed": 248151, "key_press": -1, "trial_index": 18}, "uniqueid": "MTK3328:3DL65MZB8EMN1MVMTLR3CLOADI5CEZ", "dateTime": 1520388317751}, {"current_trial": 19, "trialdata": {"rt": -1, "trial_type": "single-stim", "stimulus": "<p id=\"stim\">1</p>", "internal_node_id": "0.0-10.0-9.0", "time_elapsed": 249155, "key_press": -1, "trial_index": 19}, "uniqueid": "MTK3328:3DL65MZB8EMN1MVMTLR3CLOADI5CEZ", "dateTime": 1520388318756}, {"current_trial": 20, "trialdata": {"rt": -1, "trial_type": "single-stim", "stimulus": "<p id=\"stim\">+</p>", "internal_node_id": "0.0-11.0-0.0", "time_elapsed": 250661, "key_press": -1, "type": "FIXATION", "trial_index": 20}, "uniqueid": "MTK3328:3DL65MZB8EMN1MVMTLR3CLOADI5CEZ", "dateTime": 1520388320262}, {"current_trial": 21, "trialdata": {"rt": -1000, "trial_type": "single-audio", "word": "zipper", "stimulus": "/static/audio/wordpool/ZIPPER.wav", "conditions": [18, 1200, "a", 18000], "internal_node_id": "0.0-12.0", "trial": 0, "time_elapsed": 252830, "serialpos": 0, "key_press": -1, "wordID": 1635, "type": "PRES_AUD", "trial_index": 21}, "uniqueid": "MTK3328:3DL65MZB8EMN1MVMTLR3CLOADI5CEZ", "dateTime": 1520388322430}, {"current_trial": 22, "trialdata": {"rt": -1000, "trial_type": "single-audio", "word": "sculpture", "stimulus": "/static/audio/wordpool/SCULPTURE.wav", "conditions": [18, 1200, "a", 18000], "internal_node_id": "0.0-13.0", "trial": 0, "time_elapsed": 254858, "serialpos": 1, "key_press": -1, "wordID": 1257, "type": "PRES_AUD", "trial_index": 22}, "uniqueid": "MTK3328:3DL65MZB8EMN1MVMTLR3CLOADI5CEZ", "dateTime": 1520388324459}, {"current_trial": 23, "trialdata": {"rt": -1000, "trial_type": "single-audio", "word": "jello", "stimulus": "/static/audio/wordpool/JELLO.wav", "conditions": [18, 1200, "a", 18000], "internal_node_id": "0.0-14.0", "trial": 0, "time_elapsed": 257216, "serialpos": 2, "key_press": -1, "wordID": 753, "type": "PRES_AUD", "trial_index": 23}, "uniqueid": "MTK3328:3DL65MZB8EMN1MVMTLR3CLOADI5CEZ", "dateTime": 1520388326817}, {"current_trial": 24, "trialdata": {"rt": -1000, "trial_type": "single-audio", "word": "playground", "stimulus": "/static/audio/wordpool/PLAYGROUND.wav", "conditions": [18, 1200, "a", 18000], "internal_node_id": "0.0-15.0", "trial": 0, "time_elapsed": 259288, "serialpos": 3, "key_press": -1, "wordID": 1086, "type": "PRES_AUD", "trial_index": 24}, "uniqueid": "MTK3328:3DL65MZB8EMN1MVMTLR3CLOADI5CEZ", "dateTime": 1520388328888}, {"current_trial": 25, "trialdata": {"rt": -1000, "trial_type": "single-audio", "word": "gazelle", "stimulus": "/static/audio/wordpool/GAZELLE.wav", "conditions": [18, 1200, "a", 18000], "internal_node_id": "0.0-16.0", "trial": 0, "time_elapsed": 261477, "serialpos": 4, "key_press": -1, "wordID": 627, "type": "PRES_AUD", "trial_index": 25}, "uniqueid": "MTK3328:3DL65MZB8EMN1MVMTLR3CLOADI5CEZ", "dateTime": 1520388331080}, {"current_trial": 26, "trialdata": {"rt": -1000, "trial_type": "single-audio", "word": "spool", "stimulus": "/static/audio/wordpool/SPOOL.wav", "conditions": [18, 1200, "a", 18000], "internal_node_id": "0.0-17.0", "trial": 0, "time_elapsed": 263818, "serialpos": 5, "key_press": -1, "wordID": 1355, "type": "PRES_AUD", "trial_index": 26}, "uniqueid": "MTK3328:3DL65MZB8EMN1MVMTLR3CLOADI5CEZ", "dateTime": 1520388333418}, {"current_trial": 27, "trialdata": {"rt": -1000, "trial_type": "single-audio", "word": "flashlight", "stimulus": "/static/audio/wordpool/FLASHLIGHT.wav", "conditions": [18, 1200, "a", 18000], "internal_node_id": "0.0-18.0", "trial": 0, "time_elapsed": 266044, "serialpos": 6, "key_press": -1, "wordID": 574, "type": "PRES_AUD", "trial_index": 27}, "uniqueid": "MTK3328:3DL65MZB8EMN1MVMTLR3CLOADI5CEZ", "dateTime": 1520388335644}, {"current_trial": 28, "trialdata": {"rt": -1000, "trial_type": "single-audio", "word": "seal", "stimulus": "/static/audio/wordpool/SEAL.wav", "conditions": [18, 1200, "a", 18000], "internal_node_id": "0.0-19.0", "trial": 0, "time_elapsed": 268272, "serialpos": 7, "key_press": -1, "wordID": 1261, "type": "PRES_AUD", "trial_index": 28}, "uniqueid": "MTK3328:3DL65MZB8EMN1MVMTLR3CLOADI5CEZ", "dateTime": 1520388337872}, {"current_trial": 29, "trialdata": {"rt": -1000, "trial_type": "single-audio", "word": "jungle", "stimulus": "/static/audio/wordpool/JUNGLE.wav", "conditions": [18, 1200, "a", 18000], "internal_node_id": "0.0-20.0", "trial": 0, "time_elapsed": 270625, "serialpos": 8, "key_press": -1, "wordID": 763, "type": "PRES_AUD", "trial_index": 29}, "uniqueid": "MTK3328:3DL65MZB8EMN1MVMTLR3CLOADI5CEZ", "dateTime": 1520388340225}, {"current_trial": 30, "trialdata": {"rt": -1000, "trial_type": "single-audio", "word": "gift", "stimulus": "/static/audio/wordpool/GIFT.wav", "conditions": [18, 1200, "a", 18000], "internal_node_id": "0.0-21.0", "trial": 0, "time_elapsed": 272983, "serialpos": 9, "key_press": -1, "wordID": 634, "type": "PRES_AUD", "trial_index": 30}, "uniqueid": "MTK3328:3DL65MZB8EMN1MVMTLR3CLOADI5CEZ", "dateTime": 1520388342583}, {"current_trial": 31, "trialdata": {"rt": -1000, "trial_type": "single-audio", "word": "beaker", "stimulus": "/static/audio/wordpool/BEAKER.wav", "conditions": [18, 1200, "a", 18000], "internal_node_id": "0.0-22.0", "trial": 0, "time_elapsed": 275150, "serialpos": 10, "key_press": -1, "wordID": 103, "type": "PRES_AUD", "trial_index": 31}, "uniqueid": "MTK3328:3DL65MZB8EMN1MVMTLR3CLOADI5CEZ", "dateTime": 1520388344750}, {"current_trial": 32, "trialdata": {"rt": -1000, "trial_type": "single-audio", "word": "truck", "stimulus": "/static/audio/wordpool/TRUCK.wav", "conditions": [18, 1200, "a", 18000], "internal_node_id": "0.0-23.0", "trial": 0, "time_elapsed": 277344, "serialpos": 11, "key_press": -1, "wordID": 1511, "type": "PRES_AUD", "trial_index": 32}, "uniqueid": "MTK3328:3DL65MZB8EMN1MVMTLR3CLOADI5CEZ", "dateTime": 1520388346944}, {"current_trial": 33, "trialdata": {"rt": -1000, "trial_type": "single-audio", "word": "drink", "stimulus": "/static/audio/wordpool/DRINK.wav", "conditions": [18, 1200, "a", 18000], "internal_node_id": "0.0-24.0", "trial": 0, "time_elapsed": 279422, "serialpos": 12, "key_press": -1, "wordID": 497, "type": "PRES_AUD", "trial_index": 33}, "uniqueid": "MTK3328:3DL65MZB8EMN1MVMTLR3CLOADI5CEZ", "dateTime": 1520388349022}, {"current_trial": 34, "trialdata": {"rt": -1000, "trial_type": "single-audio", "word": "tractor", "stimulus": "/static/audio/wordpool/TRACTOR.wav", "conditions": [18, 1200, "a", 18000], "internal_node_id": "0.0-25.0", "trial": 0, "time_elapsed": 281612, "serialpos": 13, "key_press": -1, "wordID": 1492, "type": "PRES_AUD", "trial_index": 34}, "uniqueid": "MTK3328:3DL65MZB8EMN1MVMTLR3CLOADI5CEZ", "dateTime": 1520388351212}, {"current_trial": 35, "trialdata": {"rt": -1000, "trial_type": "single-audio", "word": "chapel", "stimulus": "/static/audio/wordpool/CHAPEL.wav", "conditions": [18, 1200, "a", 18000], "internal_node_id": "0.0-26.0", "trial": 0, "time_elapsed": 283848, "serialpos": 14, "key_press": -1, "wordID": 279, "type": "PRES_AUD", "trial_index": 35}, "uniqueid": "MTK3328:3DL65MZB8EMN1MVMTLR3CLOADI5CEZ", "dateTime": 1520388353449}, {"current_trial": 36, "trialdata": {"rt": -1000, "trial_type": "single-audio", "word": "twig", "stimulus": "/static/audio/wordpool/TWIG.wav", "conditions": [18, 1200, "a", 18000], "internal_node_id": "0.0-27.0", "trial": 0, "time_elapsed": 285904, "serialpos": 15, "key_press": -1, "wordID": 1526, "type": "PRES_AUD", "trial_index": 36}, "uniqueid": "MTK3328:3DL65MZB8EMN1MVMTLR3CLOADI5CEZ", "dateTime": 1520388355504}, {"current_trial": 37, "trialdata": {"rt": -1000, "trial_type": "single-audio", "word": "lake", "stimulus": "/static/audio/wordpool/LAKE.wav", "conditions": [18, 1200, "a", 18000], "internal_node_id": "0.0-28.0", "trial": 0, "time_elapsed": 288222, "serialpos": 16, "key_press": -1, "wordID": 795, "type": "PRES_AUD", "trial_index": 37}, "uniqueid": "MTK3328:3DL65MZB8EMN1MVMTLR3CLOADI5CEZ", "dateTime": 1520388357822}, {"current_trial": 38, "trialdata": {"rt": -1000, "trial_type": "single-audio", "word": "dentist", "stimulus": "/static/audio/wordpool/DENTIST.wav", "conditions": [18, 1200, "a", 18000], "internal_node_id": "0.0-29.0", "trial": 0, "time_elapsed": 290318, "serialpos": 17, "key_press": -1, "wordID": 446, "type": "PRES_AUD", "trial_index": 38}, "uniqueid": "MTK3328:3DL65MZB8EMN1MVMTLR3CLOADI5CEZ", "dateTime": 1520388359918}, {"current_trial": 39, "trialdata": {"rt": -1, "trial_type": "single-stim", "stimulus": "", "internal_node_id": "0.0-30.0-0.0", "time_elapsed": 291546, "key_press": -1, "type": "PRE_RECALL_DELAY", "trial_index": 39}, "uniqueid": "MTK3328:3DL65MZB8EMN1MVMTLR3CLOADI5CEZ", "dateTime": 1520388361147}, {"current_trial": 40, "trialdata": {"rt": -1000, "trial_type": "single-audio", "stimulus": "/static/audio/400Hz.wav", "internal_node_id": "0.0-31.0", "time_elapsed": 292049, "key_press": -1, "type": "PRE_RECALL_ALERT", "trial_index": 40}, "uniqueid": "MTK3328:3DL65MZB8EMN1MVMTLR3CLOADI5CEZ", "dateTime": 1520388361649}, {"current_trial": 41, "trialdata": {"rt": [3523, 7717, 11386, 14332, 17216, 23851, 27514, 34681, 50867, 52181], "recwords": ["dentist", "lake", "tractor", "playground", "list", "twig", "tab", "song", "", ""], "key_times": [1476, 1582, 1703, 2132, 2285, 2372, 2469, 3523, 7104, 7189, 7335, 7431, 7717, 9660, 9745, 10013, 10145, 10401, 10582, 10656, 11386, 12594, 12688, 12794, 12981, 13216, 13305, 13368, 13449, 13652, 13784, 14332, 16439, 16581, 16699, 16788, 17216, 23131, 23286, 23442, 23564, 23851, 27039, 27176, 27263, 27514, 27559, 28379, 33358, 33756, 33996, 34156, 34681, 50867, 52181], "trial_type": "free-recall", "conditions": [18, 1200, "a", 18000], "internal_node_id": "0.0-32.0-0.0", "key_presses": [68, 69, 78, 84, 73, 83, 84, 188, 76, 65, 75, 69, 188, 84, 82, 65, 67, 84, 79, 82, 188, 80, 76, 65, 89, 71, 82, 79, 85, 78, 68, 188, 76, 73, 83, 84, 188, 84, 87, 73, 71, 188, 84, 65, 66, 186, 69, 8, 83, 79, 78, 71, 188, 13, 32], "trial": 0, "time_elapsed": 352059, "type": "FREE_RECALL", "trial_index": 41}, "uniqueid": "MTK3328:3DL65MZB8EMN1MVMTLR3CLOADI5CEZ", "dateTime": 1520388421669}, {"current_trial": 42, "trialdata": {"rt": 1682, "trial_type": "text", "internal_node_id": "0.0-33.0", "time_elapsed": 355755, "key_press": 32, "type": "INSTRUCTIONS", "trial_index": 42}, "uniqueid": "MTK3328:3DL65MZB8EMN1MVMTLR3CLOADI5CEZ", "dateTime": 1520388425356}, {"current_trial": 43, "trialdata": {"rt": [6968, 12854, 16409], "trial_type": "math-distractor", "key_times": [6653, 6753, 6968, 11772, 12138, 12854, 15938, 16173, 16409], "responses": ["21", "18", "14"], "num2": [4, 6, 4, 5], "num3": [8, 9, 9, 6], "conditions": [18, 1200, "a", 18000], "internal_node_id": "0.0-34.0", "key_presses": [50, 49, 13, 49, 56, 13, 49, 52, 13], "trial": 1, "time_elapsed": 375764, "type": "DISTRACTOR", "trial_index": 43, "num1": [9, 3, 1, 9]}, "uniqueid": "MTK3328:3DL65MZB8EMN1MVMTLR3CLOADI5CEZ", "dateTime": 1520388445365}, {"current_trial": 44, "trialdata": {"rt": -1, "trial_type": "single-stim", "stimulus": "<p id=\"stim\">10</p>", "internal_node_id": "0.0-35.0-0.0", "time_elapsed": 378770, "key_press": -1, "trial_index": 44}, "uniqueid": "MTK3328:3DL65MZB8EMN1MVMTLR3CLOADI5CEZ", "dateTime": 1520388448371}, {"current_trial": 45, "trialdata": {"rt": -1, "trial_type": "single-stim", "stimulus": "<p id=\"stim\">9</p>", "internal_node_id": "0.0-35.0-1.0", "time_elapsed": 379773, "key_press": -1, "trial_index": 45}, "uniqueid": "MTK3328:3DL65MZB8EMN1MVMTLR3CLOADI5CEZ", "dateTime": 1520388449374}, {"current_trial": 46, "trialdata": {"rt": -1, "trial_type": "single-stim", "stimulus": "<p id=\"stim\">8</p>", "internal_node_id": "0.0-35.0-2.0", "time_elapsed": 380777, "key_press": -1, "trial_index": 46}, "uniqueid": "MTK3328:3DL65MZB8EMN1MVMTLR3CLOADI5CEZ", "dateTime": 1520388450377}, {"current_trial": 47, "trialdata": {"rt": -1, "trial_type": "single-stim", "stimulus": "<p id=\"stim\">7</p>", "internal_node_id": "0.0-35.0-3.0", "time_elapsed": 381781, "key_press": -1, "trial_index": 47}, "uniqueid": "MTK3328:3DL65MZB8EMN1MVMTLR3CLOADI5CEZ", "dateTime": 1520388451382}, {"current_trial": 48, "trialdata": {"rt": -1, "trial_type": "single-stim", "stimulus": "<p id=\"stim\">6</p>", "internal_node_id": "0.0-35.0-4.0", "time_elapsed": 382785, "key_press": -1, "trial_index": 48}, "uniqueid": "MTK3328:3DL65MZB8EMN1MVMTLR3CLOADI5CEZ", "dateTime": 1520388452385}, {"current_trial": 49, "trialdata": {"rt": -1, "trial_type": "single-stim", "stimulus": "<p id=\"stim\">5</p>", "internal_node_id": "0.0-35.0-5.0", "time_elapsed": 383788, "key_press": -1, "trial_index": 49}, "uniqueid": "MTK3328:3DL65MZB8EMN1MVMTLR3CLOADI5CEZ", "dateTime": 1520388453389}, {"current_trial": 50, "trialdata": {"rt": -1, "trial_type": "single-stim", "stimulus": "<p id=\"stim\">4</p>", "internal_node_id": "0.0-35.0-6.0", "time_elapsed": 384793, "key_press": -1, "trial_index": 50}, "uniqueid": "MTK3328:3DL65MZB8EMN1MVMTLR3CLOADI5CEZ", "dateTime": 1520388454394}, {"current_trial": 51, "trialdata": {"rt": -1, "trial_type": "single-stim", "stimulus": "<p id=\"stim\">3</p>", "internal_node_id": "0.0-35.0-7.0", "time_elapsed": 385797, "key_press": -1, "trial_index": 51}, "uniqueid": "MTK3328:3DL65MZB8EMN1MVMTLR3CLOADI5CEZ", "dateTime": 1520388455398}, {"current_trial": 52, "trialdata": {"rt": -1, "trial_type": "single-stim", "stimulus": "<p id=\"stim\">2</p>", "internal_node_id": "0.0-35.0-8.0", "time_elapsed": 386800, "key_press": -1, "trial_index": 52}, "uniqueid": "MTK3328:3DL65MZB8EMN1MVMTLR3CLOADI5CEZ", "dateTime": 1520388456401}, {"current_trial": 53, "trialdata": {"rt": -1, "trial_type": "single-stim", "stimulus": "<p id=\"stim\">1</p>", "internal_node_id": "0.0-35.0-9.0", "time_elapsed": 387805, "key_press": -1, "trial_index": 53}, "uniqueid": "MTK3328:3DL65MZB8EMN1MVMTLR3CLOADI5CEZ", "dateTime": 1520388457406}, {"current_trial": 54, "trialdata": {"rt": -1, "trial_type": "single-stim", "stimulus": "<p id=\"stim\">+</p>", "internal_node_id": "0.0-36.0-0.0", "time_elapsed": 389310, "key_press": -1, "type": "FIXATION", "trial_index": 54}, "uniqueid": "MTK3328:3DL65MZB8EMN1MVMTLR3CLOADI5CEZ", "dateTime": 1520388458911}, {"current_trial": 55, "trialdata": {"rt": -1000, "trial_type": "single-audio", "word": "freezer", "stimulus": "/static/audio/wordpool/FREEZER.wav", "conditions": [18, 1200, "a", 18000], "internal_node_id": "0.0-37.0", "trial": 1, "time_elapsed": 391422, "serialpos": 0, "key_press": -1, "wordID": 603, "type": "PRES_AUD", "trial_index": 55}, "uniqueid": "MTK3328:3DL65MZB8EMN1MVMTLR3CLOADI5CEZ", "dateTime": 1520388461022}, {"current_trial": 56, "trialdata": {"rt": -1000, "trial_type": "single-audio", "word": "summit", "stimulus": "/static/audio/wordpool/SUMMIT.wav", "conditions": [18, 1200, "a", 18000], "internal_node_id": "0.0-38.0", "trial": 1, "time_elapsed": 393532, "serialpos": 1, "key_press": -1, "wordID": 1404, "type": "PRES_AUD", "trial_index": 56}, "uniqueid": "MTK3328:3DL65MZB8EMN1MVMTLR3CLOADI5CEZ", "dateTime": 1520388463132}, {"current_trial": 57, "trialdata": {"rt": -1000, "trial_type": "single-audio", "word": "patient", "stimulus": "/static/audio/wordpool/PATIENT.wav", "conditions": [18, 1200, "a", 18000], "internal_node_id": "0.0-39.0", "trial": 1, "time_elapsed": 395804, "serialpos": 2, "key_press": -1, "wordID": 1023, "type": "PRES_AUD", "trial_index": 57}, "uniqueid": "MTK3328:3DL65MZB8EMN1MVMTLR3CLOADI5CEZ", "dateTime": 1520388465404}, {"current_trial": 58, "trialdata": {"rt": -1000, "trial_type": "single-audio", "word": "perch", "stimulus": "/static/audio/wordpool/PERCH.wav", "conditions": [18, 1200, "a", 18000], "internal_node_id": "0.0-40.0", "trial": 1, "time_elapsed": 397945, "serialpos": 3, "key_press": -1, "wordID": 1047, "type": "PRES_AUD", "trial_index": 58}, "uniqueid": "MTK3328:3DL65MZB8EMN1MVMTLR3CLOADI5CEZ", "dateTime": 1520388467545}, {"current_trial": 59, "trialdata": {"rt": -1000, "trial_type": "single-audio", "word": "basement", "stimulus": "/static/audio/wordpool/BASEMENT.wav", "conditions": [18, 1200, "a", 18000], "internal_node_id": "0.0-41.0", "trial": 1, "time_elapsed": 400183, "serialpos": 4, "key_press": -1, "wordID": 93, "type": "PRES_AUD", "trial_index": 59}, "uniqueid": "MTK3328:3DL65MZB8EMN1MVMTLR3CLOADI5CEZ", "dateTime": 1520388469783}, {"current_trial": 60, "trialdata": {"rt": -1000, "trial_type": "single-audio", "word": "bathtub", "stimulus": "/static/audio/wordpool/BATHTUB.wav", "conditions": [18, 1200, "a", 18000], "internal_node_id": "0.0-42.0", "trial": 1, "time_elapsed": 402376, "serialpos": 5, "key_press": -1, "wordID": 99, "type": "PRES_AUD", "trial_index": 60}, "uniqueid": "MTK3328:3DL65MZB8EMN1MVMTLR3CLOADI5CEZ", "dateTime": 1520388471976}, {"current_trial": 61, "trialdata": {"rt": -1000, "trial_type": "single-audio", "word": "scallop", "stimulus": "/static/audio/wordpool/SCALLOP.wav", "conditions": [18, 1200, "a", 18000], "internal_node_id": "0.0-43.0", "trial": 1, "time_elapsed": 404652, "serialpos": 6, "key_press": -1, "wordID": 1241, "type": "PRES_AUD", "trial_index": 61}, "uniqueid": "MTK3328:3DL65MZB8EMN1MVMTLR3CLOADI5CEZ", "dateTime": 1520388474252}, {"current_trial": 62, "trialdata": {"rt": -1000, "trial_type": "single-audio", "word": "muffin", "stimulus": "/static/audio/wordpool/MUFFIN.wav", "conditions": [18, 1200, "a", 18000], "internal_node_id": "0.0-44.0", "trial": 1, "time_elapsed": 406914, "serialpos": 7, "key_press": -1, "wordID": 928, "type": "PRES_AUD", "trial_index": 62}, "uniqueid": "MTK3328:3DL65MZB8EMN1MVMTLR3CLOADI5CEZ", "dateTime": 1520388476514}, {"current_trial": 63, "trialdata": {"rt": -1000, "trial_type": "single-audio", "word": "neutron", "stimulus": "/static/audio/wordpool/NEUTRON.wav", "conditions": [18, 1200, "a", 18000], "internal_node_id": "0.0-45.0", "trial": 1, "time_elapsed": 408935, "serialpos": 8, "key_press": -1, "wordID": 946, "type": "PRES_AUD", "trial_index": 63}, "uniqueid": "MTK3328:3DL65MZB8EMN1MVMTLR3CLOADI5CEZ", "dateTime": 1520388478535}, {"current_trial": 64, "trialdata": {"rt": -1000, "trial_type": "single-audio", "word": "bouquet", "stimulus": "/static/audio/wordpool/BOUQUET.wav", "conditions": [18, 1200, "a", 18000], "internal_node_id": "0.0-46.0", "trial": 1, "time_elapsed": 411272, "serialpos": 9, "key_press": -1, "wordID": 156, "type": "PRES_AUD", "trial_index": 64}, "uniqueid": "MTK3328:3DL65MZB8EMN1MVMTLR3CLOADI5CEZ", "dateTime": 1520388480872}, {"current_trial": 65, "trialdata": {"rt": -1000, "trial_type": "single-audio", "word": "yacht", "stimulus": "/static/audio/wordpool/YACHT.wav", "conditions": [18, 1200, "a", 18000], "internal_node_id": "0.0-47.0", "trial": 1, "time_elapsed": 413431, "serialpos": 10, "key_press": -1, "wordID": 1628, "type": "PRES_AUD", "trial_index": 65}, "uniqueid": "MTK3328:3DL65MZB8EMN1MVMTLR3CLOADI5CEZ", "dateTime": 1520388483031}, {"current_trial": 66, "trialdata": {"rt": -1000, "trial_type": "single-audio", "word": "puppy", "stimulus": "/static/audio/wordpool/PUPPY.wav", "conditions": [18, 1200, "a", 18000], "internal_node_id": "0.0-48.0", "trial": 1, "time_elapsed": 415752, "serialpos": 11, "key_press": -1, "wordID": 1143, "type": "PRES_AUD", "trial_index": 66}, "uniqueid": "MTK3328:3DL65MZB8EMN1MVMTLR3CLOADI5CEZ", "dateTime": 1520388485352}, {"current_trial": 67, "trialdata": {"rt": -1000, "trial_type": "single-audio", "word": "rifle", "stimulus": "/static/audio/wordpool/RIFLE.wav", "conditions": [18, 1200, "a", 18000], "internal_node_id": "0.0-49.0", "trial": 1, "time_elapsed": 417800, "serialpos": 12, "key_press": -1, "wordID": 1191, "type": "PRES_AUD", "trial_index": 67}, "uniqueid": "MTK3328:3DL65MZB8EMN1MVMTLR3CLOADI5CEZ", "dateTime": 1520388487400}, {"current_trial": 68, "trialdata": {"rt": -1000, "trial_type": "single-audio", "word": "casket", "stimulus": "/static/audio/wordpool/CASKET.wav", "conditions": [18, 1200, "a", 18000], "internal_node_id": "0.0-50.0", "trial": 1, "time_elapsed": 420076, "serialpos": 13, "key_press": -1, "wordID": 254, "type": "PRES_AUD", "trial_index": 68}, "uniqueid": "MTK3328:3DL65MZB8EMN1MVMTLR3CLOADI5CEZ", "dateTime": 1520388489686}, {"current_trial": 69, "trialdata": {"rt": -1000, "trial_type": "single-audio", "word": "seagull", "stimulus": "/static/audio/wordpool/SEAGULL.wav", "conditions": [18, 1200, "a", 18000], "internal_node_id": "0.0-51.0", "trial": 1, "time_elapsed": 422274, "serialpos": 14, "key_press": -1, "wordID": 1260, "type": "PRES_AUD", "trial_index": 69}, "uniqueid": "MTK3328:3DL65MZB8EMN1MVMTLR3CLOADI5CEZ", "dateTime": 1520388491874}, {"current_trial": 70, "trialdata": {"rt": -1000, "trial_type": "single-audio", "word": "zebra", "stimulus": "/static/audio/wordpool/ZEBRA.wav", "conditions": [18, 1200, "a", 18000], "internal_node_id": "0.0-52.0", "trial": 1, "time_elapsed": 424445, "serialpos": 15, "key_press": -1, "wordID": 1634, "type": "PRES_AUD", "trial_index": 70}, "uniqueid": "MTK3328:3DL65MZB8EMN1MVMTLR3CLOADI5CEZ", "dateTime": 1520388494045}, {"current_trial": 71, "trialdata": {"rt": -1000, "trial_type": "single-audio", "word": "lady", "stimulus": "/static/audio/wordpool/LADY.wav", "conditions": [18, 1200, "a", 18000], "internal_node_id": "0.0-53.0", "trial": 1, "time_elapsed": 426682, "serialpos": 16, "key_press": -1, "wordID": 793, "type": "PRES_AUD", "trial_index": 71}, "uniqueid": "MTK3328:3DL65MZB8EMN1MVMTLR3CLOADI5CEZ", "dateTime": 1520388496282}, {"current_trial": 72, "trialdata": {"rt": -1000, "trial_type": "single-audio", "word": "human", "stimulus": "/static/audio/wordpool/HUMAN.wav", "conditions": [18, 1200, "a", 18000], "internal_node_id": "0.0-54.0", "trial": 1, "time_elapsed": 428961, "serialpos": 17, "key_press": -1, "wordID": 725, "type": "PRES_AUD", "trial_index": 72}, "uniqueid": "MTK3328:3DL65MZB8EMN1MVMTLR3CLOADI5CEZ", "dateTime": 1520388498561}, {"current_trial": 73, "trialdata": {"rt": -1, "trial_type": "single-stim", "stimulus": "", "internal_node_id": "0.0-55.0-0.0", "time_elapsed": 430303, "key_press": -1, "type": "PRE_RECALL_DELAY", "trial_index": 73}, "uniqueid": "MTK3328:3DL65MZB8EMN1MVMTLR3CLOADI5CEZ", "dateTime": 1520388499904}, {"current_trial": 74, "trialdata": {"rt": -1000, "trial_type": "single-audio", "stimulus": "/static/audio/400Hz.wav", "internal_node_id": "0.0-56.0", "time_elapsed": 430807, "key_press": -1, "type": "PRE_RECALL_ALERT", "trial_index": 74}, "uniqueid": "MTK3328:3DL65MZB8EMN1MVMTLR3CLOADI5CEZ", "dateTime": 1520388500407}, {"current_trial": 75, "trialdata": {"rt": [2439, 3780, 9495, 21374, 29222, 37908], "recwords": ["human", "lady", "casket", "puppy", "rifle", "bouqet"], "key_times": [888, 1009, 1213, 1328, 1412, 2439, 2796, 2926, 3082, 3239, 3780, 6794, 7274, 7680, 7914, 8104, 8226, 9495, 19822, 20215, 20465, 20603, 20667, 21374, 27255, 27420, 27507, 27693, 27834, 28160, 28284, 28724, 28798, 29222, 35442, 35739, 35848, 36659, 36989, 37143, 37908], "trial_type": "free-recall", "conditions": [18, 1200, "a", 18000], "internal_node_id": "0.0-57.0-0.0", "key_presses": [72, 85, 77, 65, 78, 188, 76, 65, 68, 89, 188, 67, 65, 83, 75, 69, 84, 188, 80, 85, 80, 80, 89, 188, 82, 73, 70, 69, 76, 8, 8, 76, 69, 188, 66, 79, 85, 81, 69, 84, 188], "trial": 1, "time_elapsed": 490813, "type": "FREE_RECALL", "trial_index": 75}, "uniqueid": "MTK3328:3DL65MZB8EMN1MVMTLR3CLOADI5CEZ", "dateTime": 1520388560420}, {"current_trial": 76, "trialdata": {"rt": 5817, "trial_type": "text", "internal_node_id": "0.0-58.0", "time_elapsed": 498643, "key_press": 32, "type": "INSTRUCTIONS", "trial_index": 76}, "uniqueid": "MTK3328:3DL65MZB8EMN1MVMTLR3CLOADI5CEZ", "dateTime": 1520388568244}, {"current_trial": 77, "trialdata": {"rt": [6524, 11640], "trial_type": "math-distractor", "key_times": [5777, 5989, 6524, 10944, 11255, 11640], "responses": ["16", "16"], "num2": [7, 4, 6], "num3": [5, 6, 9], "conditions": [12, 800, "a", 12000], "internal_node_id": "0.0-59.0", "key_presses": [49, 54, 13, 49, 54, 13], "trial": 2, "time_elapsed": 511656, "type": "DISTRACTOR", "trial_index": 77, "num1": [4, 6, 9]}, "uniqueid": "MTK3328:3DL65MZB8EMN1MVMTLR3CLOADI5CEZ", "dateTime": 1520388581257}, {"current_trial": 78, "trialdata": {"rt": -1, "trial_type": "single-stim", "stimulus": "<p id=\"stim\">10</p>", "internal_node_id": "0.0-60.0-0.0", "time_elapsed": 514662, "key_press": -1, "trial_index": 78}, "uniqueid": "MTK3328:3DL65MZB8EMN1MVMTLR3CLOADI5CEZ", "dateTime": 1520388584262}, {"current_trial": 79, "trialdata": {"rt": -1, "trial_type": "single-stim", "stimulus": "<p id=\"stim\">9</p>", "internal_node_id": "0.0-60.0-1.0", "time_elapsed": 515668, "key_press": -1, "trial_index": 79}, "uniqueid": "MTK3328:3DL65MZB8EMN1MVMTLR3CLOADI5CEZ", "dateTime": 1520388585268}, {"current_trial": 80, "trialdata": {"rt": -1, "trial_type": "single-stim", "stimulus": "<p id=\"stim\">8</p>", "internal_node_id": "0.0-60.0-2.0", "time_elapsed": 516675, "key_press": -1, "trial_index": 80}, "uniqueid": "MTK3328:3DL65MZB8EMN1MVMTLR3CLOADI5CEZ", "dateTime": 1520388586275}, {"current_trial": 81, "trialdata": {"rt": -1, "trial_type": "single-stim", "stimulus": "<p id=\"stim\">7</p>", "internal_node_id": "0.0-60.0-3.0", "time_elapsed": 517681, "key_press": -1, "trial_index": 81}, "uniqueid": "MTK3328:3DL65MZB8EMN1MVMTLR3CLOADI5CEZ", "dateTime": 1520388587282}, {"current_trial": 82, "trialdata": {"rt": -1, "trial_type": "single-stim", "stimulus": "<p id=\"stim\">6</p>", "internal_node_id": "0.0-60.0-4.0", "time_elapsed": 518686, "key_press": -1, "trial_index": 82}, "uniqueid": "MTK3328:3DL65MZB8EMN1MVMTLR3CLOADI5CEZ", "dateTime": 1520388588287}, {"current_trial": 83, "trialdata": {"rt": -1, "trial_type": "single-stim", "stimulus": "<p id=\"stim\">5</p>", "internal_node_id": "0.0-60.0-5.0", "time_elapsed": 519690, "key_press": -1, "trial_index": 83}, "uniqueid": "MTK3328:3DL65MZB8EMN1MVMTLR3CLOADI5CEZ", "dateTime": 1520388589291}, {"current_trial": 84, "trialdata": {"rt": -1, "trial_type": "single-stim", "stimulus": "<p id=\"stim\">4</p>", "internal_node_id": "0.0-60.0-6.0", "time_elapsed": 520695, "key_press": -1, "trial_index": 84}, "uniqueid": "MTK3328:3DL65MZB8EMN1MVMTLR3CLOADI5CEZ", "dateTime": 1520388590296}, {"current_trial": 85, "trialdata": {"rt": 992, "trial_type": "single-stim", "stimulus": "<p id=\"stim\">3</p>", "internal_node_id": "0.0-60.0-7.0", "time_elapsed": 521700, "key_press": 32, "trial_index": 85}, "uniqueid": "MTK3328:3DL65MZB8EMN1MVMTLR3CLOADI5CEZ", "dateTime": 1520388591300}, {"current_trial": 86, "trialdata": {"rt": -1, "trial_type": "single-stim", "stimulus": "<p id=\"stim\">2</p>", "internal_node_id": "0.0-60.0-8.0", "time_elapsed": 522707, "key_press": -1, "trial_index": 86}, "uniqueid": "MTK3328:3DL65MZB8EMN1MVMTLR3CLOADI5CEZ", "dateTime": 1520388592307}, {"current_trial": 87, "trialdata": {"rt": -1, "trial_type": "single-stim", "stimulus": "<p id=\"stim\">1</p>", "internal_node_id": "0.0-60.0-9.0", "time_elapsed": 523710, "key_press": -1, "trial_index": 87}, "uniqueid": "MTK3328:3DL65MZB8EMN1MVMTLR3CLOADI5CEZ", "dateTime": 1520388593310}, {"current_trial": 88, "trialdata": {"rt": -1, "trial_type": "single-stim", "stimulus": "<p id=\"stim\">+</p>", "internal_node_id": "0.0-61.0-0.0", "time_elapsed": 525214, "key_press": -1, "type": "FIXATION", "trial_index": 88}, "uniqueid": "MTK3328:3DL65MZB8EMN1MVMTLR3CLOADI5CEZ", "dateTime": 1520388594814}, {"current_trial": 89, "trialdata": {"rt": -1000, "trial_type": "single-audio", "word": "candy", "stimulus": "/static/audio/wordpool/CANDY.wav", "conditions": [12, 800, "a", 12000], "internal_node_id": "0.0-62.0", "trial": 2, "time_elapsed": 527024, "serialpos": 0, "key_press": -1, "wordID": 229, "type": "PRES_AUD", "trial_index": 89}, "uniqueid": "MTK3328:3DL65MZB8EMN1MVMTLR3CLOADI5CEZ", "dateTime": 1520388596625}, {"current_trial": 90, "trialdata": {"rt": -1000, "trial_type": "single-audio", "word": "crib", "stimulus": "/static/audio/wordpool/CRIB.wav", "conditions": [12, 800, "a", 12000], "internal_node_id": "0.0-63.0", "trial": 2, "time_elapsed": 528732, "serialpos": 1, "key_press": -1, "wordID": 406, "type": "PRES_AUD", "trial_index": 90}, "uniqueid": "MTK3328:3DL65MZB8EMN1MVMTLR3CLOADI5CEZ", "dateTime": 1520388598332}, {"current_trial": 91, "trialdata": {"rt": -1000, "trial_type": "single-audio", "word": "world", "stimulus": "/static/audio/wordpool/WORLD.wav", "conditions": [12, 800, "a", 12000], "internal_node_id": "0.0-64.0", "trial": 2, "time_elapsed": 530403, "serialpos": 2, "key_press": -1, "wordID": 1621, "type": "PRES_AUD", "trial_index": 91}, "uniqueid": "MTK3328:3DL65MZB8EMN1MVMTLR3CLOADI5CEZ", "dateTime": 1520388600003}, {"current_trial": 92, "trialdata": {"rt": -1000, "trial_type": "single-audio", "word": "mars", "stimulus": "/static/audio/wordpool/MARS.wav", "conditions": [12, 800, "a", 12000], "internal_node_id": "0.0-65.0", "trial": 2, "time_elapsed": 532205, "serialpos": 3, "key_press": -1, "wordID": 872, "type": "PRES_AUD", "trial_index": 92}, "uniqueid": "MTK3328:3DL65MZB8EMN1MVMTLR3CLOADI5CEZ", "dateTime": 1520388601806}, {"current_trial": 93, "trialdata": {"rt": -1000, "trial_type": "single-audio", "word": "daisy", "stimulus": "/static/audio/wordpool/DAISY.wav", "conditions": [12, 800, "a", 12000], "internal_node_id": "0.0-66.0", "trial": 2, "time_elapsed": 534020, "serialpos": 4, "key_press": -1, "wordID": 434, "type": "PRES_AUD", "trial_index": 93}, "uniqueid": "MTK3328:3DL65MZB8EMN1MVMTLR3CLOADI5CEZ", "dateTime": 1520388603621}, {"current_trial": 94, "trialdata": {"rt": -1000, "trial_type": "single-audio", "word": "europe", "stimulus": "/static/audio/wordpool/EUROPE.wav", "conditions": [12, 800, "a", 12000], "internal_node_id": "0.0-67.0", "trial": 2, "time_elapsed": 535945, "serialpos": 5, "key_press": -1, "wordID": 540, "type": "PRES_AUD", "trial_index": 94}, "uniqueid": "MTK3328:3DL65MZB8EMN1MVMTLR3CLOADI5CEZ", "dateTime": 1520388605545}, {"current_trial": 95, "trialdata": {"rt": -1000, "trial_type": "single-audio", "word": "custard", "stimulus": "/static/audio/wordpool/CUSTARD.wav", "conditions": [12, 800, "a", 12000], "internal_node_id": "0.0-68.0", "trial": 2, "time_elapsed": 537869, "serialpos": 6, "key_press": -1, "wordID": 428, "type": "PRES_AUD", "trial_index": 95}, "uniqueid": "MTK3328:3DL65MZB8EMN1MVMTLR3CLOADI5CEZ", "dateTime": 1520388607469}, {"current_trial": 96, "trialdata": {"rt": -1000, "trial_type": "single-audio", "word": "shortcake", "stimulus": "/static/audio/wordpool/SHORTCAKE.wav", "conditions": [12, 800, "a", 12000], "internal_node_id": "0.0-69.0", "trial": 2, "time_elapsed": 539591, "serialpos": 7, "key_press": -1, "wordID": 1291, "type": "PRES_AUD", "trial_index": 96}, "uniqueid": "MTK3328:3DL65MZB8EMN1MVMTLR3CLOADI5CEZ", "dateTime": 1520388609191}, {"current_trial": 97, "trialdata": {"rt": -1000, "trial_type": "single-audio", "word": "tablet", "stimulus": "/static/audio/wordpool/TABLET.wav", "conditions": [12, 800, "a", 12000], "internal_node_id": "0.0-70.0", "trial": 2, "time_elapsed": 541384, "serialpos": 8, "key_press": -1, "wordID": 1426, "type": "PRES_AUD", "trial_index": 97}, "uniqueid": "MTK3328:3DL65MZB8EMN1MVMTLR3CLOADI5CEZ", "dateTime": 1520388610984}, {"current_trial": 98, "trialdata": {"rt": -1000, "trial_type": "single-audio", "word": "snack", "stimulus": "/static/audio/wordpool/SNACK.wav", "conditions": [12, 800, "a", 12000], "internal_node_id": "0.0-71.0", "trial": 2, "time_elapsed": 543197, "serialpos": 9, "key_press": -1, "wordID": 1330, "type": "PRES_AUD", "trial_index": 98}, "uniqueid": "MTK3328:3DL65MZB8EMN1MVMTLR3CLOADI5CEZ", "dateTime": 1520388612797}, {"current_trial": 99, "trialdata": {"rt": -1000, "trial_type": "single-audio", "word": "dolphin", "stimulus": "/static/audio/wordpool/DOLPHIN.wav", "conditions": [12, 800, "a", 12000], "internal_node_id": "0.0-72.0", "trial": 2, "time_elapsed": 544964, "serialpos": 10, "key_press": -1, "wordID": 482, "type": "PRES_AUD", "trial_index": 99}, "uniqueid": "MTK3328:3DL65MZB8EMN1MVMTLR3CLOADI5CEZ", "dateTime": 1520388614565}, {"current_trial": 100, "trialdata": {"rt": -1000, "trial_type": "single-audio", "word": "cyclone", "stimulus": "/static/audio/wordpool/CYCLONE.wav", "conditions": [12, 800, "a", 12000], "internal_node_id": "0.0-73.0", "trial": 2, "time_elapsed": 546911, "serialpos": 11, "key_press": -1, "wordID": 430, "type": "PRES_AUD", "trial_index": 100}, "uniqueid": "MTK3328:3DL65MZB8EMN1MVMTLR3CLOADI5CEZ", "dateTime": 1520388616511}, {"current_trial": 101, "trialdata": {"rt": -1, "trial_type": "single-stim", "stimulus": "", "internal_node_id": "0.0-74.0-0.0", "time_elapsed": 548244, "key_press": -1, "type": "PRE_RECALL_DELAY", "trial_index": 101}, "uniqueid": "MTK3328:3DL65MZB8EMN1MVMTLR3CLOADI5CEZ", "dateTime": 1520388617844}, {"current_trial": 102, "trialdata": {"rt": -1000, "trial_type": "single-audio", "stimulus": "/static/audio/400Hz.wav", "internal_node_id": "0.0-75.0", "time_elapsed": 548747, "key_press": -1, "type": "PRE_RECALL_ALERT", "trial_index": 102}, "uniqueid": "MTK3328:3DL65MZB8EMN1MVMTLR3CLOADI5CEZ", "dateTime": 1520388618348}, {"current_trial": 103, "trialdata": {"rt": [4944, 7958, 9549, 18741, 20309, 25370, 31018, 34193, 53036, 54720], "recwords": ["cyclone", "dolphin", "baby", "shark", "baby", "shortcake", "", "", "", ""], "key_times": [1008, 1149, 1503, 1750, 2534, 3211, 3408, 3509, 3632, 4944, 5974, 6144, 6728, 6926, 7030, 7184, 7303, 7958, 8491, 8664, 8779, 8907, 9549, 17674, 17852, 17995, 18140, 18372, 18741, 19254, 19420, 19501, 19695, 20309, 23466, 23608, 23719, 23835, 23932, 24229, 24358, 24512, 24579, 25370, 31018, 34193, 53036, 54720], "trial_type": "free-recall", "conditions": [12, 800, "a", 12000], "internal_node_id": "0.0-76.0-0.0", "key_presses": [67, 89, 67, 79, 8, 76, 79, 78, 69, 188, 68, 79, 76, 80, 72, 73, 78, 188, 66, 65, 66, 89, 188, 83, 72, 65, 82, 75, 188, 66, 65, 66, 89, 188, 83, 72, 79, 82, 84, 67, 65, 75, 69, 188, 32, 13, 186, 186], "trial": 2, "time_elapsed": 608754, "type": "FREE_RECALL", "trial_index": 103}, "uniqueid": "MTK3328:3DL65MZB8EMN1MVMTLR3CLOADI5CEZ", "dateTime": 1520388678359}, {"current_trial": 104, "trialdata": {"rt": 1660, "trial_type": "text", "internal_node_id": "0.0-77.0", "time_elapsed": 612422, "key_press": 32, "type": "INSTRUCTIONS", "trial_index": 104}, "uniqueid": "MTK3328:3DL65MZB8EMN1MVMTLR3CLOADI5CEZ", "dateTime": 1520388682023}, {"current_trial": 105, "trialdata": {"rt": [7581, 12753, 17938, 21103], "trial_type": "math-distractor", "key_times": [6882, 7018, 7581, 11913, 12448, 12753, 16860, 17408, 17938, 20611, 20814, 21103], "responses": ["22", "17", "18", "13"], "num2": [4, 2, 5, 3, 7], "num3": [9, 6, 4, 1, 2], "conditions": [12, 1600, "a", 24000], "internal_node_id": "0.0-78.0", "key_presses": [50, 50, 13, 49, 55, 13, 49, 56, 13, 49, 51, 13], "trial": 3, "time_elapsed": 638430, "type": "DISTRACTOR", "trial_index": 105, "num1": [8, 9, 9, 9, 8]}, "uniqueid": "MTK3328:3DL65MZB8EMN1MVMTLR3CLOADI5CEZ", "dateTime": 1520388708030}, {"current_trial": 106, "trialdata": {"rt": -1, "trial_type": "single-stim", "stimulus": "<p id=\"stim\">10</p>", "internal_node_id": "0.0-79.0-0.0", "time_elapsed": 641434, "key_press": -1, "trial_index": 106}, "uniqueid": "MTK3328:3DL65MZB8EMN1MVMTLR3CLOADI5CEZ", "dateTime": 1520388711035}, {"current_trial": 107, "trialdata": {"rt": -1, "trial_type": "single-stim", "stimulus": "<p id=\"stim\">9</p>", "internal_node_id": "0.0-79.0-1.0", "time_elapsed": 642437, "key_press": -1, "trial_index": 107}, "uniqueid": "MTK3328:3DL65MZB8EMN1MVMTLR3CLOADI5CEZ", "dateTime": 1520388712037}, {"current_trial": 108, "trialdata": {"rt": -1, "trial_type": "single-stim", "stimulus": "<p id=\"stim\">8</p>", "internal_node_id": "0.0-79.0-2.0", "time_elapsed": 643440, "key_press": -1, "trial_index": 108}, "uniqueid": "MTK3328:3DL65MZB8EMN1MVMTLR3CLOADI5CEZ", "dateTime": 1520388713041}, {"current_trial": 109, "trialdata": {"rt": -1, "trial_type": "single-stim", "stimulus": "<p id=\"stim\">7</p>", "internal_node_id": "0.0-79.0-3.0", "time_elapsed": 644443, "key_press": -1, "trial_index": 109}, "uniqueid": "MTK3328:3DL65MZB8EMN1MVMTLR3CLOADI5CEZ", "dateTime": 1520388714043}, {"current_trial": 110, "trialdata": {"rt": -1, "trial_type": "single-stim", "stimulus": "<p id=\"stim\">6</p>", "internal_node_id": "0.0-79.0-4.0", "time_elapsed": 645446, "key_press": -1, "trial_index": 110}, "uniqueid": "MTK3328:3DL65MZB8EMN1MVMTLR3CLOADI5CEZ", "dateTime": 1520388715046}, {"current_trial": 111, "trialdata": {"rt": -1, "trial_type": "single-stim", "stimulus": "<p id=\"stim\">5</p>", "internal_node_id": "0.0-79.0-5.0", "time_elapsed": 646448, "key_press": -1, "trial_index": 111}, "uniqueid": "MTK3328:3DL65MZB8EMN1MVMTLR3CLOADI5CEZ", "dateTime": 1520388716049}, {"current_trial": 112, "trialdata": {"rt": -1, "trial_type": "single-stim", "stimulus": "<p id=\"stim\">4</p>", "internal_node_id": "0.0-79.0-6.0", "time_elapsed": 647452, "key_press": -1, "trial_index": 112}, "uniqueid": "MTK3328:3DL65MZB8EMN1MVMTLR3CLOADI5CEZ", "dateTime": 1520388717052}, {"current_trial": 113, "trialdata": {"rt": -1, "trial_type": "single-stim", "stimulus": "<p id=\"stim\">3</p>", "internal_node_id": "0.0-79.0-7.0", "time_elapsed": 648455, "key_press": -1, "trial_index": 113}, "uniqueid": "MTK3328:3DL65MZB8EMN1MVMTLR3CLOADI5CEZ", "dateTime": 1520388718055}, {"current_trial": 114, "trialdata": {"rt": -1, "trial_type": "single-stim", "stimulus": "<p id=\"stim\">2</p>", "internal_node_id": "0.0-79.0-8.0", "time_elapsed": 649459, "key_press": -1, "trial_index": 114}, "uniqueid": "MTK3328:3DL65MZB8EMN1MVMTLR3CLOADI5CEZ", "dateTime": 1520388719060}, {"current_trial": 115, "trialdata": {"rt": -1, "trial_type": "single-stim", "stimulus": "<p id=\"stim\">1</p>", "internal_node_id": "0.0-79.0-9.0", "time_elapsed": 650463, "key_press": -1, "trial_index": 115}, "uniqueid": "MTK3328:3DL65MZB8EMN1MVMTLR3CLOADI5CEZ", "dateTime": 1520388720063}, {"current_trial": 116, "trialdata": {"rt": -1, "trial_type": "single-stim", "stimulus": "<p id=\"stim\">+</p>", "internal_node_id": "0.0-80.0-0.0", "time_elapsed": 651968, "key_press": -1, "type": "FIXATION", "trial_index": 116}, "uniqueid": "MTK3328:3DL65MZB8EMN1MVMTLR3CLOADI5CEZ", "dateTime": 1520388721568}, {"current_trial": 117, "trialdata": {"rt": -1000, "trial_type": "single-audio", "word": "diver", "stimulus": "/static/audio/wordpool/DIVER.wav", "conditions": [12, 1600, "a", 24000], "internal_node_id": "0.0-81.0", "trial": 3, "time_elapsed": 654413, "serialpos": 0, "key_press": -1, "wordID": 475, "type": "PRES_AUD", "trial_index": 117}, "uniqueid": "MTK3328:3DL65MZB8EMN1MVMTLR3CLOADI5CEZ", "dateTime": 1520388724013}, {"current_trial": 118, "trialdata": {"rt": -1000, "trial_type": "single-audio", "word": "island", "stimulus": "/static/audio/wordpool/ISLAND.wav", "conditions": [12, 1600, "a", 24000], "internal_node_id": "0.0-82.0", "trial": 3, "time_elapsed": 657127, "serialpos": 1, "key_press": -1, "wordID": 744, "type": "PRES_AUD", "trial_index": 118}, "uniqueid": "MTK3328:3DL65MZB8EMN1MVMTLR3CLOADI5CEZ", "dateTime": 1520388726727}, {"current_trial": 119, "trialdata": {"rt": -1000, "trial_type": "single-audio", "word": "bunny", "stimulus": "/static/audio/wordpool/BUNNY.wav", "conditions": [12, 1600, "a", 24000], "internal_node_id": "0.0-83.0", "trial": 3, "time_elapsed": 659754, "serialpos": 2, "key_press": -1, "wordID": 197, "type": "PRES_AUD", "trial_index": 119}, "uniqueid": "MTK3328:3DL65MZB8EMN1MVMTLR3CLOADI5CEZ", "dateTime": 1520388729354}, {"current_trial": 120, "trialdata": {"rt": -1000, "trial_type": "single-audio", "word": "chipmunk", "stimulus": "/static/audio/wordpool/CHIPMUNK.wav", "conditions": [12, 1600, "a", 24000], "internal_node_id": "0.0-84.0", "trial": 3, "time_elapsed": 662229, "serialpos": 3, "key_press": -1, "wordID": 303, "type": "PRES_AUD", "trial_index": 120}, "uniqueid": "MTK3328:3DL65MZB8EMN1MVMTLR3CLOADI5CEZ", "dateTime": 1520388731829}, {"current_trial": 121, "trialdata": {"rt": -1000, "trial_type": "single-audio", "word": "marsh", "stimulus": "/static/audio/wordpool/MARSH.wav", "conditions": [12, 1600, "a", 24000], "internal_node_id": "0.0-85.0", "trial": 3, "time_elapsed": 664807, "serialpos": 4, "key_press": -1, "wordID": 873, "type": "PRES_AUD", "trial_index": 121}, "uniqueid": "MTK3328:3DL65MZB8EMN1MVMTLR3CLOADI5CEZ", "dateTime": 1520388734407}, {"current_trial": 122, "trialdata": {"rt": -1000, "trial_type": "single-audio", "word": "peach", "stimulus": "/static/audio/wordpool/PEACH.wav", "conditions": [12, 1600, "a", 24000], "internal_node_id": "0.0-86.0", "trial": 3, "time_elapsed": 667361, "serialpos": 5, "key_press": -1, "wordID": 1030, "type": "PRES_AUD", "trial_index": 122}, "uniqueid": "MTK3328:3DL65MZB8EMN1MVMTLR3CLOADI5CEZ", "dateTime": 1520388736961}, {"current_trial": 123, "trialdata": {"rt": -1000, "trial_type": "single-audio", "word": "cousin", "stimulus": "/static/audio/wordpool/COUSIN.wav", "conditions": [12, 1600, "a", 24000], "internal_node_id": "0.0-87.0", "trial": 3, "time_elapsed": 669828, "serialpos": 6, "key_press": -1, "wordID": 391, "type": "PRES_AUD", "trial_index": 123}, "uniqueid": "MTK3328:3DL65MZB8EMN1MVMTLR3CLOADI5CEZ", "dateTime": 1520388739428}, {"current_trial": 124, "trialdata": {"rt": -1000, "trial_type": "single-audio", "word": "pebble", "stimulus": "/static/audio/wordpool/PEBBLE.wav", "conditions": [12, 1600, "a", 24000], "internal_node_id": "0.0-88.0", "trial": 3, "time_elapsed": 672235, "serialpos": 7, "key_press": -1, "wordID": 1034, "type": "PRES_AUD", "trial_index": 124}, "uniqueid": "MTK3328:3DL65MZB8EMN1MVMTLR3CLOADI5CEZ", "dateTime": 1520388741835}, {"current_trial": 125, "trialdata": {"rt": -1000, "trial_type": "single-audio", "word": "lily", "stimulus": "/static/audio/wordpool/LILY.wav", "conditions": [12, 1600, "a", 24000], "internal_node_id": "0.0-89.0", "trial": 3, "time_elapsed": 674833, "serialpos": 8, "key_press": -1, "wordID": 820, "type": "PRES_AUD", "trial_index": 125}, "uniqueid": "MTK3328:3DL65MZB8EMN1MVMTLR3CLOADI5CEZ", "dateTime": 1520388744433}, {"current_trial": 126, "trialdata": {"rt": -1000, "trial_type": "single-audio", "word": "butcher", "stimulus": "/static/audio/wordpool/BUTCHER.wav", "conditions": [12, 1600, "a", 24000], "internal_node_id": "0.0-90.0", "trial": 3, "time_elapsed": 677352, "serialpos": 9, "key_press": -1, "wordID": 202, "type": "PRES_AUD", "trial_index": 126}, "uniqueid": "MTK3328:3DL65MZB8EMN1MVMTLR3CLOADI5CEZ", "dateTime": 1520388746953}, {"current_trial": 127, "trialdata": {"rt": -1000, "trial_type": "single-audio", "word": "onion", "stimulus": "/static/audio/wordpool/ONION.wav", "conditions": [12, 1600, "a", 24000], "internal_node_id": "0.0-91.0", "trial": 3, "time_elapsed": 680090, "serialpos": 10, "key_press": -1, "wordID": 976, "type": "PRES_AUD", "trial_index": 127}, "uniqueid": "MTK3328:3DL65MZB8EMN1MVMTLR3CLOADI5CEZ", "dateTime": 1520388749690}, {"current_trial": 128, "trialdata": {"rt": -1000, "trial_type": "single-audio", "word": "swimmer", "stimulus": "/static/audio/wordpool/SWIMMER.wav", "conditions": [12, 1600, "a", 24000], "internal_node_id": "0.0-92.0", "trial": 3, "time_elapsed": 682624, "serialpos": 11, "key_press": -1, "wordID": 1419, "type": "PRES_AUD", "trial_index": 128}, "uniqueid": "MTK3328:3DL65MZB8EMN1MVMTLR3CLOADI5CEZ", "dateTime": 1520388752224}, {"current_trial": 129, "trialdata": {"rt": -1, "trial_type": "single-stim", "stimulus": "", "internal_node_id": "0.0-93.0-0.0", "time_elapsed": 683898, "key_press": -1, "type": "PRE_RECALL_DELAY", "trial_index": 129}, "uniqueid": "MTK3328:3DL65MZB8EMN1MVMTLR3CLOADI5CEZ", "dateTime": 1520388753498}, {"current_trial": 130, "trialdata": {"rt": -1000, "trial_type": "single-audio", "stimulus": "/static/audio/400Hz.wav", "internal_node_id": "0.0-94.0", "time_elapsed": 684401, "key_press": -1, "type": "PRE_RECALL_ALERT", "trial_index": 130}, "uniqueid": "MTK3328:3DL65MZB8EMN1MVMTLR3CLOADI5CEZ", "dateTime": 1520388754001}, {"current_trial": 131, "trialdata": {"rt": [3631, 5367, 7789, 9345, 12316, 15645], "recwords": ["swimmer", "onion", "butcher", "bunny", "chipmunk", "diver"], "key_times": [745, 917, 1130, 1278, 1379, 1481, 2079, 2218, 2344, 2471, 2595, 2792, 3050, 3268, 3365, 3442, 3557, 3631, 4008, 4132, 4323, 4489, 4745, 5367, 5696, 5798, 6000, 6285, 6635, 6739, 6892, 6970, 7078, 7789, 8418, 8531, 8742, 8884, 8971, 9345, 10100, 10265, 10486, 10797, 11118, 11365, 11568, 11670, 12316, 14588, 14809, 14930, 15081, 15187, 15645], "trial_type": "free-recall", "conditions": [12, 1600, "a", 24000], "internal_node_id": "0.0-95.0-0.0", "key_presses": [83, 73, 77, 77, 69, 82, 8, 8, 8, 8, 8, 87, 73, 77, 77, 69, 82, 188, 79, 78, 73, 79, 78, 188, 66, 85, 84, 72, 8, 67, 72, 69, 82, 188, 66, 85, 78, 78, 89, 188, 67, 72, 73, 80, 77, 85, 78, 75, 188, 68, 73, 86, 69, 82, 188], "trial": 3, "time_elapsed": 744409, "type": "FREE_RECALL", "trial_index": 131}, "uniqueid": "MTK3328:3DL65MZB8EMN1MVMTLR3CLOADI5CEZ", "dateTime": 1520388814017}, {"current_trial": 132, "trialdata": {"rt": 3613, "trial_type": "text", "internal_node_id": "0.0-96.0", "time_elapsed": 750033, "key_press": 32, "type": "INSTRUCTIONS", "trial_index": 132}, "uniqueid": "MTK3328:3DL65MZB8EMN1MVMTLR3CLOADI5CEZ", "dateTime": 1520388819634}, {"current_trial": 133, "trialdata": {"rt": [5878, 11596], "trial_type": "math-distractor", "key_times": [5298, 5489, 5878, 10874, 11196, 11596], "responses": ["14", "19"], "num2": [6, 6, 2], "num3": [3, 5, 1], "conditions": [24, 800, "a", 12000], "internal_node_id": "0.0-97.0", "key_presses": [49, 52, 13, 49, 57, 13], "trial": 4, "time_elapsed": 764050, "type": "DISTRACTOR", "trial_index": 133, "num1": [5, 8, 1]}, "uniqueid": "MTK3328:3DL65MZB8EMN1MVMTLR3CLOADI5CEZ", "dateTime": 1520388833650}, {"current_trial": 134, "trialdata": {"rt": -1, "trial_type": "single-stim", "stimulus": "<p id=\"stim\">10</p>", "internal_node_id": "0.0-98.0-0.0", "time_elapsed": 767056, "key_press": -1, "trial_index": 134}, "uniqueid": "MTK3328:3DL65MZB8EMN1MVMTLR3CLOADI5CEZ", "dateTime": 1520388836656}, {"current_trial": 135, "trialdata": {"rt": -1, "trial_type": "single-stim", "stimulus": "<p id=\"stim\">9</p>", "internal_node_id": "0.0-98.0-1.0", "time_elapsed": 768061, "key_press": -1, "trial_index": 135}, "uniqueid": "MTK3328:3DL65MZB8EMN1MVMTLR3CLOADI5CEZ", "dateTime": 1520388837661}, {"current_trial": 136, "trialdata": {"rt": -1, "trial_type": "single-stim", "stimulus": "<p id=\"stim\">8</p>", "internal_node_id": "0.0-98.0-2.0", "time_elapsed": 769067, "key_press": -1, "trial_index": 136}, "uniqueid": "MTK3328:3DL65MZB8EMN1MVMTLR3CLOADI5CEZ", "dateTime": 1520388838667}, {"current_trial": 137, "trialdata": {"rt": -1, "trial_type": "single-stim", "stimulus": "<p id=\"stim\">7</p>", "internal_node_id": "0.0-98.0-3.0", "time_elapsed": 770072, "key_press": -1, "trial_index": 137}, "uniqueid": "MTK3328:3DL65MZB8EMN1MVMTLR3CLOADI5CEZ", "dateTime": 1520388839673}, {"current_trial": 138, "trialdata": {"rt": -1, "trial_type": "single-stim", "stimulus": "<p id=\"stim\">6</p>", "internal_node_id": "0.0-98.0-4.0", "time_elapsed": 771076, "key_press": -1, "trial_index": 138}, "uniqueid": "MTK3328:3DL65MZB8EMN1MVMTLR3CLOADI5CEZ", "dateTime": 1520388840677}, {"current_trial": 139, "trialdata": {"rt": -1, "trial_type": "single-stim", "stimulus": "<p id=\"stim\">5</p>", "internal_node_id": "0.0-98.0-5.0", "time_elapsed": 772080, "key_press": -1, "trial_index": 139}, "uniqueid": "MTK3328:3DL65MZB8EMN1MVMTLR3CLOADI5CEZ", "dateTime": 1520388841681}, {"current_trial": 140, "trialdata": {"rt": -1, "trial_type": "single-stim", "stimulus": "<p id=\"stim\">4</p>", "internal_node_id": "0.0-98.0-6.0", "time_elapsed": 773085, "key_press": -1, "trial_index": 140}, "uniqueid": "MTK3328:3DL65MZB8EMN1MVMTLR3CLOADI5CEZ", "dateTime": 1520388842685}, {"current_trial": 141, "trialdata": {"rt": -1, "trial_type": "single-stim", "stimulus": "<p id=\"stim\">3</p>", "internal_node_id": "0.0-98.0-7.0", "time_elapsed": 774089, "key_press": -1, "trial_index": 141}, "uniqueid": "MTK3328:3DL65MZB8EMN1MVMTLR3CLOADI5CEZ", "dateTime": 1520388843690}, {"current_trial": 142, "trialdata": {"rt": -1, "trial_type": "single-stim", "stimulus": "<p id=\"stim\">2</p>", "internal_node_id": "0.0-98.0-8.0", "time_elapsed": 775093, "key_press": -1, "trial_index": 142}, "uniqueid": "MTK3328:3DL65MZB8EMN1MVMTLR3CLOADI5CEZ", "dateTime": 1520388844693}, {"current_trial": 143, "trialdata": {"rt": -1, "trial_type": "single-stim", "stimulus": "<p id=\"stim\">1</p>", "internal_node_id": "0.0-98.0-9.0", "time_elapsed": 776096, "key_press": -1, "trial_index": 143}, "uniqueid": "MTK3328:3DL65MZB8EMN1MVMTLR3CLOADI5CEZ", "dateTime": 1520388845696}, {"current_trial": 144, "trialdata": {"rt": -1, "trial_type": "single-stim", "stimulus": "<p id=\"stim\">+</p>", "internal_node_id": "0.0-99.0-0.0", "time_elapsed": 777599, "key_press": -1, "type": "FIXATION", "trial_index": 144}, "uniqueid": "MTK3328:3DL65MZB8EMN1MVMTLR3CLOADI5CEZ", "dateTime": 1520388847200}, {"current_trial": 145, "trialdata": {"rt": -1000, "trial_type": "single-audio", "word": "rattle", "stimulus": "/static/audio/wordpool/RATTLE.wav", "conditions": [24, 800, "a", 12000], "internal_node_id": "0.0-100.0", "trial": 4, "time_elapsed": 779258, "serialpos": 0, "key_press": -1, "wordID": 1169, "type": "PRES_AUD", "trial_index": 145}, "uniqueid": "MTK3328:3DL65MZB8EMN1MVMTLR3CLOADI5CEZ", "dateTime": 1520388848858}, {"current_trial": 146, "trialdata": {"rt": -1000, "trial_type": "single-audio", "word": "hornet", "stimulus": "/static/audio/wordpool/HORNET.wav", "conditions": [24, 800, "a", 12000], "internal_node_id": "0.0-101.0", "trial": 4, "time_elapsed": 781209, "serialpos": 1, "key_press": -1, "wordID": 717, "type": "PRES_AUD", "trial_index": 146}, "uniqueid": "MTK3328:3DL65MZB8EMN1MVMTLR3CLOADI5CEZ", "dateTime": 1520388850809}, {"current_trial": 147, "trialdata": {"rt": -1000, "trial_type": "single-audio", "word": "turnip", "stimulus": "/static/audio/wordpool/TURNIP.wav", "conditions": [24, 800, "a", 12000], "internal_node_id": "0.0-102.0", "trial": 4, "time_elapsed": 782843, "serialpos": 2, "key_press": -1, "wordID": 1520, "type": "PRES_AUD", "trial_index": 147}, "uniqueid": "MTK3328:3DL65MZB8EMN1MVMTLR3CLOADI5CEZ", "dateTime": 1520388852443}, {"current_trial": 148, "trialdata": {"rt": -1000, "trial_type": "single-audio", "word": "radish", "stimulus": "/static/audio/wordpool/RADISH.wav", "conditions": [24, 800, "a", 12000], "internal_node_id": "0.0-103.0", "trial": 4, "time_elapsed": 784454, "serialpos": 3, "key_press": -1, "wordID": 1157, "type": "PRES_AUD", "trial_index": 148}, "uniqueid": "MTK3328:3DL65MZB8EMN1MVMTLR3CLOADI5CEZ", "dateTime": 1520388854055}, {"current_trial": 149, "trialdata": {"rt": -1000, "trial_type": "single-audio", "word": "picnic", "stimulus": "/static/audio/wordpool/PICNIC.wav", "conditions": [24, 800, "a", 12000], "internal_node_id": "0.0-104.0", "trial": 4, "time_elapsed": 786403, "serialpos": 4, "key_press": -1, "wordID": 1059, "type": "PRES_AUD", "trial_index": 149}, "uniqueid": "MTK3328:3DL65MZB8EMN1MVMTLR3CLOADI5CEZ", "dateTime": 1520388856003}, {"current_trial": 150, "trialdata": {"rt": -1000, "trial_type": "single-audio", "word": "powder", "stimulus": "/static/audio/wordpool/POWDER.wav", "conditions": [24, 800, "a", 12000], "internal_node_id": "0.0-105.0", "trial": 4, "time_elapsed": 788224, "serialpos": 5, "key_press": -1, "wordID": 1116, "type": "PRES_AUD", "trial_index": 150}, "uniqueid": "MTK3328:3DL65MZB8EMN1MVMTLR3CLOADI5CEZ", "dateTime": 1520388857824}, {"current_trial": 151, "trialdata": {"rt": -1000, "trial_type": "single-audio", "word": "icing", "stimulus": "/static/audio/wordpool/ICING.wav", "conditions": [24, 800, "a", 12000], "internal_node_id": "0.0-106.0", "trial": 4, "time_elapsed": 790115, "serialpos": 6, "key_press": -1, "wordID": 731, "type": "PRES_AUD", "trial_index": 151}, "uniqueid": "MTK3328:3DL65MZB8EMN1MVMTLR3CLOADI5CEZ", "dateTime": 1520388859715}, {"current_trial": 152, "trialdata": {"rt": -1000, "trial_type": "single-audio", "word": "chemist", "stimulus": "/static/audio/wordpool/CHEMIST.wav", "conditions": [24, 800, "a", 12000], "internal_node_id": "0.0-107.0", "trial": 4, "time_elapsed": 792010, "serialpos": 7, "key_press": -1, "wordID": 291, "type": "PRES_AUD", "trial_index": 152}, "uniqueid": "MTK3328:3DL65MZB8EMN1MVMTLR3CLOADI5CEZ", "dateTime": 1520388861611}, {"current_trial": 153, "trialdata": {"rt": -1000, "trial_type": "single-audio", "word": "rabbit", "stimulus": "/static/audio/wordpool/RABBIT.wav", "conditions": [24, 800, "a", 12000], "internal_node_id": "0.0-108.0", "trial": 4, "time_elapsed": 793985, "serialpos": 8, "key_press": -1, "wordID": 1151, "type": "PRES_AUD", "trial_index": 153}, "uniqueid": "MTK3328:3DL65MZB8EMN1MVMTLR3CLOADI5CEZ", "dateTime": 1520388863585}, {"current_trial": 154, "trialdata": {"rt": -1000, "trial_type": "single-audio", "word": "football", "stimulus": "/static/audio/wordpool/FOOTBALL.wav", "conditions": [24, 800, "a", 12000], "internal_node_id": "0.0-109.0", "trial": 4, "time_elapsed": 795758, "serialpos": 9, "key_press": -1, "wordID": 590, "type": "PRES_AUD", "trial_index": 154}, "uniqueid": "MTK3328:3DL65MZB8EMN1MVMTLR3CLOADI5CEZ", "dateTime": 1520388865358}, {"current_trial": 155, "trialdata": {"rt": -1000, "trial_type": "single-audio", "word": "captive", "stimulus": "/static/audio/wordpool/CAPTIVE.wav", "conditions": [24, 800, "a", 12000], "internal_node_id": "0.0-110.0", "trial": 4, "time_elapsed": 797743, "serialpos": 10, "key_press": -1, "wordID": 239, "type": "PRES_AUD", "trial_index": 155}, "uniqueid": "MTK3328:3DL65MZB8EMN1MVMTLR3CLOADI5CEZ", "dateTime": 1520388867343}, {"current_trial": 156, "trialdata": {"rt": -1000, "trial_type": "single-audio", "word": "spider", "stimulus": "/static/audio/wordpool/SPIDER.wav", "conditions": [24, 800, "a", 12000], "internal_node_id": "0.0-111.0", "trial": 4, "time_elapsed": 799529, "serialpos": 11, "key_press": -1, "wordID": 1350, "type": "PRES_AUD", "trial_index": 156}, "uniqueid": "MTK3328:3DL65MZB8EMN1MVMTLR3CLOADI5CEZ", "dateTime": 1520388869130}, {"current_trial": 157, "trialdata": {"rt": -1000, "trial_type": "single-audio", "word": "scarf", "stimulus": "/static/audio/wordpool/SCARF.wav", "conditions": [24, 800, "a", 12000], "internal_node_id": "0.0-112.0", "trial": 4, "time_elapsed": 801179, "serialpos": 12, "key_press": -1, "wordID": 1245, "type": "PRES_AUD", "trial_index": 157}, "uniqueid": "MTK3328:3DL65MZB8EMN1MVMTLR3CLOADI5CEZ", "dateTime": 1520388870779}, {"current_trial": 158, "trialdata": {"rt": -1000, "trial_type": "single-audio", "word": "scarecrow", "stimulus": "/static/audio/wordpool/SCARECROW.wav", "conditions": [24, 800, "a", 12000], "internal_node_id": "0.0-113.0", "trial": 4, "time_elapsed": 803101, "serialpos": 13, "key_press": -1, "wordID": 1244, "type": "PRES_AUD", "trial_index": 158}, "uniqueid": "MTK3328:3DL65MZB8EMN1MVMTLR3CLOADI5CEZ", "dateTime": 1520388872701}, {"current_trial": 159, "trialdata": {"rt": -1000, "trial_type": "single-audio", "word": "bike", "stimulus": "/static/audio/wordpool/BIKE.wav", "conditions": [24, 800, "a", 12000], "internal_node_id": "0.0-114.0", "trial": 4, "time_elapsed": 804745, "serialpos": 14, "key_press": -1, "wordID": 124, "type": "PRES_AUD", "trial_index": 159}, "uniqueid": "MTK3328:3DL65MZB8EMN1MVMTLR3CLOADI5CEZ", "dateTime": 1520388874346}, {"current_trial": 160, "trialdata": {"rt": -1000, "trial_type": "single-audio", "word": "carriage", "stimulus": "/static/audio/wordpool/CARRIAGE.wav", "conditions": [24, 800, "a", 12000], "internal_node_id": "0.0-115.0", "trial": 4, "time_elapsed": 806504, "serialpos": 15, "key_press": -1, "wordID": 247, "type": "PRES_AUD", "trial_index": 160}, "uniqueid": "MTK3328:3DL65MZB8EMN1MVMTLR3CLOADI5CEZ", "dateTime": 1520388876105}, {"current_trial": 161, "trialdata": {"rt": -1000, "trial_type": "single-audio", "word": "marrow", "stimulus": "/static/audio/wordpool/MARROW.wav", "conditions": [24, 800, "a", 12000], "internal_node_id": "0.0-116.0", "trial": 4, "time_elapsed": 808263, "serialpos": 16, "key_press": -1, "wordID": 871, "type": "PRES_AUD", "trial_index": 161}, "uniqueid": "MTK3328:3DL65MZB8EMN1MVMTLR3CLOADI5CEZ", "dateTime": 1520388877864}, {"current_trial": 162, "trialdata": {"rt": -1000, "trial_type": "single-audio", "word": "liver", "stimulus": "/static/audio/wordpool/LIVER.wav", "conditions": [24, 800, "a", 12000], "internal_node_id": "0.0-117.0", "trial": 4, "time_elapsed": 810045, "serialpos": 17, "key_press": -1, "wordID": 832, "type": "PRES_AUD", "trial_index": 162}, "uniqueid": "MTK3328:3DL65MZB8EMN1MVMTLR3CLOADI5CEZ", "dateTime": 1520388879646}, {"current_trial": 163, "trialdata": {"rt": -1000, "trial_type": "single-audio", "word": "cigar", "stimulus": "/static/audio/wordpool/CIGAR.wav", "conditions": [24, 800, "a", 12000], "internal_node_id": "0.0-118.0", "trial": 4, "time_elapsed": 811872, "serialpos": 18, "key_press": -1, "wordID": 307, "type": "PRES_AUD", "trial_index": 163}, "uniqueid": "MTK3328:3DL65MZB8EMN1MVMTLR3CLOADI5CEZ", "dateTime": 1520388881472}, {"current_trial": 164, "trialdata": {"rt": -1000, "trial_type": "single-audio", "word": "leg", "stimulus": "/static/audio/wordpool/LEG.wav", "conditions": [24, 800, "a", 12000], "internal_node_id": "0.0-119.0", "trial": 4, "time_elapsed": 813655, "serialpos": 19, "key_press": -1, "wordID": 808, "type": "PRES_AUD", "trial_index": 164}, "uniqueid": "MTK3328:3DL65MZB8EMN1MVMTLR3CLOADI5CEZ", "dateTime": 1520388883255}, {"current_trial": 165, "trialdata": {"rt": -1000, "trial_type": "single-audio", "word": "gallon", "stimulus": "/static/audio/wordpool/GALLON.wav", "conditions": [24, 800, "a", 12000], "internal_node_id": "0.0-120.0", "trial": 4, "time_elapsed": 815411, "serialpos": 20, "key_press": -1, "wordID": 617, "type": "PRES_AUD", "trial_index": 165}, "uniqueid": "MTK3328:3DL65MZB8EMN1MVMTLR3CLOADI5CEZ", "dateTime": 1520388885011}, {"current_trial": 166, "trialdata": {"rt": -1000, "trial_type": "single-audio", "word": "convict", "stimulus": "/static/audio/wordpool/CONVICT.wav", "conditions": [24, 800, "a", 12000], "internal_node_id": "0.0-121.0", "trial": 4, "time_elapsed": 817363, "serialpos": 21, "key_press": -1, "wordID": 370, "type": "PRES_AUD", "trial_index": 166}, "uniqueid": "MTK3328:3DL65MZB8EMN1MVMTLR3CLOADI5CEZ", "dateTime": 1520388886963}, {"current_trial": 167, "trialdata": {"rt": -1000, "trial_type": "single-audio", "word": "cocktail", "stimulus": "/static/audio/wordpool/COCKTAIL.wav", "conditions": [24, 800, "a", 12000], "internal_node_id": "0.0-122.0", "trial": 4, "time_elapsed": 819097, "serialpos": 22, "key_press": -1, "wordID": 337, "type": "PRES_AUD", "trial_index": 167}, "uniqueid": "MTK3328:3DL65MZB8EMN1MVMTLR3CLOADI5CEZ", "dateTime": 1520388888697}, {"current_trial": 168, "trialdata": {"rt": -1000, "trial_type": "single-audio", "word": "barrel", "stimulus": "/static/audio/wordpool/BARREL.wav", "conditions": [24, 800, "a", 12000], "internal_node_id": "0.0-123.0", "trial": 4, "time_elapsed": 821032, "serialpos": 23, "key_press": -1, "wordID": 90, "type": "PRES_AUD", "trial_index": 168}, "uniqueid": "MTK3328:3DL65MZB8EMN1MVMTLR3CLOADI5CEZ", "dateTime": 1520388890632}, {"current_trial": 169, "trialdata": {"rt": -1, "trial_type": "single-stim", "stimulus": "", "internal_node_id": "0.0-124.0-0.0", "time_elapsed": 822396, "key_press": -1, "type": "PRE_RECALL_DELAY", "trial_index": 169}, "uniqueid": "MTK3328:3DL65MZB8EMN1MVMTLR3CLOADI5CEZ", "dateTime": 1520388891996}, {"current_trial": 170, "trialdata": {"rt": -1000, "trial_type": "single-audio", "stimulus": "/static/audio/400Hz.wav", "internal_node_id": "0.0-125.0", "time_elapsed": 822898, "key_press": -1, "type": "PRE_RECALL_ALERT", "trial_index": 170}, "uniqueid": "MTK3328:3DL65MZB8EMN1MVMTLR3CLOADI5CEZ", "dateTime": 1520388892499}, {"current_trial": 171, "trialdata": {"rt": [1797, 4363, 7321, 9835, 23483], "recwords": ["barrel", "cocktail", "convict", "sadle", "gallon"], "key_times": [440, 559, 678, 1025, 1142, 1252, 1797, 2148, 2234, 2361, 2470, 2658, 2755, 2892, 3122, 3176, 3788, 4363, 5569, 5643, 5840, 6102, 6227, 6455, 6713, 7321, 8932, 9031, 9362, 9524, 9598, 9835, 22366, 22495, 22668, 22813, 23002, 23258, 23483], "trial_type": "free-recall", "conditions": [24, 800, "a", 12000], "internal_node_id": "0.0-126.0-0.0", "key_presses": [66, 65, 82, 82, 69, 76, 188, 67, 79, 67, 75, 84, 65, 73, 76, 76, 8, 188, 67, 79, 78, 86, 73, 67, 84, 188, 83, 65, 68, 76, 69, 188, 71, 65, 76, 76, 79, 78, 188], "trial": 4, "time_elapsed": 882905, "type": "FREE_RECALL", "trial_index": 171}, "uniqueid": "MTK3328:3DL65MZB8EMN1MVMTLR3CLOADI5CEZ", "dateTime": 1520388952513}, {"current_trial": 172, "trialdata": {"rt": 1489, "trial_type": "text", "internal_node_id": "0.0-127.0", "time_elapsed": 886407, "key_press": 32, "type": "INSTRUCTIONS", "trial_index": 172}, "uniqueid": "MTK3328:3DL65MZB8EMN1MVMTLR3CLOADI5CEZ", "dateTime": 1520388956008}, {"current_trial": 173, "trialdata": {"rt": [3535, 5383, 10169], "trial_type": "math-distractor", "key_times": [3109, 3283, 3535, 5171, 5383, 9692, 9909, 10169], "responses": ["17", "7", "16"], "num2": [7, 1, 7, 1], "num3": [5, 5, 4, 4], "conditions": [24, 1600, "a", 12000], "internal_node_id": "0.0-128.0", "key_presses": [49, 55, 13, 55, 13, 49, 54, 13], "trial": 5, "time_elapsed": 900414, "type": "DISTRACTOR", "trial_index": 173, "num1": [5, 1, 5, 1]}, "uniqueid": "MTK3328:3DL65MZB8EMN1MVMTLR3CLOADI5CEZ", "dateTime": 1520388970015}, {"current_trial": 174, "trialdata": {"rt": -1, "trial_type": "single-stim", "stimulus": "<p id=\"stim\">10</p>", "internal_node_id": "0.0-129.0-0.0", "time_elapsed": 903419, "key_press": -1, "trial_index": 174}, "uniqueid": "MTK3328:3DL65MZB8EMN1MVMTLR3CLOADI5CEZ", "dateTime": 1520388973019}, {"current_trial": 175, "trialdata": {"rt": -1, "trial_type": "single-stim", "stimulus": "<p id=\"stim\">9</p>", "internal_node_id": "0.0-129.0-1.0", "time_elapsed": 904421, "key_press": -1, "trial_index": 175}, "uniqueid": "MTK3328:3DL65MZB8EMN1MVMTLR3CLOADI5CEZ", "dateTime": 1520388974022}, {"current_trial": 176, "trialdata": {"rt": -1, "trial_type": "single-stim", "stimulus": "<p id=\"stim\">8</p>", "internal_node_id": "0.0-129.0-2.0", "time_elapsed": 905425, "key_press": -1, "trial_index": 176}, "uniqueid": "MTK3328:3DL65MZB8EMN1MVMTLR3CLOADI5CEZ", "dateTime": 1520388975026}, {"current_trial": 177, "trialdata": {"rt": -1, "trial_type": "single-stim", "stimulus": "<p id=\"stim\">7</p>", "internal_node_id": "0.0-129.0-3.0", "time_elapsed": 906429, "key_press": -1, "trial_index": 177}, "uniqueid": "MTK3328:3DL65MZB8EMN1MVMTLR3CLOADI5CEZ", "dateTime": 1520388976029}, {"current_trial": 178, "trialdata": {"rt": -1, "trial_type": "single-stim", "stimulus": "<p id=\"stim\">6</p>", "internal_node_id": "0.0-129.0-4.0", "time_elapsed": 907432, "key_press": -1, "trial_index": 178}, "uniqueid": "MTK3328:3DL65MZB8EMN1MVMTLR3CLOADI5CEZ", "dateTime": 1520388977032}, {"current_trial": 179, "trialdata": {"rt": -1, "trial_type": "single-stim", "stimulus": "<p id=\"stim\">5</p>", "internal_node_id": "0.0-129.0-5.0", "time_elapsed": 908435, "key_press": -1, "trial_index": 179}, "uniqueid": "MTK3328:3DL65MZB8EMN1MVMTLR3CLOADI5CEZ", "dateTime": 1520388978035}, {"current_trial": 180, "trialdata": {"rt": -1, "trial_type": "single-stim", "stimulus": "<p id=\"stim\">4</p>", "internal_node_id": "0.0-129.0-6.0", "time_elapsed": 909437, "key_press": -1, "trial_index": 180}, "uniqueid": "MTK3328:3DL65MZB8EMN1MVMTLR3CLOADI5CEZ", "dateTime": 1520388979038}, {"current_trial": 181, "trialdata": {"rt": -1, "trial_type": "single-stim", "stimulus": "<p id=\"stim\">3</p>", "internal_node_id": "0.0-129.0-7.0", "time_elapsed": 910441, "key_press": -1, "trial_index": 181}, "uniqueid": "MTK3328:3DL65MZB8EMN1MVMTLR3CLOADI5CEZ", "dateTime": 1520388980042}, {"current_trial": 182, "trialdata": {"rt": -1, "trial_type": "single-stim", "stimulus": "<p id=\"stim\">2</p>", "internal_node_id": "0.0-129.0-8.0", "time_elapsed": 911444, "key_press": -1, "trial_index": 182}, "uniqueid": "MTK3328:3DL65MZB8EMN1MVMTLR3CLOADI5CEZ", "dateTime": 1520388981044}, {"current_trial": 183, "trialdata": {"rt": -1, "trial_type": "single-stim", "stimulus": "<p id=\"stim\">1</p>", "internal_node_id": "0.0-129.0-9.0", "time_elapsed": 912446, "key_press": -1, "trial_index": 183}, "uniqueid": "MTK3328:3DL65MZB8EMN1MVMTLR3CLOADI5CEZ", "dateTime": 1520388982047}, {"current_trial": 184, "trialdata": {"rt": -1, "trial_type": "single-stim", "stimulus": "<p id=\"stim\">+</p>", "internal_node_id": "0.0-130.0-0.0", "time_elapsed": 913950, "key_press": -1, "type": "FIXATION", "trial_index": 184}, "uniqueid": "MTK3328:3DL65MZB8EMN1MVMTLR3CLOADI5CEZ", "dateTime": 1520388983551}, {"current_trial": 185, "trialdata": {"rt": -1000, "trial_type": "single-audio", "word": "female", "stimulus": "/static/audio/wordpool/FEMALE.wav", "conditions": [24, 1600, "a", 12000], "internal_node_id": "0.0-131.0", "trial": 5, "time_elapsed": 916478, "serialpos": 0, "key_press": -1, "wordID": 558, "type": "PRES_AUD", "trial_index": 185}, "uniqueid": "MTK3328:3DL65MZB8EMN1MVMTLR3CLOADI5CEZ", "dateTime": 1520388986079}, {"current_trial": 186, "trialdata": {"rt": -1000, "trial_type": "single-audio", "word": "suitcase", "stimulus": "/static/audio/wordpool/SUITCASE.wav", "conditions": [24, 1600, "a", 12000], "internal_node_id": "0.0-132.0", "trial": 5, "time_elapsed": 919194, "serialpos": 1, "key_press": -1, "wordID": 1402, "type": "PRES_AUD", "trial_index": 186}, "uniqueid": "MTK3328:3DL65MZB8EMN1MVMTLR3CLOADI5CEZ", "dateTime": 1520388988795}, {"current_trial": 187, "trialdata": {"rt": -1000, "trial_type": "single-audio", "word": "pork", "stimulus": "/static/audio/wordpool/PORK.wav", "conditions": [24, 1600, "a", 12000], "internal_node_id": "0.0-133.0", "trial": 5, "time_elapsed": 921886, "serialpos": 2, "key_press": -1, "wordID": 1107, "type": "PRES_AUD", "trial_index": 187}, "uniqueid": "MTK3328:3DL65MZB8EMN1MVMTLR3CLOADI5CEZ", "dateTime": 1520388991487}, {"current_trial": 188, "trialdata": {"rt": -1000, "trial_type": "single-audio", "word": "poison", "stimulus": "/static/audio/wordpool/POISON.wav", "conditions": [24, 1600, "a", 12000], "internal_node_id": "0.0-134.0", "trial": 5, "time_elapsed": 924626, "serialpos": 3, "key_press": -1, "wordID": 1095, "type": "PRES_AUD", "trial_index": 188}, "uniqueid": "MTK3328:3DL65MZB8EMN1MVMTLR3CLOADI5CEZ", "dateTime": 1520388994226}, {"current_trial": 189, "trialdata": {"rt": -1000, "trial_type": "single-audio", "word": "nomad", "stimulus": "/static/audio/wordpool/NOMAD.wav", "conditions": [24, 1600, "a", 12000], "internal_node_id": "0.0-135.0", "trial": 5, "time_elapsed": 927334, "serialpos": 4, "key_press": -1, "wordID": 954, "type": "PRES_AUD", "trial_index": 189}, "uniqueid": "MTK3328:3DL65MZB8EMN1MVMTLR3CLOADI5CEZ", "dateTime": 1520388996934}, {"current_trial": 190, "trialdata": {"rt": -1000, "trial_type": "single-audio", "word": "outlaw", "stimulus": "/static/audio/wordpool/OUTLAW.wav", "conditions": [24, 1600, "a", 12000], "internal_node_id": "0.0-136.0", "trial": 5, "time_elapsed": 929896, "serialpos": 5, "key_press": -1, "wordID": 988, "type": "PRES_AUD", "trial_index": 190}, "uniqueid": "MTK3328:3DL65MZB8EMN1MVMTLR3CLOADI5CEZ", "dateTime": 1520388999496}, {"current_trial": 191, "trialdata": {"rt": -1000, "trial_type": "single-audio", "word": "actress", "stimulus": "/static/audio/wordpool/ACTRESS.wav", "conditions": [24, 1600, "a", 12000], "internal_node_id": "0.0-137.0", "trial": 5, "time_elapsed": 932395, "serialpos": 6, "key_press": -1, "wordID": 5, "type": "PRES_AUD", "trial_index": 191}, "uniqueid": "MTK3328:3DL65MZB8EMN1MVMTLR3CLOADI5CEZ", "dateTime": 1520389001995}, {"current_trial": 192, "trialdata": {"rt": -1000, "trial_type": "single-audio", "word": "student", "stimulus": "/static/audio/wordpool/STUDENT.wav", "conditions": [24, 1600, "a", 12000], "internal_node_id": "0.0-138.0", "trial": 5, "time_elapsed": 934965, "serialpos": 7, "key_press": -1, "wordID": 1394, "type": "PRES_AUD", "trial_index": 192}, "uniqueid": "MTK3328:3DL65MZB8EMN1MVMTLR3CLOADI5CEZ", "dateTime": 1520389004565}, {"current_trial": 193, "trialdata": {"rt": -1000, "trial_type": "single-audio", "word": "dorm", "stimulus": "/static/audio/wordpool/DORM.wav", "conditions": [24, 1600, "a", 12000], "internal_node_id": "0.0-139.0", "trial": 5, "time_elapsed": 937723, "serialpos": 8, "key_press": -1, "wordID": 487, "type": "PRES_AUD", "trial_index": 193}, "uniqueid": "MTK3328:3DL65MZB8EMN1MVMTLR3CLOADI5CEZ", "dateTime": 1520389007323}, {"current_trial": 194, "trialdata": {"rt": -1000, "trial_type": "single-audio", "word": "actor", "stimulus": "/static/audio/wordpool/ACTOR.wav", "conditions": [24, 1600, "a", 12000], "internal_node_id": "0.0-140.0", "trial": 5, "time_elapsed": 940243, "serialpos": 9, "key_press": -1, "wordID": 4, "type": "PRES_AUD", "trial_index": 194}, "uniqueid": "MTK3328:3DL65MZB8EMN1MVMTLR3CLOADI5CEZ", "dateTime": 1520389009843}, {"current_trial": 195, "trialdata": {"rt": -1000, "trial_type": "single-audio", "word": "plate", "stimulus": "/static/audio/wordpool/PLATE.wav", "conditions": [24, 1600, "a", 12000], "internal_node_id": "0.0-141.0", "trial": 5, "time_elapsed": 942732, "serialpos": 10, "key_press": -1, "wordID": 1085, "type": "PRES_AUD", "trial_index": 195}, "uniqueid": "MTK3328:3DL65MZB8EMN1MVMTLR3CLOADI5CEZ", "dateTime": 1520389012332}, {"current_trial": 196, "trialdata": {"rt": -1000, "trial_type": "single-audio", "word": "skirt", "stimulus": "/static/audio/wordpool/SKIRT.wav", "conditions": [24, 1600, "a", 12000], "internal_node_id": "0.0-142.0", "trial": 5, "time_elapsed": 945193, "serialpos": 11, "key_press": -1, "wordID": 1318, "type": "PRES_AUD", "trial_index": 196}, "uniqueid": "MTK3328:3DL65MZB8EMN1MVMTLR3CLOADI5CEZ", "dateTime": 1520389014793}, {"current_trial": 197, "trialdata": {"rt": -1000, "trial_type": "single-audio", "word": "virus", "stimulus": "/static/audio/wordpool/VIRUS.wav", "conditions": [24, 1600, "a", 12000], "internal_node_id": "0.0-143.0", "trial": 5, "time_elapsed": 947766, "serialpos": 12, "key_press": -1, "wordID": 1571, "type": "PRES_AUD", "trial_index": 197}, "uniqueid": "MTK3328:3DL65MZB8EMN1MVMTLR3CLOADI5CEZ", "dateTime": 1520389017366}, {"current_trial": 198, "trialdata": {"rt": -1000, "trial_type": "single-audio", "word": "shark", "stimulus": "/static/audio/wordpool/SHARK.wav", "conditions": [24, 1600, "a", 12000], "internal_node_id": "0.0-144.0", "trial": 5, "time_elapsed": 950538, "serialpos": 13, "key_press": -1, "wordID": 1274, "type": "PRES_AUD", "trial_index": 198}, "uniqueid": "MTK3328:3DL65MZB8EMN1MVMTLR3CLOADI5CEZ", "dateTime": 1520389020138}, {"current_trial": 199, "trialdata": {"rt": -1000, "trial_type": "single-audio", "word": "tweezers", "stimulus": "/static/audio/wordpool/TWEEZERS.wav", "conditions": [24, 1600, "a", 12000], "internal_node_id": "0.0-145.0", "trial": 5, "time_elapsed": 953060, "serialpos": 14, "key_press": -1, "wordID": 1525, "type": "PRES_AUD", "trial_index": 199}, "uniqueid": "MTK3328:3DL65MZB8EMN1MVMTLR3CLOADI5CEZ", "dateTime": 1520389022660}, {"current_trial": 200, "trialdata": {"rt": -1000, "trial_type": "single-audio", "word": "pliers", "stimulus": "/static/audio/wordpool/PLIERS.wav", "conditions": [24, 1600, "a", 12000], "internal_node_id": "0.0-146.0", "trial": 5, "time_elapsed": 955479, "serialpos": 15, "key_press": -1, "wordID": 1088, "type": "PRES_AUD", "trial_index": 200}, "uniqueid": "MTK3328:3DL65MZB8EMN1MVMTLR3CLOADI5CEZ", "dateTime": 1520389025079}, {"current_trial": 201, "trialdata": {"rt": -1000, "trial_type": "single-audio", "word": "france", "stimulus": "/static/audio/wordpool/FRANCE.wav", "conditions": [24, 1600, "a", 12000], "internal_node_id": "0.0-147.0", "trial": 5, "time_elapsed": 958120, "serialpos": 16, "key_press": -1, "wordID": 600, "type": "PRES_AUD", "trial_index": 201}, "uniqueid": "MTK3328:3DL65MZB8EMN1MVMTLR3CLOADI5CEZ", "dateTime": 1520389027721}, {"current_trial": 202, "trialdata": {"rt": -1000, "trial_type": "single-audio", "word": "iceberg", "stimulus": "/static/audio/wordpool/ICEBERG.wav", "conditions": [24, 1600, "a", 12000], "internal_node_id": "0.0-148.0", "trial": 5, "time_elapsed": 960856, "serialpos": 17, "key_press": -1, "wordID": 730, "type": "PRES_AUD", "trial_index": 202}, "uniqueid": "MTK3328:3DL65MZB8EMN1MVMTLR3CLOADI5CEZ", "dateTime": 1520389030456}, {"current_trial": 203, "trialdata": {"rt": -1000, "trial_type": "single-audio", "word": "barley", "stimulus": "/static/audio/wordpool/BARLEY.wav", "conditions": [24, 1600, "a", 12000], "internal_node_id": "0.0-149.0", "trial": 5, "time_elapsed": 963616, "serialpos": 18, "key_press": -1, "wordID": 87, "type": "PRES_AUD", "trial_index": 203}, "uniqueid": "MTK3328:3DL65MZB8EMN1MVMTLR3CLOADI5CEZ", "dateTime": 1520389033217}, {"current_trial": 204, "trialdata": {"rt": -1000, "trial_type": "single-audio", "word": "window", "stimulus": "/static/audio/wordpool/WINDOW.wav", "conditions": [24, 1600, "a", 12000], "internal_node_id": "0.0-150.0", "trial": 5, "time_elapsed": 966157, "serialpos": 19, "key_press": -1, "wordID": 1610, "type": "PRES_AUD", "trial_index": 204}, "uniqueid": "MTK3328:3DL65MZB8EMN1MVMTLR3CLOADI5CEZ", "dateTime": 1520389035757}, {"current_trial": 205, "trialdata": {"rt": -1000, "trial_type": "single-audio", "word": "waiter", "stimulus": "/static/audio/wordpool/WAITER.wav", "conditions": [24, 1600, "a", 12000], "internal_node_id": "0.0-151.0", "trial": 5, "time_elapsed": 968664, "serialpos": 20, "key_press": -1, "wordID": 1579, "type": "PRES_AUD", "trial_index": 205}, "uniqueid": "MTK3328:3DL65MZB8EMN1MVMTLR3CLOADI5CEZ", "dateTime": 1520389038265}, {"current_trial": 206, "trialdata": {"rt": -1000, "trial_type": "single-audio", "word": "statue", "stimulus": "/static/audio/wordpool/STATUE.wav", "conditions": [24, 1600, "a", 12000], "internal_node_id": "0.0-152.0", "trial": 5, "time_elapsed": 971364, "serialpos": 21, "key_press": -1, "wordID": 1373, "type": "PRES_AUD", "trial_index": 206}, "uniqueid": "MTK3328:3DL65MZB8EMN1MVMTLR3CLOADI5CEZ", "dateTime": 1520389040964}, {"current_trial": 207, "trialdata": {"rt": -1000, "trial_type": "single-audio", "word": "mildew", "stimulus": "/static/audio/wordpool/MILDEW.wav", "conditions": [24, 1600, "a", 12000], "internal_node_id": "0.0-153.0", "trial": 5, "time_elapsed": 974133, "serialpos": 22, "key_press": -1, "wordID": 892, "type": "PRES_AUD", "trial_index": 207}, "uniqueid": "MTK3328:3DL65MZB8EMN1MVMTLR3CLOADI5CEZ", "dateTime": 1520389043733}, {"current_trial": 208, "trialdata": {"rt": -1000, "trial_type": "single-audio", "word": "japan", "stimulus": "/static/audio/wordpool/JAPAN.wav", "conditions": [24, 1600, "a", 12000], "internal_node_id": "0.0-154.0", "trial": 5, "time_elapsed": 976868, "serialpos": 23, "key_press": -1, "wordID": 748, "type": "PRES_AUD", "trial_index": 208}, "uniqueid": "MTK3328:3DL65MZB8EMN1MVMTLR3CLOADI5CEZ", "dateTime": 1520389046468}, {"current_trial": 209, "trialdata": {"rt": -1, "trial_type": "single-stim", "stimulus": "", "internal_node_id": "0.0-155.0-0.0", "time_elapsed": 978212, "key_press": -1, "type": "PRE_RECALL_DELAY", "trial_index": 209}, "uniqueid": "MTK3328:3DL65MZB8EMN1MVMTLR3CLOADI5CEZ", "dateTime": 1520389047813}, {"current_trial": 210, "trialdata": {"rt": -1000, "trial_type": "single-audio", "stimulus": "/static/audio/400Hz.wav", "internal_node_id": "0.0-156.0", "time_elapsed": 978715, "key_press": -1, "type": "PRE_RECALL_ALERT", "trial_index": 210}, "uniqueid": "MTK3328:3DL65MZB8EMN1MVMTLR3CLOADI5CEZ", "dateTime": 1520389048316}, {"current_trial": 211, "trialdata": {"rt": [1555, 3854, 6668, 8549, 11462, 16012, 18591, 22720, 25544, 44422, 59225], "recwords": ["female", "actor", "suitcase", "japan", "mildew", "barley", "waiter", "tweezers", "pliers", "nomad", "student"], "key_times": [861, 968, 1078, 1187, 1278, 1384, 1555, 1923, 2088, 2343, 3451, 3569, 3854, 5280, 5483, 5596, 5667, 5885, 6043, 6226, 6411, 6668, 7740, 7844, 7971, 8098, 8217, 8549, 9197, 9660, 9883, 10028, 10298, 10428, 11462, 14859, 14990, 15100, 15265, 15368, 15698, 16012, 17374, 17499, 17626, 17764, 17852, 17977, 18591, 19602, 19760, 20120, 20274, 21651, 21899, 21996, 22133, 22720, 23127, 23240, 23483, 24281, 24514, 24639, 24714, 24844, 25544, 42625, 42891, 43185, 43569, 43796, 44422, 58175, 58418, 58613, 58703, 58852, 58915, 59068, 59225], "trial_type": "free-recall", "conditions": [24, 1600, "a", 12000], "internal_node_id": "0.0-157.0-0.0", "key_presses": [70, 69, 77, 65, 76, 69, 188, 65, 67, 84, 79, 82, 188, 83, 85, 73, 84, 67, 65, 83, 69, 188, 74, 65, 80, 65, 78, 188, 77, 73, 76, 68, 69, 87, 188, 66, 65, 82, 76, 69, 89, 188, 87, 65, 73, 84, 69, 82, 188, 84, 87, 69, 69, 90, 69, 82, 83, 188, 80, 76, 89, 8, 73, 69, 82, 83, 188, 78, 79, 77, 65, 68, 13, 83, 84, 85, 68, 69, 78, 84, 13], "trial": 5, "time_elapsed": 1038726, "type": "FREE_RECALL", "trial_index": 211}, "uniqueid": "MTK3328:3DL65MZB8EMN1MVMTLR3CLOADI5CEZ", "dateTime": 1520389108341}, {"current_trial": 212, "trialdata": {"rt": 1515, "trial_type": "text", "internal_node_id": "0.0-158.0", "time_elapsed": 1042260, "key_press": 32, "type": "INSTRUCTIONS", "trial_index": 212}, "uniqueid": "MTK3328:3DL65MZB8EMN1MVMTLR3CLOADI5CEZ", "dateTime": 1520389111860}, {"current_trial": 213, "trialdata": {"rt": [4128, 8260, 13985, 16279], "trial_type": "math-distractor", "key_times": [3685, 3854, 4128, 7917, 8013, 8260, 13519, 13728, 13985, 16020, 16110, 16279], "responses": ["17", "13", "18", "12"], "num2": [7, 2, 9, 3, 8], "num3": [9, 6, 7, 8, 4], "conditions": [24, 1600, "a", 24000], "internal_node_id": "0.0-159.0", "key_presses": [49, 55, 13, 49, 51, 13, 49, 56, 13, 49, 50, 13], "trial": 6, "time_elapsed": 1068275, "type": "DISTRACTOR", "trial_index": 213, "num1": [2, 5, 2, 1, 7]}, "uniqueid": "MTK3328:3DL65MZB8EMN1MVMTLR3CLOADI5CEZ", "dateTime": 1520389137875}, {"current_trial": 214, "trialdata": {"rt": -1, "trial_type": "single-stim", "stimulus": "<p id=\"stim\">10</p>", "internal_node_id": "0.0-160.0-0.0", "time_elapsed": 1071282, "key_press": -1, "trial_index": 214}, "uniqueid": "MTK3328:3DL65MZB8EMN1MVMTLR3CLOADI5CEZ", "dateTime": 1520389140883}, {"current_trial": 215, "trialdata": {"rt": -1, "trial_type": "single-stim", "stimulus": "<p id=\"stim\">9</p>", "internal_node_id": "0.0-160.0-1.0", "time_elapsed": 1072286, "key_press": -1, "trial_index": 215}, "uniqueid": "MTK3328:3DL65MZB8EMN1MVMTLR3CLOADI5CEZ", "dateTime": 1520389141887}, {"current_trial": 216, "trialdata": {"rt": -1, "trial_type": "single-stim", "stimulus": "<p id=\"stim\">8</p>", "internal_node_id": "0.0-160.0-2.0", "time_elapsed": 1073290, "key_press": -1, "trial_index": 216}, "uniqueid": "MTK3328:3DL65MZB8EMN1MVMTLR3CLOADI5CEZ", "dateTime": 1520389142890}, {"current_trial": 217, "trialdata": {"rt": -1, "trial_type": "single-stim", "stimulus": "<p id=\"stim\">7</p>", "internal_node_id": "0.0-160.0-3.0", "time_elapsed": 1074293, "key_press": -1, "trial_index": 217}, "uniqueid": "MTK3328:3DL65MZB8EMN1MVMTLR3CLOADI5CEZ", "dateTime": 1520389143894}, {"current_trial": 218, "trialdata": {"rt": -1, "trial_type": "single-stim", "stimulus": "<p id=\"stim\">6</p>", "internal_node_id": "0.0-160.0-4.0", "time_elapsed": 1075298, "key_press": -1, "trial_index": 218}, "uniqueid": "MTK3328:3DL65MZB8EMN1MVMTLR3CLOADI5CEZ", "dateTime": 1520389144898}, {"current_trial": 219, "trialdata": {"rt": -1, "trial_type": "single-stim", "stimulus": "<p id=\"stim\">5</p>", "internal_node_id": "0.0-160.0-5.0", "time_elapsed": 1076302, "key_press": -1, "trial_index": 219}, "uniqueid": "MTK3328:3DL65MZB8EMN1MVMTLR3CLOADI5CEZ", "dateTime": 1520389145903}, {"current_trial": 220, "trialdata": {"rt": -1, "trial_type": "single-stim", "stimulus": "<p id=\"stim\">4</p>", "internal_node_id": "0.0-160.0-6.0", "time_elapsed": 1077306, "key_press": -1, "trial_index": 220}, "uniqueid": "MTK3328:3DL65MZB8EMN1MVMTLR3CLOADI5CEZ", "dateTime": 1520389146907}, {"current_trial": 221, "trialdata": {"rt": -1, "trial_type": "single-stim", "stimulus": "<p id=\"stim\">3</p>", "internal_node_id": "0.0-160.0-7.0", "time_elapsed": 1078310, "key_press": -1, "trial_index": 221}, "uniqueid": "MTK3328:3DL65MZB8EMN1MVMTLR3CLOADI5CEZ", "dateTime": 1520389147911}, {"current_trial": 222, "trialdata": {"rt": -1, "trial_type": "single-stim", "stimulus": "<p id=\"stim\">2</p>", "internal_node_id": "0.0-160.0-8.0", "time_elapsed": 1079315, "key_press": -1, "trial_index": 222}, "uniqueid": "MTK3328:3DL65MZB8EMN1MVMTLR3CLOADI5CEZ", "dateTime": 1520389148916}, {"current_trial": 223, "trialdata": {"rt": -1, "trial_type": "single-stim", "stimulus": "<p id=\"stim\">1</p>", "internal_node_id": "0.0-160.0-9.0", "time_elapsed": 1080322, "key_press": -1, "trial_index": 223}, "uniqueid": "MTK3328:3DL65MZB8EMN1MVMTLR3CLOADI5CEZ", "dateTime": 1520389149922}, {"current_trial": 224, "trialdata": {"rt": -1, "trial_type": "single-stim", "stimulus": "<p id=\"stim\">+</p>", "internal_node_id": "0.0-161.0-0.0", "time_elapsed": 1081827, "key_press": -1, "type": "FIXATION", "trial_index": 224}, "uniqueid": "MTK3328:3DL65MZB8EMN1MVMTLR3CLOADI5CEZ", "dateTime": 1520389151427}, {"current_trial": 225, "trialdata": {"rt": -1000, "trial_type": "single-audio", "word": "blackboard", "stimulus": "/static/audio/wordpool/BLACKBOARD.wav", "conditions": [24, 1600, "a", 24000], "internal_node_id": "0.0-162.0", "trial": 6, "time_elapsed": 1084508, "serialpos": 0, "key_press": -1, "wordID": 132, "type": "PRES_AUD", "trial_index": 225}, "uniqueid": "MTK3328:3DL65MZB8EMN1MVMTLR3CLOADI5CEZ", "dateTime": 1520389154109}, {"current_trial": 226, "trialdata": {"rt": -1000, "trial_type": "single-audio", "word": "fox", "stimulus": "/static/audio/wordpool/FOX.wav", "conditions": [24, 1600, "a", 24000], "internal_node_id": "0.0-163.0", "trial": 6, "time_elapsed": 1087037, "serialpos": 1, "key_press": -1, "wordID": 597, "type": "PRES_AUD", "trial_index": 226}, "uniqueid": "MTK3328:3DL65MZB8EMN1MVMTLR3CLOADI5CEZ", "dateTime": 1520389156637}, {"current_trial": 227, "trialdata": {"rt": -1000, "trial_type": "single-audio", "word": "pocket", "stimulus": "/static/audio/wordpool/POCKET.wav", "conditions": [24, 1600, "a", 24000], "internal_node_id": "0.0-164.0", "trial": 6, "time_elapsed": 1089776, "serialpos": 2, "key_press": -1, "wordID": 1092, "type": "PRES_AUD", "trial_index": 227}, "uniqueid": "MTK3328:3DL65MZB8EMN1MVMTLR3CLOADI5CEZ", "dateTime": 1520389159376}, {"current_trial": 228, "trialdata": {"rt": -1000, "trial_type": "single-audio", "word": "drawing", "stimulus": "/static/audio/wordpool/DRAWING.wav", "conditions": [24, 1600, "a", 24000], "internal_node_id": "0.0-165.0", "trial": 6, "time_elapsed": 1092198, "serialpos": 3, "key_press": -1, "wordID": 493, "type": "PRES_AUD", "trial_index": 228}, "uniqueid": "MTK3328:3DL65MZB8EMN1MVMTLR3CLOADI5CEZ", "dateTime": 1520389161799}, {"current_trial": 229, "trialdata": {"rt": -1000, "trial_type": "single-audio", "word": "pigeon", "stimulus": "/static/audio/wordpool/PIGEON.wav", "conditions": [24, 1600, "a", 24000], "internal_node_id": "0.0-166.0", "trial": 6, "time_elapsed": 1094627, "serialpos": 4, "key_press": -1, "wordID": 1064, "type": "PRES_AUD", "trial_index": 229}, "uniqueid": "MTK3328:3DL65MZB8EMN1MVMTLR3CLOADI5CEZ", "dateTime": 1520389164228}, {"current_trial": 230, "trialdata": {"rt": -1000, "trial_type": "single-audio", "word": "penguin", "stimulus": "/static/audio/wordpool/PENGUIN.wav", "conditions": [24, 1600, "a", 24000], "internal_node_id": "0.0-167.0", "trial": 6, "time_elapsed": 1097329, "serialpos": 5, "key_press": -1, "wordID": 1043, "type": "PRES_AUD", "trial_index": 230}, "uniqueid": "MTK3328:3DL65MZB8EMN1MVMTLR3CLOADI5CEZ", "dateTime": 1520389166929}, {"current_trial": 231, "trialdata": {"rt": -1000, "trial_type": "single-audio", "word": "burglar", "stimulus": "/static/audio/wordpool/BURGLAR.wav", "conditions": [24, 1600, "a", 24000], "internal_node_id": "0.0-168.0", "trial": 6, "time_elapsed": 1099827, "serialpos": 6, "key_press": -1, "wordID": 199, "type": "PRES_AUD", "trial_index": 231}, "uniqueid": "MTK3328:3DL65MZB8EMN1MVMTLR3CLOADI5CEZ", "dateTime": 1520389169428}, {"current_trial": 232, "trialdata": {"rt": -1000, "trial_type": "single-audio", "word": "heart", "stimulus": "/static/audio/wordpool/HEART.wav", "conditions": [24, 1600, "a", 24000], "internal_node_id": "0.0-169.0", "trial": 6, "time_elapsed": 1102309, "serialpos": 7, "key_press": -1, "wordID": 696, "type": "PRES_AUD", "trial_index": 232}, "uniqueid": "MTK3328:3DL65MZB8EMN1MVMTLR3CLOADI5CEZ", "dateTime": 1520389171910}, {"current_trial": 233, "trialdata": {"rt": -1000, "trial_type": "single-audio", "word": "picture", "stimulus": "/static/audio/wordpool/PICTURE.wav", "conditions": [24, 1600, "a", 24000], "internal_node_id": "0.0-170.0", "trial": 6, "time_elapsed": 1104789, "serialpos": 8, "key_press": -1, "wordID": 1060, "type": "PRES_AUD", "trial_index": 233}, "uniqueid": "MTK3328:3DL65MZB8EMN1MVMTLR3CLOADI5CEZ", "dateTime": 1520389174390}, {"current_trial": 234, "trialdata": {"rt": -1000, "trial_type": "single-audio", "word": "sponge", "stimulus": "/static/audio/wordpool/SPONGE.wav", "conditions": [24, 1600, "a", 24000], "internal_node_id": "0.0-171.0", "trial": 6, "time_elapsed": 1107299, "serialpos": 9, "key_press": -1, "wordID": 1354, "type": "PRES_AUD", "trial_index": 234}, "uniqueid": "MTK3328:3DL65MZB8EMN1MVMTLR3CLOADI5CEZ", "dateTime": 1520389176900}, {"current_trial": 235, "trialdata": {"rt": -1000, "trial_type": "single-audio", "word": "clam", "stimulus": "/static/audio/wordpool/CLAM.wav", "conditions": [24, 1600, "a", 24000], "internal_node_id": "0.0-172.0", "trial": 6, "time_elapsed": 1109888, "serialpos": 10, "key_press": -1, "wordID": 314, "type": "PRES_AUD", "trial_index": 235}, "uniqueid": "MTK3328:3DL65MZB8EMN1MVMTLR3CLOADI5CEZ", "dateTime": 1520389179488}, {"current_trial": 236, "trialdata": {"rt": -1000, "trial_type": "single-audio", "word": "crab", "stimulus": "/static/audio/wordpool/CRAB.wav", "conditions": [24, 1600, "a", 24000], "internal_node_id": "0.0-173.0", "trial": 6, "time_elapsed": 1112629, "serialpos": 11, "key_press": -1, "wordID": 396, "type": "PRES_AUD", "trial_index": 236}, "uniqueid": "MTK3328:3DL65MZB8EMN1MVMTLR3CLOADI5CEZ", "dateTime": 1520389182229}, {"current_trial": 237, "trialdata": {"rt": -1000, "trial_type": "single-audio", "word": "saddle", "stimulus": "/static/audio/wordpool/SADDLE.wav", "conditions": [24, 1600, "a", 24000], "internal_node_id": "0.0-174.0", "trial": 6, "time_elapsed": 1115422, "serialpos": 12, "key_press": -1, "wordID": 1220, "type": "PRES_AUD", "trial_index": 237}, "uniqueid": "MTK3328:3DL65MZB8EMN1MVMTLR3CLOADI5CEZ", "dateTime": 1520389185023}, {"current_trial": 238, "trialdata": {"rt": -1000, "trial_type": "single-audio", "word": "garden", "stimulus": "/static/audio/wordpool/GARDEN.wav", "conditions": [24, 1600, "a", 24000], "internal_node_id": "0.0-175.0", "trial": 6, "time_elapsed": 1117972, "serialpos": 13, "key_press": -1, "wordID": 622, "type": "PRES_AUD", "trial_index": 238}, "uniqueid": "MTK3328:3DL65MZB8EMN1MVMTLR3CLOADI5CEZ", "dateTime": 1520389187572}, {"current_trial": 239, "trialdata": {"rt": -1000, "trial_type": "single-audio", "word": "flower", "stimulus": "/static/audio/wordpool/FLOWER.wav", "conditions": [24, 1600, "a", 24000], "internal_node_id": "0.0-176.0", "trial": 6, "time_elapsed": 1120437, "serialpos": 14, "key_press": -1, "wordID": 583, "type": "PRES_AUD", "trial_index": 239}, "uniqueid": "MTK3328:3DL65MZB8EMN1MVMTLR3CLOADI5CEZ", "dateTime": 1520389190038}, {"current_trial": 240, "trialdata": {"rt": -1000, "trial_type": "single-audio", "word": "mailbox", "stimulus": "/static/audio/wordpool/MAILBOX.wav", "conditions": [24, 1600, "a", 24000], "internal_node_id": "0.0-177.0", "trial": 6, "time_elapsed": 1122996, "serialpos": 15, "key_press": -1, "wordID": 856, "type": "PRES_AUD", "trial_index": 240}, "uniqueid": "MTK3328:3DL65MZB8EMN1MVMTLR3CLOADI5CEZ", "dateTime": 1520389192596}, {"current_trial": 241, "trialdata": {"rt": -1000, "trial_type": "single-audio", "word": "relish", "stimulus": "/static/audio/wordpool/RELISH.wav", "conditions": [24, 1600, "a", 24000], "internal_node_id": "0.0-178.0", "trial": 6, "time_elapsed": 1125639, "serialpos": 16, "key_press": -1, "wordID": 1182, "type": "PRES_AUD", "trial_index": 241}, "uniqueid": "MTK3328:3DL65MZB8EMN1MVMTLR3CLOADI5CEZ", "dateTime": 1520389195239}, {"current_trial": 242, "trialdata": {"rt": -1000, "trial_type": "single-audio", "word": "vagrant", "stimulus": "/static/audio/wordpool/VAGRANT.wav", "conditions": [24, 1600, "a", 24000], "internal_node_id": "0.0-179.0", "trial": 6, "time_elapsed": 1128417, "serialpos": 17, "key_press": -1, "wordID": 1543, "type": "PRES_AUD", "trial_index": 242}, "uniqueid": "MTK3328:3DL65MZB8EMN1MVMTLR3CLOADI5CEZ", "dateTime": 1520389198017}, {"current_trial": 243, "trialdata": {"rt": -1000, "trial_type": "single-audio", "word": "mailman", "stimulus": "/static/audio/wordpool/MAILMAN.wav", "conditions": [24, 1600, "a", 24000], "internal_node_id": "0.0-180.0", "trial": 6, "time_elapsed": 1130922, "serialpos": 18, "key_press": -1, "wordID": 857, "type": "PRES_AUD", "trial_index": 243}, "uniqueid": "MTK3328:3DL65MZB8EMN1MVMTLR3CLOADI5CEZ", "dateTime": 1520389200522}, {"current_trial": 244, "trialdata": {"rt": -1000, "trial_type": "single-audio", "word": "cabbage", "stimulus": "/static/audio/wordpool/CABBAGE.wav", "conditions": [24, 1600, "a", 24000], "internal_node_id": "0.0-181.0", "trial": 6, "time_elapsed": 1133634, "serialpos": 19, "key_press": -1, "wordID": 209, "type": "PRES_AUD", "trial_index": 244}, "uniqueid": "MTK3328:3DL65MZB8EMN1MVMTLR3CLOADI5CEZ", "dateTime": 1520389203234}, {"current_trial": 245, "trialdata": {"rt": -1000, "trial_type": "single-audio", "word": "expert", "stimulus": "/static/audio/wordpool/EXPERT.wav", "conditions": [24, 1600, "a", 24000], "internal_node_id": "0.0-182.0", "trial": 6, "time_elapsed": 1136428, "serialpos": 20, "key_press": -1, "wordID": 542, "type": "PRES_AUD", "trial_index": 245}, "uniqueid": "MTK3328:3DL65MZB8EMN1MVMTLR3CLOADI5CEZ", "dateTime": 1520389206028}, {"current_trial": 246, "trialdata": {"rt": -1000, "trial_type": "single-audio", "word": "camel", "stimulus": "/static/audio/wordpool/CAMEL.wav", "conditions": [24, 1600, "a", 24000], "internal_node_id": "0.0-183.0", "trial": 6, "time_elapsed": 1138855, "serialpos": 21, "key_press": -1, "wordID": 222, "type": "PRES_AUD", "trial_index": 246}, "uniqueid": "MTK3328:3DL65MZB8EMN1MVMTLR3CLOADI5CEZ", "dateTime": 1520389208455}, {"current_trial": 247, "trialdata": {"rt": -1000, "trial_type": "single-audio", "word": "hawk", "stimulus": "/static/audio/wordpool/HAWK.wav", "conditions": [24, 1600, "a", 24000], "internal_node_id": "0.0-184.0", "trial": 6, "time_elapsed": 1141438, "serialpos": 22, "key_press": -1, "wordID": 691, "type": "PRES_AUD", "trial_index": 247}, "uniqueid": "MTK3328:3DL65MZB8EMN1MVMTLR3CLOADI5CEZ", "dateTime": 1520389211038}, {"current_trial": 248, "trialdata": {"rt": -1000, "trial_type": "single-audio", "word": "marine", "stimulus": "/static/audio/wordpool/MARINE.wav", "conditions": [24, 1600, "a", 24000], "internal_node_id": "0.0-185.0", "trial": 6, "time_elapsed": 1144116, "serialpos": 23, "key_press": -1, "wordID": 868, "type": "PRES_AUD", "trial_index": 248}, "uniqueid": "MTK3328:3DL65MZB8EMN1MVMTLR3CLOADI5CEZ", "dateTime": 1520389213718}, {"current_trial": 249, "trialdata": {"rt": -1, "trial_type": "single-stim", "stimulus": "", "internal_node_id": "0.0-186.0-0.0", "time_elapsed": 1145447, "key_press": -1, "type": "PRE_RECALL_DELAY", "trial_index": 249}, "uniqueid": "MTK3328:3DL65MZB8EMN1MVMTLR3CLOADI5CEZ", "dateTime": 1520389215047}, {"current_trial": 250, "trialdata": {"rt": -1000, "trial_type": "single-audio", "stimulus": "/static/audio/400Hz.wav", "internal_node_id": "0.0-187.0", "time_elapsed": 1145950, "key_press": -1, "type": "PRE_RECALL_ALERT", "trial_index": 250}, "uniqueid": "MTK3328:3DL65MZB8EMN1MVMTLR3CLOADI5CEZ", "dateTime": 1520389215551}, {"current_trial": 251, "trialdata": {"rt": [2275, 4627, 6232, 7517, 8897, 12616, 17985, 20324, 27672, 35772], "recwords": ["cabbage", "garden", "hawk", "marine", "cabin", "xbox", "mailbox", "mailman", "saddle", "cabin"], "key_times": [1049, 1306, 1605, 1740, 1824, 1948, 2029, 2275, 3589, 3720, 3892, 4108, 4172, 4313, 4627, 5555, 5787, 5880, 6031, 6232, 6516, 6612, 6850, 7071, 7209, 7296, 7517, 8137, 8275, 8376, 8476, 8640, 8897, 12002, 12152, 12277, 12359, 12616, 15707, 15812, 15971, 16244, 16310, 16984, 17407, 17985, 19151, 19299, 19456, 19657, 19842, 19925, 20045, 20324, 26823, 26948, 27080, 27254, 27407, 27503, 27672, 34883, 35057, 35197, 35303, 35456, 35772], "trial_type": "free-recall", "conditions": [24, 1600, "a", 24000], "internal_node_id": "0.0-188.0-0.0", "key_presses": [67, 65, 66, 66, 65, 71, 69, 188, 71, 65, 82, 68, 69, 78, 188, 72, 65, 87, 75, 188, 77, 65, 82, 73, 78, 69, 188, 67, 65, 66, 73, 78, 188, 88, 66, 79, 88, 188, 77, 65, 73, 76, 66, 79, 88, 188, 77, 65, 73, 76, 77, 65, 78, 188, 83, 65, 68, 68, 76, 69, 188, 67, 65, 66, 73, 78, 188], "trial": 6, "time_elapsed": 1205960, "type": "FREE_RECALL", "trial_index": 251}, "uniqueid": "MTK3328:3DL65MZB8EMN1MVMTLR3CLOADI5CEZ", "dateTime": 1520389275569}, {"current_trial": 252, "trialdata": {"rt": 1912, "trial_type": "text", "internal_node_id": "0.0-189.0", "time_elapsed": 1209886, "key_press": 32, "type": "INSTRUCTIONS", "trial